p1
Integration time [ms]:  20.000
Averaging Nr. [scans]: 50
Smoothing Nr. [pixels]: 0
Data measured with spectrometer [name]: 1307077U2
Wave   ;Sample   ;Dark     ;Reference;Scope Corrected for Dark
[nm]   ;[counts] ;[counts] ;[counts] 

 350.80;   20.320;   -3.950;    0.000;24.27000
 351.10;    9.640;    2.790;    0.000; 6.85000
 351.39;   -3.920;   -5.780;    0.000; 1.86000
 351.69;    0.320;   -6.710;    0.000; 7.03000
 351.99;   -4.220;  -10.760;    0.000; 6.54000
 352.28;   -4.000;  -11.870;    0.000; 7.87000
 352.58;    1.340;    2.640;    0.000;-1.30000
 352.88;    3.640;   -3.560;    0.000; 7.20000
 353.17;    9.920;   -1.460;    0.000;11.38000
 353.47;  -12.240;   -7.300;    0.000;-4.94000
 353.76;   13.900;    3.730;    0.000;10.17000
 354.06;    6.840;    1.480;    0.000; 5.36000
 354.36;    7.220;    2.120;    0.000; 5.10000
 354.65;   17.680;   12.260;    0.000; 5.42000
 354.95;    4.900;    1.380;    0.000; 3.52000
 355.24;   -4.480;   -7.520;    0.000; 3.04000
 355.54;    8.580;   -6.140;    0.000;14.72000
 355.84;   -1.300;    1.010;    0.000;-2.31000
 356.13;   27.700;    1.060;    0.000;26.64000
 356.43;   -1.080;   -3.280;    0.000; 2.20000
 356.72;    6.380;   -7.820;    0.000;14.20000
 357.02;    5.560;    1.340;    0.000; 4.22000
 357.31;   15.420;    4.400;    0.000;11.02000
 357.61;   18.960;    0.390;    0.000;18.57000
 357.91;  -21.000;   -9.460;    0.000;-11.54000
 358.20;   -5.160;   -6.210;    0.000; 1.05000
 358.50;   -2.360;   -0.320;    0.000;-2.04000
 358.79;   -1.000;   -0.240;    0.000;-0.76000
 359.09;   17.320;    4.600;    0.000;12.72000
 359.38;   -1.740;   -4.910;    0.000; 3.17000
 359.68;   -8.220;   -6.920;    0.000;-1.30000
 359.98;    9.020;   -3.210;    0.000;12.23000
 360.27;    4.320;   -5.880;    0.000;10.20000
 360.57;    5.560;   -6.850;    0.000;12.41000
 360.86;   12.760;   -3.030;    0.000;15.79000
 361.16;    8.300;  -10.940;    0.000;19.24000
 361.45;    0.080;   -3.610;    0.000; 3.69000
 361.75;    0.940;   -6.330;    0.000; 7.27000
 362.04;   44.400;    7.330;    0.000;37.07000
 362.34;    4.960;   -8.080;    0.000;13.04000
 362.64;   -9.600;   -4.150;    0.000;-5.45000
 362.93;    5.620;  -11.650;    0.000;17.27000
 363.23;   -6.540;   -3.380;    0.000;-3.16000
 363.52;   -2.220;   -7.930;    0.000; 5.71000
 363.82;    3.440;   -3.630;    0.000; 7.07000
 364.11;   10.180;   -3.640;    0.000;13.82000
 364.41;   -5.460;   -7.090;    0.000; 1.63000
 364.70;   -5.700;   -9.000;    0.000; 3.30000
 365.00;   13.900;    0.260;    0.000;13.64000
 365.29;   -6.240;   -7.370;    0.000; 1.13000
 365.59;   -1.620;   -3.180;    0.000; 1.56000
 365.88;   -2.540;  -15.140;    0.000;12.60000
 366.18;   -2.480;   -3.430;    0.000; 0.95000
 366.47;   -6.180;   -8.280;    0.000; 2.10000
 366.77;    8.680;   -6.540;    0.000;15.22000
 367.06;   -1.140;   -3.040;    0.000; 1.90000
 367.36;   17.080;   -6.830;    0.000;23.91000
 367.65;    7.260;   -1.150;    0.000; 8.41000
 367.95;   -2.580;   -6.850;    0.000; 4.27000
 368.24;    0.620;   -4.930;    0.000; 5.55000
 368.54;   -0.320;  -13.980;    0.000;13.66000
 368.83;   16.360;   -1.360;    0.000;17.72000
 369.13;   11.960;   -2.650;    0.000;14.61000
 369.42;   -3.580;   -5.530;    0.000; 1.95000
 369.72;    9.280;   -9.410;    0.000;18.69000
 370.01;    2.180;   -1.870;    0.000; 4.05000
 370.31;   19.160;    2.490;    0.000;16.67000
 370.60;   19.720;   -0.490;    0.000;20.21000
 370.90;   -2.260;   -4.910;    0.000; 2.65000
 371.19;  -10.940;   -8.640;    0.000;-2.30000
 371.49;   -0.140;  -15.270;    0.000;15.13000
 371.78;    0.060;  -12.190;    0.000;12.25000
 372.08;   10.180;   -4.150;    0.000;14.33000
 372.37;    1.800;   -7.430;    0.000; 9.23000
 372.67;    3.740;   -1.910;    0.000; 5.65000
 372.96;    5.120;   -4.090;    0.000; 9.21000
 373.26;    4.280;  -11.210;    0.000;15.49000
 373.55;    2.060;   -3.340;    0.000; 5.40000
 373.85;   -5.480;  -14.000;    0.000; 8.52000
 374.14;    9.100;   -0.440;    0.000; 9.54000
 374.43;    1.260;   -4.860;    0.000; 6.12000
 374.73;    3.740;   -5.870;    0.000; 9.61000
 375.02;   15.600;   -6.640;    0.000;22.24000
 375.32;   -4.060;   -8.860;    0.000; 4.80000
 375.61;    3.800;   -4.690;    0.000; 8.49000
 375.91;    0.500;   -6.400;    0.000; 6.90000
 376.20;  -14.980;   -8.800;    0.000;-6.18000
 376.50;    1.460;   -2.750;    0.000; 4.21000
 376.79;   -1.080;  -12.990;    0.000;11.91000
 377.08;   -5.040;   -9.810;    0.000; 4.77000
 377.38;   -2.820;   -9.410;    0.000; 6.59000
 377.67;    7.340;  -15.820;    0.000;23.16000
 377.97;   -3.960;  -12.430;    0.000; 8.47000
 378.26;    5.480;   -3.550;    0.000; 9.03000
 378.56;  -11.860;  -11.760;    0.000;-0.10000
 378.85;    6.540;   -6.770;    0.000;13.31000
 379.14;  -10.660;  -10.870;    0.000; 0.21000
 379.44;   -6.900;   -7.950;    0.000; 1.05000
 379.73;   -1.580;  -12.070;    0.000;10.49000
 380.03;    1.640;  -10.640;    0.000;12.28000
 380.32;   -9.580;  -10.740;    0.000; 1.16000
 380.62;   -0.540;  -11.160;    0.000;10.62000
 380.91;    8.700;   -2.790;    0.000;11.49000
 381.20;   -4.740;   -6.380;    0.000; 1.64000
 381.50;  -10.080;   -6.110;    0.000;-3.97000
 381.79;   -4.360;   -7.870;    0.000; 3.51000
 382.09;   -0.160;   -7.030;    0.000; 6.87000
 382.38;   -8.180;  -10.330;    0.000; 2.15000
 382.67;    1.060;  -10.730;    0.000;11.79000
 382.97;   -6.900;   -5.370;    0.000;-1.53000
 383.26;   -2.680;   -3.260;    0.000; 0.58000
 383.56;    2.500;   -3.260;    0.000; 5.76000
 383.85;   -7.940;  -12.650;    0.000; 4.71000
 384.14;   13.300;    0.820;    0.000;12.48000
 384.44;   -2.140;   -6.530;    0.000; 4.39000
 384.73;  -14.260;   -5.430;    0.000;-8.83000
 385.02;    7.220;   -6.450;    0.000;13.67000
 385.32;    2.700;   -4.570;    0.000; 7.27000
 385.61;  -15.360;  -16.270;    0.000; 0.91000
 385.91;    1.960;   -9.440;    0.000;11.40000
 386.20;  -13.300;  -10.110;    0.000;-3.19000
 386.49;   -9.780;  -14.900;    0.000; 5.12000
 386.79;    8.100;   -7.340;    0.000;15.44000
 387.08;   -6.440;   -6.300;    0.000;-0.14000
 387.37;    2.000;   -8.420;    0.000;10.42000
 387.67;   -8.000;   -6.130;    0.000;-1.87000
 387.96;   -2.120;   -9.280;    0.000; 7.16000
 388.25;   -8.020;   -1.410;    0.000;-6.61000
 388.55;   11.000;  -10.080;    0.000;21.08000
 388.84;   -4.980;  -12.690;    0.000; 7.71000
 389.14;   -4.400;  -11.090;    0.000; 6.69000
 389.43;    0.220;   -9.030;    0.000; 9.25000
 389.72;  -10.920;  -13.300;    0.000; 2.38000
 390.02;   -8.200;   -9.420;    0.000; 1.22000
 390.31;    2.140;   -2.070;    0.000; 4.21000
 390.60;    0.620;   -4.250;    0.000; 4.87000
 390.90;   -4.300;  -15.000;    0.000;10.70000
 391.19;   -2.960;   -8.270;    0.000; 5.31000
 391.48;    5.020;  -13.200;    0.000;18.22000
 391.78;  -11.120;   -9.570;    0.000;-1.55000
 392.07;   64.320;   16.810;    0.000;47.51000
 392.36;   13.820;   -1.800;    0.000;15.62000
 392.66;   -8.580;  -11.850;    0.000; 3.27000
 392.95;   -3.900;  -10.380;    0.000; 6.48000
 393.24;  -25.280;  -20.110;    0.000;-5.17000
 393.53;   -3.980;   -8.500;    0.000; 4.52000
 393.83;  -12.400;  -10.870;    0.000;-1.53000
 394.12;   -9.580;  -16.700;    0.000; 7.12000
 394.41;   -4.140;  -13.050;    0.000; 8.91000
 394.71;    1.740;   -7.960;    0.000; 9.70000
 395.00;   -3.420;  -12.500;    0.000; 9.08000
 395.29;   -1.540;   -8.400;    0.000; 6.86000
 395.59;   -8.360;  -20.950;    0.000;12.59000
 395.88;    0.860;  -16.060;    0.000;16.92000
 396.17;  -18.560;   -8.460;    0.000;-10.10000
 396.46;   13.440;   -3.560;    0.000;17.00000
 396.76;   -9.220;  -13.050;    0.000; 3.83000
 397.05;   23.780;    2.180;    0.000;21.60000
 397.34;   -9.680;  -20.090;    0.000;10.41000
 397.64;   -7.220;   -9.050;    0.000; 1.83000
 397.93;   -2.700;  -18.420;    0.000;15.72000
 398.22;  -12.220;  -12.920;    0.000; 0.70000
 398.51;   -4.460;   -9.770;    0.000; 5.31000
 398.81;    0.840;  -12.510;    0.000;13.35000
 399.10;    2.240;   -2.690;    0.000; 4.93000
 399.39;    0.380;  -11.900;    0.000;12.28000
 399.69;    7.040;  -13.740;    0.000;20.78000
 399.98;    1.280;   -4.100;    0.000; 5.38000
 400.27;  -15.760;  -13.520;    0.000;-2.24000
 400.56;    4.420;  -16.060;    0.000;20.48000
 400.86;    2.180;  -13.820;    0.000;16.00000
 401.15;   12.740;   -4.180;    0.000;16.92000
 401.44;  -17.820;  -15.730;    0.000;-2.09000
 401.73;    7.800;   -2.540;    0.000;10.34000
 402.03;   -2.120;  -10.300;    0.000; 8.18000
 402.32;  -18.000;  -17.030;    0.000;-0.97000
 402.61;   -5.640;   -9.950;    0.000; 4.31000
 402.90;  -10.000;  -11.420;    0.000; 1.42000
 403.20;    0.140;   -6.220;    0.000; 6.36000
 403.49;    9.460;   -6.030;    0.000;15.49000
 403.78;   -3.580;  -11.040;    0.000; 7.46000
 404.07;   -6.880;  -18.650;    0.000;11.77000
 404.37;   11.300;  -10.470;    0.000;21.77000
 404.66;  -12.340;  -14.960;    0.000; 2.62000
 404.95;    6.900;   -0.330;    0.000; 7.23000
 405.24;  -16.060;  -15.620;    0.000;-0.44000
 405.53;    2.200;  -15.660;    0.000;17.86000
 405.83;    6.120;   -4.700;    0.000;10.82000
 406.12;   -7.940;  -10.900;    0.000; 2.96000
 406.41;   11.840;   -6.740;    0.000;18.58000
 406.70;  -16.240;  -12.650;    0.000;-3.59000
 407.00;   -1.660;   -5.150;    0.000; 3.49000
 407.29;   -5.360;  -10.150;    0.000; 4.79000
 407.58;   -5.620;  -15.850;    0.000;10.23000
 407.87;   -3.420;  -15.280;    0.000;11.86000
 408.16;  -20.500;  -17.930;    0.000;-2.57000
 408.46;   -9.560;  -11.550;    0.000; 1.99000
 408.75;    0.420;  -11.910;    0.000;12.33000
 409.04;    6.300;   -9.380;    0.000;15.68000
 409.33;   -9.720;   -5.530;    0.000;-4.19000
 409.62;   -3.000;   -9.060;    0.000; 6.06000
 409.92;   -5.660;   -7.890;    0.000; 2.23000
 410.21;    2.840;  -11.510;    0.000;14.35000
 410.50;  -10.740;  -15.240;    0.000; 4.50000
 410.79;   11.220;   -3.910;    0.000;15.13000
 411.08;   -0.240;  -18.230;    0.000;17.99000
 411.37;  -16.360;  -12.950;    0.000;-3.41000
 411.67;    7.440;  -15.120;    0.000;22.56000
 411.96;    0.440;  -13.530;    0.000;13.97000
 412.25;  -11.620;  -11.720;    0.000; 0.10000
 412.54;   -3.500;  -14.570;    0.000;11.07000
 412.83;   -7.000;  -15.690;    0.000; 8.69000
 413.13;   -0.980;  -12.520;    0.000;11.54000
 413.42;    4.480;  -11.540;    0.000;16.02000
 413.71;    4.220;  -16.160;    0.000;20.38000
 414.00;   -3.980;  -15.050;    0.000;11.07000
 414.29;   -6.340;  -10.400;    0.000; 4.06000
 414.58;  -12.700;  -20.050;    0.000; 7.35000
 414.87;   -8.800;  -11.570;    0.000; 2.77000
 415.17;  -15.320;  -14.460;    0.000;-0.86000
 415.46;   -5.100;  -14.740;    0.000; 9.64000
 415.75;    0.920;  -15.050;    0.000;15.97000
 416.04;    8.960;  -19.580;    0.000;28.54000
 416.33;   -3.120;  -10.240;    0.000; 7.12000
 416.62;  -12.300;  -16.750;    0.000; 4.45000
 416.91;  -10.460;   -9.630;    0.000;-0.83000
 417.21;   -9.100;   -9.770;    0.000; 0.67000
 417.50;  -10.520;  -22.390;    0.000;11.87000
 417.79;  -10.360;  -14.440;    0.000; 4.08000
 418.08;   -6.220;  -16.260;    0.000;10.04000
 418.37;    2.860;  -12.710;    0.000;15.57000
 418.66;   -6.140;  -14.780;    0.000; 8.64000
 418.95;   10.680;  -12.220;    0.000;22.90000
 419.24;   -4.520;  -16.910;    0.000;12.39000
 419.54;   -7.900;  -14.290;    0.000; 6.39000
 419.83;   -8.180;   -7.000;    0.000;-1.18000
 420.12;    0.280;  -17.080;    0.000;17.36000
 420.41;   24.480;   -6.120;    0.000;30.60000
 420.70;   -3.240;  -15.970;    0.000;12.73000
 420.99;   -1.320;   -7.860;    0.000; 6.54000
 421.28;   -0.920;  -14.590;    0.000;13.67000
 421.57;    4.940;  -13.670;    0.000;18.61000
 421.86;   13.780;   -3.720;    0.000;17.50000
 422.16;   -3.800;   -4.790;    0.000; 0.99000
 422.45;   12.540;   -7.870;    0.000;20.41000
 422.74;   -1.700;  -11.510;    0.000; 9.81000
 423.03;    3.120;   -8.230;    0.000;11.35000
 423.32;   -4.220;  -16.280;    0.000;12.06000
 423.61;   14.000;  -10.700;    0.000;24.70000
 423.90;    7.340;  -18.810;    0.000;26.15000
 424.19;   49.920;    3.040;    0.000;46.88000
 424.48;    0.800;  -13.640;    0.000;14.44000
 424.77;    9.240;  -15.110;    0.000;24.35000
 425.06;    5.420;   -8.550;    0.000;13.97000
 425.35;   15.600;  -12.070;    0.000;27.67000
 425.65;   -8.980;  -12.850;    0.000; 3.87000
 425.94;    3.260;  -13.500;    0.000;16.76000
 426.23;  -13.060;  -18.630;    0.000; 5.57000
 426.52;   -8.060;  -18.760;    0.000;10.70000
 426.81;   16.460;   -4.960;    0.000;21.42000
 427.10;  -14.320;  -18.640;    0.000; 4.32000
 427.39;    1.840;  -17.730;    0.000;19.57000
 427.68;   -6.180;   -6.060;    0.000;-0.12000
 427.97;    6.060;   -9.970;    0.000;16.03000
 428.26;  -11.840;  -21.550;    0.000; 9.71000
 428.55;   15.680;   -7.010;    0.000;22.69000
 428.84;    1.700;  -15.510;    0.000;17.21000
 429.13;   -0.880;  -21.800;    0.000;20.92000
 429.42;    6.740;   -6.430;    0.000;13.17000
 429.71;   14.080;  -12.900;    0.000;26.98000
 430.00;   -0.520;  -27.260;    0.000;26.74000
 430.29;  -19.780;  -18.790;    0.000;-0.99000
 430.58;   -3.560;  -19.950;    0.000;16.39000
 430.87;   -6.800;  -18.710;    0.000;11.91000
 431.16;  -13.520;  -27.130;    0.000;13.61000
 431.46;    4.860;  -12.580;    0.000;17.44000
 431.75;  -12.780;  -16.460;    0.000; 3.68000
 432.04;   18.060;  -12.750;    0.000;30.81000
 432.33;   -6.460;  -15.960;    0.000; 9.50000
 432.62;   -5.780;  -16.610;    0.000;10.83000
 432.91;   -5.860;  -15.280;    0.000; 9.42000
 433.20;   -3.440;  -14.090;    0.000;10.65000
 433.49;   -1.800;  -21.180;    0.000;19.38000
 433.78;  -10.300;  -15.380;    0.000; 5.08000
 434.07;  -12.060;  -18.570;    0.000; 6.51000
 434.36;   -0.220;  -18.360;    0.000;18.14000
 434.65;  -24.180;  -19.110;    0.000;-5.07000
 434.94;  -10.740;  -16.660;    0.000; 5.92000
 435.23;   12.260;  -14.870;    0.000;27.13000
 435.52;    3.720;  -15.280;    0.000;19.00000
 435.81;   -2.960;  -19.590;    0.000;16.63000
 436.10;   -2.420;   -8.920;    0.000; 6.50000
 436.39;    0.180;   -9.090;    0.000; 9.27000
 436.68;    4.400;   -9.150;    0.000;13.55000
 436.97;  -15.220;  -17.940;    0.000; 2.72000
 437.26;   -2.000;  -11.060;    0.000; 9.06000
 437.55;   -3.560;  -14.150;    0.000;10.59000
 437.83;  -18.220;  -20.360;    0.000; 2.14000
 438.12;  -17.720;  -19.980;    0.000; 2.26000
 438.41;    0.300;  -18.690;    0.000;18.99000
 438.70;   17.500;   -6.450;    0.000;23.95000
 438.99;   11.760;   -3.000;    0.000;14.76000
 439.28;   -6.580;  -13.960;    0.000; 7.38000
 439.57;    4.780;   -8.660;    0.000;13.44000
 439.86;   -7.640;  -20.460;    0.000;12.82000
 440.15;    0.320;  -10.490;    0.000;10.81000
 440.44;   -0.920;  -14.790;    0.000;13.87000
 440.73;   -1.100;  -19.990;    0.000;18.89000
 441.02;   -4.500;  -18.940;    0.000;14.44000
 441.31;    9.880;  -17.020;    0.000;26.90000
 441.60;    2.020;  -10.820;    0.000;12.84000
 441.89;  -21.140;  -18.180;    0.000;-2.96000
 442.18;    0.120;  -11.380;    0.000;11.50000
 442.47;   -6.720;  -20.660;    0.000;13.94000
 442.76;  -13.280;  -17.440;    0.000; 4.16000
 443.05;    8.320;   -6.670;    0.000;14.99000
 443.34;   -2.460;  -21.050;    0.000;18.59000
 443.63;   -8.260;  -21.060;    0.000;12.80000
 443.91;   -2.980;  -24.010;    0.000;21.03000
 444.20;   -6.640;  -15.210;    0.000; 8.57000
 444.49;  -13.020;  -17.150;    0.000; 4.13000
 444.78;    5.740;  -10.890;    0.000;16.63000
 445.07;   11.300;  -13.040;    0.000;24.34000
 445.36;   -5.320;  -25.850;    0.000;20.53000
 445.65;   -4.940;  -13.460;    0.000; 8.52000
 445.94;   -8.320;  -17.420;    0.000; 9.10000
 446.23;    8.460;  -14.150;    0.000;22.61000
 446.52;    3.540;  -19.520;    0.000;23.06000
 446.81;   -0.760;  -16.560;    0.000;15.80000
 447.10;   -4.740;  -13.040;    0.000; 8.30000
 447.38;   -3.680;  -16.320;    0.000;12.64000
 447.67;    6.800;  -14.960;    0.000;21.76000
 447.96;   -7.540;  -20.220;    0.000;12.68000
 448.25;   -7.560;  -17.610;    0.000;10.05000
 448.54;   -0.340;  -20.490;    0.000;20.15000
 448.83;    2.500;  -21.650;    0.000;24.15000
 449.12;   -6.960;  -24.330;    0.000;17.37000
 449.41;   -2.360;  -17.380;    0.000;15.02000
 449.70;   -5.640;  -19.200;    0.000;13.56000
 449.98;   -1.540;  -18.990;    0.000;17.45000
 450.27;   -2.280;  -10.630;    0.000; 8.35000
 450.56;  -11.580;  -19.350;    0.000; 7.77000
 450.85;   -0.580;  -18.980;    0.000;18.40000
 451.14;  -18.120;  -18.310;    0.000; 0.19000
 451.43;   -9.880;  -19.640;    0.000; 9.76000
 451.72;   -6.580;  -20.630;    0.000;14.05000
 452.01;    0.020;  -12.200;    0.000;12.22000
 452.29;  -12.980;  -18.350;    0.000; 5.37000
 452.58;   -8.800;  -25.270;    0.000;16.47000
 452.87;   -8.640;  -19.090;    0.000;10.45000
 453.16;    0.020;  -11.330;    0.000;11.35000
 453.45;   11.600;  -14.720;    0.000;26.32000
 453.74;    0.480;  -10.690;    0.000;11.17000
 454.03;    5.440;  -21.930;    0.000;27.37000
 454.31;   -3.220;  -22.490;    0.000;19.27000
 454.60;  -12.760;  -21.160;    0.000; 8.40000
 454.89;   11.280;  -12.560;    0.000;23.84000
 455.18;   -6.760;  -24.060;    0.000;17.30000
 455.47;   -8.580;  -26.150;    0.000;17.57000
 455.76;  -12.260;  -27.400;    0.000;15.14000
 456.04;    4.840;  -25.580;    0.000;30.42000
 456.33;  -12.940;  -25.270;    0.000;12.33000
 456.62;   -1.660;  -18.480;    0.000;16.82000
 456.91;   -8.700;  -23.960;    0.000;15.26000
 457.20;   12.020;  -15.140;    0.000;27.16000
 457.49;    2.600;  -14.830;    0.000;17.43000
 457.77;  -20.080;  -20.000;    0.000;-0.08000
 458.06;   -2.120;  -12.460;    0.000;10.34000
 458.35;   -6.920;  -24.180;    0.000;17.26000
 458.64;   -9.540;  -11.000;    0.000; 1.46000
 458.93;   -8.040;  -15.890;    0.000; 7.85000
 459.21;    1.180;  -21.440;    0.000;22.62000
 459.50;   -8.500;  -22.030;    0.000;13.53000
 459.79;   -3.440;  -19.740;    0.000;16.30000
 460.08;    1.940;  -20.210;    0.000;22.15000
 460.37;    0.900;  -17.330;    0.000;18.23000
 460.65;   -0.680;  -20.980;    0.000;20.30000
 460.94;  -12.080;  -24.100;    0.000;12.02000
 461.23;   -6.260;  -16.720;    0.000;10.46000
 461.52;   18.260;  -10.800;    0.000;29.06000
 461.81;   -0.440;  -18.200;    0.000;17.76000
 462.09;    7.700;  -16.530;    0.000;24.23000
 462.38;   -9.980;  -21.390;    0.000;11.41000
 462.67;   -3.560;  -25.110;    0.000;21.55000
 462.96;   -0.860;  -24.230;    0.000;23.37000
 463.24;    2.100;  -23.650;    0.000;25.75000
 463.53;    3.100;  -17.480;    0.000;20.58000
 463.82;   -5.060;  -19.800;    0.000;14.74000
 464.11;   -9.000;  -21.730;    0.000;12.73000
 464.40;   -1.860;  -22.130;    0.000;20.27000
 464.68;   -6.980;  -21.480;    0.000;14.50000
 464.97;    3.380;  -19.470;    0.000;22.85000
 465.26;    1.980;  -17.460;    0.000;19.44000
 465.55;   -0.740;  -20.890;    0.000;20.15000
 465.83;   -8.500;  -20.920;    0.000;12.42000
 466.12;   -3.520;  -22.340;    0.000;18.82000
 466.41;    8.100;  -21.380;    0.000;29.48000
 466.70;   -2.920;  -23.610;    0.000;20.69000
 466.98;  -12.100;  -20.090;    0.000; 7.99000
 467.27;    7.100;  -18.760;    0.000;25.86000
 467.56;    5.940;  -20.980;    0.000;26.92000
 467.85;    5.700;  -15.930;    0.000;21.63000
 468.13;    1.540;  -14.330;    0.000;15.87000
 468.42;    2.280;  -17.700;    0.000;19.98000
 468.71;    0.940;  -20.100;    0.000;21.04000
 468.99;    3.120;  -17.320;    0.000;20.44000
 469.28;    0.820;  -22.330;    0.000;23.15000
 469.57;   -0.760;  -21.170;    0.000;20.41000
 469.86;   11.280;  -18.660;    0.000;29.94000
 470.14;  -10.360;  -24.400;    0.000;14.04000
 470.43;   11.960;  -16.250;    0.000;28.21000
 470.72;    0.600;  -27.700;    0.000;28.30000
 471.00;  -10.940;  -21.470;    0.000;10.53000
 471.29;   24.260;  -12.190;    0.000;36.45000
 471.58;   11.460;  -14.440;    0.000;25.90000
 471.87;    6.520;  -20.260;    0.000;26.78000
 472.15;   -0.460;  -27.280;    0.000;26.82000
 472.44;   29.060;  -13.550;    0.000;42.61000
 472.73;   -1.300;  -28.340;    0.000;27.04000
 473.01;   12.740;  -26.320;    0.000;39.06000
 473.30;   20.280;  -23.100;    0.000;43.38000
 473.59;   10.080;  -19.590;    0.000;29.67000
 473.87;   23.000;  -19.240;    0.000;42.24000
 474.16;   14.680;  -20.110;    0.000;34.79000
 474.45;   27.180;  -30.440;    0.000;57.62000
 474.74;   23.860;  -22.750;    0.000;46.61000
 475.02;   34.700;  -15.460;    0.000;50.16000
 475.31;   33.540;  -20.200;    0.000;53.74000
 475.60;   51.160;  -27.200;    0.000;78.36000
 475.88;   46.180;  -25.920;    0.000;72.10000
 476.17;   76.780;  -16.890;    0.000;93.67000
 476.46;   49.340;  -20.900;    0.000;70.24000
 476.74;   53.140;  -23.070;    0.000;76.21000
 477.03;   63.120;  -22.890;    0.000;86.01000
 477.32;   83.760;  -21.040;    0.000;104.80000
 477.60;   81.900;  -24.890;    0.000;106.79000
 477.89;  112.880;  -14.910;    0.000;127.79000
 478.18;  102.100;  -15.900;    0.000;118.00000
 478.46;  113.300;  -19.520;    0.000;132.82000
 478.75;  124.600;  -18.520;    0.000;143.12000
 479.03;  136.960;  -17.330;    0.000;154.29001
 479.32;  152.920;  -26.670;    0.000;179.59000
 479.61;  150.320;  -32.440;    0.000;182.76001
 479.89;  178.660;  -24.740;    0.000;203.40000
 480.18;  187.200;  -21.450;    0.000;208.65000
 480.47;  205.160;  -18.220;    0.000;223.38000
 480.75;  222.040;  -29.820;    0.000;251.85999
 481.04;  244.660;  -20.400;    0.000;265.06000
 481.33;  259.520;  -16.240;    0.000;275.75999
 481.61;  269.280;  -20.830;    0.000;290.11000
 481.90;  292.520;  -33.240;    0.000;325.75999
 482.18;  327.520;  -23.490;    0.000;351.00999
 482.47;  340.700;  -18.580;    0.000;359.28001
 482.76;  363.620;  -24.650;    0.000;388.26999
 483.04;  394.260;  -22.560;    0.000;416.82001
 483.33;  432.700;  -27.450;    0.000;460.15001
 483.61;  456.560;  -18.390;    0.000;474.95000
 483.90;  473.160;  -22.630;    0.000;495.79000
 484.19;  493.100;  -31.890;    0.000;524.99001
 484.47;  554.740;  -27.650;    0.000;582.38999
 484.76;  564.940;  -22.480;    0.000;587.42000
 485.05;  625.040;  -15.900;    0.000;640.93998
 485.33;  645.320;  -20.520;    0.000;665.84001
 485.62;  681.580;  -23.220;    0.000;704.80002
 485.90;  746.140;  -19.330;    0.000;765.47001
 486.19;  776.420;  -21.960;    0.000;798.37998
 486.47;  842.700;  -17.750;    0.000;860.45001
 486.76;  860.960;  -32.110;    0.000;893.07002
 487.05;  941.720;  -21.590;    0.000;963.30997
 487.33;  980.420;  -24.120;    0.000;1004.53998
 487.62; 1010.860;  -27.370;    0.000;1038.22999
 487.90; 1085.920;  -24.640;    0.000;1110.56004
 488.19; 1154.160;  -17.250;    0.000;1171.41003
 488.47; 1195.320;  -20.280;    0.000;1215.59995
 488.76; 1264.600;  -22.200;    0.000;1286.79998
 489.05; 1333.700;  -13.720;    0.000;1347.41995
 489.33; 1379.520;  -24.060;    0.000;1403.58002
 489.62; 1442.840;  -27.760;    0.000;1470.59997
 489.90; 1500.520;  -29.230;    0.000;1529.75002
 490.19; 1561.180;  -20.080;    0.000;1581.26005
 490.47; 1651.980;  -27.170;    0.000;1679.14998
 490.76; 1727.460;  -30.390;    0.000;1757.84996
 491.05; 1797.600;  -18.700;    0.000;1816.29998
 491.33; 1875.660;  -19.160;    0.000;1894.82003
 491.62; 1928.240;  -30.080;    0.000;1958.31999
 491.90; 2018.920;  -24.970;    0.000;2043.89004
 492.19; 2097.800;  -29.880;    0.000;2127.68005
 492.47; 2172.900;  -26.010;    0.000;2198.90990
 492.76; 2251.420;  -25.800;    0.000;2277.21992
 493.04; 2362.820;  -23.090;    0.000;2385.91007
 493.33; 2400.280;  -29.680;    0.000;2429.96003
 493.61; 2492.960;  -28.280;    0.000;2521.23996
 493.90; 2592.640;  -25.470;    0.000;2618.10989
 494.18; 2682.440;  -21.360;    0.000;2703.79994
 494.47; 2778.200;  -21.500;    0.000;2799.69995
 494.75; 2858.740;  -25.740;    0.000;2884.47999
 495.04; 2966.780;  -25.010;    0.000;2991.79003
 495.32; 3072.500;  -24.280;    0.000;3096.78000
 495.61; 3174.340;  -26.390;    0.000;3200.73009
 495.89; 3238.520;  -25.210;    0.000;3263.73002
 496.18; 3368.680;  -24.900;    0.000;3393.57993
 496.46; 3462.900;  -25.570;    0.000;3488.46990
 496.75; 3597.840;  -19.200;    0.000;3617.04009
 497.03; 3671.100;  -21.850;    0.000;3692.95010
 497.32; 3758.440;  -28.930;    0.000;3787.36994
 497.60; 3850.320;  -27.460;    0.000;3877.78007
 497.89; 3977.520;  -26.060;    0.000;4003.58002
 498.17; 4090.280;  -23.200;    0.000;4113.48003
 498.46; 4197.880;  -31.150;    0.000;4229.02988
 498.74; 4318.460;  -21.420;    0.000;4339.87996
 499.03; 4396.000;  -27.500;    0.000;4423.50000
 499.31; 4512.140;  -33.980;    0.000;4546.12014
 499.60; 4623.560;  -26.560;    0.000;4650.12006
 499.88; 4776.700;  -13.310;    0.000;4790.01020
 500.17; 4863.080;  -32.950;    0.000;4896.03008
 500.45; 4986.560;  -26.850;    0.000;5013.41006
 500.74; 5089.740;  -32.110;    0.000;5121.85023
 501.02; 5216.860;  -28.340;    0.000;5245.19986
 501.31; 5327.200;  -30.740;    0.000;5357.94020
 501.59; 5441.420;  -22.990;    0.000;5464.40992
 501.88; 5563.740;  -24.540;    0.000;5588.28024
 502.16; 5645.620;  -33.190;    0.000;5678.81012
 502.45; 5774.840;  -27.850;    0.000;5802.68984
 502.73; 5941.200;  -30.030;    0.000;5971.23020
 503.01; 6018.140;  -26.800;    0.000;6044.94014
 503.30; 6131.180;  -26.540;    0.000;6157.72018
 503.58; 6257.440;  -37.970;    0.000;6295.40994
 503.87; 6383.080;  -21.070;    0.000;6404.15008
 504.15; 6464.800;  -31.700;    0.000;6496.49981
 504.44; 6622.840;  -22.380;    0.000;6645.21984
 504.72; 6751.980;  -16.240;    0.000;6768.21998
 505.00; 6877.860;  -31.090;    0.000;6908.94986
 505.29; 7012.020;  -18.750;    0.000;7030.77002
 505.57; 7088.420;  -26.120;    0.000;7114.53992
 505.86; 7226.040;  -30.130;    0.000;7256.17004
 506.14; 7306.820;  -40.580;    0.000;7347.39983
 506.43; 7497.520;  -16.980;    0.000;7514.50002
 506.71; 7585.960;  -26.380;    0.000;7612.33996
 506.99; 7699.780;  -33.030;    0.000;7732.80978
 507.28; 7817.220;  -27.620;    0.000;7844.84022
 507.56; 7936.980;  -28.400;    0.000;7965.37998
 507.85; 8104.680;  -26.630;    0.000;8131.31017
 508.13; 8201.500;  -23.390;    0.000;8224.89000
 508.41; 8345.580;  -13.300;    0.000;8358.88008
 508.70; 8443.880;  -30.090;    0.000;8473.96988
 508.98; 8574.460;  -29.260;    0.000;8603.71996
 509.27; 8718.420;  -34.820;    0.000;8753.23992
 509.55; 8841.340;  -20.900;    0.000;8862.23984
 509.83; 8931.180;  -32.250;    0.000;8963.42969
 510.12; 9062.260;  -25.080;    0.000;9087.33977
 510.40; 9196.640;  -26.530;    0.000;9223.16965
 510.69; 9290.120;  -26.360;    0.000;9316.48012
 510.97; 9416.800;  -25.960;    0.000;9442.75980
 511.25; 9595.700;  -25.560;    0.000;9621.26019
 511.54; 9636.520;  -32.180;    0.000;9668.69953
 511.82; 9828.800;  -23.410;    0.000;9852.20980
 512.11; 9951.880;  -28.130;    0.000;9980.00988
 512.39;10013.720;  -32.100;    0.000;10045.81973
 512.67;10175.680;  -23.390;    0.000;10199.06969
 512.96;10327.560;  -27.360;    0.000;10354.91957
 513.24;10400.980;  -25.540;    0.000;10426.52047
 513.52;10517.380;  -20.710;    0.000;10538.08988
 513.81;10611.240;  -27.450;    0.000;10638.69024
 514.09;10722.140;  -31.630;    0.000;10753.76965
 514.37;10786.420;  -28.900;    0.000;10815.31992
 514.66;10949.160;  -26.830;    0.000;10975.99016
 514.94;11084.860;  -30.930;    0.000;11115.79035
 515.22;11208.840;  -20.740;    0.000;11229.57984
 515.51;11245.780;  -28.110;    0.000;11273.89027
 515.79;11439.020;  -30.680;    0.000;11469.69953
 516.07;11618.700;  -21.420;    0.000;11640.12020
 516.36;11711.440;  -30.450;    0.000;11741.89043
 516.64;11796.560;  -27.560;    0.000;11824.11957
 516.92;11982.420;  -28.140;    0.000;12010.55992
 517.21;12104.640;  -33.670;    0.000;12138.30965
 517.49;12348.580;  -21.660;    0.000;12370.24008
 517.77;12462.740;  -23.850;    0.000;12486.59023
 518.06;12565.600;  -35.280;    0.000;12600.87961
 518.34;12691.160;  -22.260;    0.000;12713.42016
 518.62;12831.040;  -18.090;    0.000;12849.13004
 518.91;12921.620;  -25.090;    0.000;12946.71012
 519.19;12997.600;  -29.320;    0.000;13026.91961
 519.47;13220.520;  -25.890;    0.000;13246.40953
 519.76;13298.060;  -20.890;    0.000;13318.94957
 520.04;13426.820;  -27.100;    0.000;13453.92031
 520.32;13595.760;  -24.040;    0.000;13619.79977
 520.61;13695.660;  -17.280;    0.000;13712.94016
 520.89;13781.320;  -26.150;    0.000;13807.47031
 521.17;13920.860;  -27.250;    0.000;13948.11035
 521.45;14019.060;  -26.190;    0.000;14045.24957
 521.74;14133.640;  -27.770;    0.000;14161.40965
 522.02;14226.440;  -32.340;    0.000;14258.78043
 522.30;14424.080;  -30.190;    0.000;14454.27008
 522.59;14540.100;  -17.950;    0.000;14558.04961
 522.87;14594.760;  -35.830;    0.000;14630.58977
 523.15;14708.280;  -22.330;    0.000;14730.61027
 523.43;14850.580;  -36.850;    0.000;14887.43008
 523.72;14934.900;  -22.470;    0.000;14957.37039
 524.00;15001.940;  -26.840;    0.000;15028.78043
 524.28;15182.080;  -30.100;    0.000;15212.18008
 524.57;15210.640;  -28.250;    0.000;15238.88965
 524.85;15353.300;  -33.210;    0.000;15386.50980
 525.13;15413.480;  -28.900;    0.000;15442.38047
 525.41;15588.040;  -26.930;    0.000;15614.97004
 525.70;15694.100;  -39.770;    0.000;15733.86961
 525.98;15776.600;  -28.770;    0.000;15805.36961
 526.26;15854.440;  -28.530;    0.000;15882.97043
 526.54;16061.480;  -37.240;    0.000;16098.72047
 526.83;16030.660;  -31.260;    0.000;16061.92016
 527.11;16153.380;  -29.840;    0.000;16183.21988
 527.39;16306.680;  -27.920;    0.000;16334.59969
 527.67;16399.279;  -33.060;    0.000;16432.33930
 527.96;16488.820;  -33.590;    0.000;16522.41031
 528.24;16620.500;  -30.660;    0.000;16651.16000
 528.52;16683.881;  -24.870;    0.000;16708.75086
 528.80;16812.221;  -28.750;    0.000;16840.97070
 529.08;16866.660;  -34.880;    0.000;16901.54016
 529.37;16983.920;  -25.970;    0.000;17009.88992
 529.65;17073.980;  -21.850;    0.000;17095.83047
 529.93;17222.740;  -27.970;    0.000;17250.71023
 530.21;17225.840;  -33.080;    0.000;17258.91985
 530.50;17327.020;  -30.560;    0.000;17357.57953
 530.78;17428.080;  -27.290;    0.000;17455.37008
 531.06;17531.359;  -32.640;    0.000;17563.99937
 531.34;17657.619;  -31.410;    0.000;17689.02914
 531.62;17605.840;  -29.810;    0.000;17635.64984
 531.91;17779.580;  -33.270;    0.000;17812.85008
 532.19;17745.439;  -28.780;    0.000;17774.21945
 532.47;17996.061;  -30.330;    0.000;18026.39055
 532.75;18071.740;  -25.280;    0.000;18097.02024
 533.03;18116.359;  -26.860;    0.000;18143.21938
 533.32;18176.500;  -23.280;    0.000;18199.78000
 533.60;18346.740;  -34.090;    0.000;18380.83023
 533.88;18405.900;  -20.750;    0.000;18426.65039
 534.16;18507.500;  -30.960;    0.000;18538.46000
 534.44;18518.180;  -26.490;    0.000;18544.66969
 534.72;18619.500;  -32.560;    0.000;18652.06000
 535.01;18565.961;  -25.270;    0.000;18591.23094
 535.29;18693.740;  -23.350;    0.000;18717.09023
 535.57;18760.641;  -25.910;    0.000;18786.55062
 535.85;18837.420;  -23.170;    0.000;18860.58992
 536.13;18961.561;  -28.940;    0.000;18990.50055
 536.42;18993.301;  -27.660;    0.000;19020.96078
 536.70;19132.520;  -35.120;    0.000;19167.63953
 536.98;19162.240;  -22.910;    0.000;19185.15023
 537.26;19246.240;  -19.290;    0.000;19265.53024
 537.54;19313.301;  -26.340;    0.000;19339.64078
 537.82;19399.359;  -21.930;    0.000;19421.28938
 538.10;19417.920;  -27.700;    0.000;19445.61992
 538.39;19460.141;  -28.600;    0.000;19488.74063
 538.67;19487.641;  -27.310;    0.000;19514.95062
 538.95;19594.480;  -30.120;    0.000;19624.60047
 539.23;19692.939;  -22.970;    0.000;19715.90945
 539.51;19707.359;  -22.060;    0.000;19729.41937
 539.79;19854.660;  -26.640;    0.000;19881.30016
 540.07;19822.340;  -22.100;    0.000;19844.43984
 540.36;19878.580;  -30.750;    0.000;19909.33008
 540.64;20063.961;  -22.510;    0.000;20086.47094
 540.92;20007.660;  -30.820;    0.000;20038.48016
 541.20;20043.980;  -29.640;    0.000;20073.62047
 541.48;20188.740;  -12.470;    0.000;20201.21023
 541.76;20168.061;  -26.780;    0.000;20194.84055
 542.04;20239.000;  -23.270;    0.000;20262.27000
 542.32;20329.141;  -24.220;    0.000;20353.36062
 542.61;20380.760;  -33.520;    0.000;20414.27977
 542.89;20425.740;  -17.240;    0.000;20442.98023
 543.17;20477.580;  -25.240;    0.000;20502.82008
 543.45;20599.939;  -24.660;    0.000;20624.59945
 543.73;20582.400;  -28.070;    0.000;20610.47039
 544.01;20640.961;  -29.250;    0.000;20670.21094
 544.29;20722.980;  -19.640;    0.000;20742.62047
 544.57;20677.400;  -34.410;    0.000;20711.81039
 544.85;20716.461;  -23.490;    0.000;20739.95094
 545.13;20867.000;  -25.150;    0.000;20892.15000
 545.42;20859.461;  -24.120;    0.000;20883.58094
 545.70;20931.600;  -20.880;    0.000;20952.47961
 545.98;20983.680;  -22.690;    0.000;21006.36969
 546.26;21004.881;  -22.680;    0.000;21027.56086
 546.54;20986.320;  -26.680;    0.000;21013.00031
 546.82;21019.381;  -22.560;    0.000;21041.94086
 547.10;21029.020;  -25.490;    0.000;21054.50953
 547.38;21168.119;  -18.460;    0.000;21186.57914
 547.66;21173.760;  -24.450;    0.000;21198.20977
 547.94;21236.480;  -22.110;    0.000;21258.59047
 548.22;21203.520;  -28.020;    0.000;21231.53953
 548.50;21248.000;  -35.840;    0.000;21283.84000
 548.78;21148.520;  -28.210;    0.000;21176.72953
 549.06;21263.061;  -25.700;    0.000;21288.76055
 549.34;21259.900;  -30.930;    0.000;21290.83039
 549.63;21334.141;  -17.470;    0.000;21351.61062
 549.91;21264.721;  -26.020;    0.000;21290.74070
 550.19;21296.260;  -30.840;    0.000;21327.09977
 550.47;21351.939;  -33.570;    0.000;21385.50945
 550.75;21346.920;  -29.150;    0.000;21376.06992
 551.03;21417.600;  -31.230;    0.000;21448.82961
 551.31;21391.381;  -27.700;    0.000;21419.08086
 551.59;21407.199;  -27.320;    0.000;21434.51922
 551.87;21501.100;  -25.060;    0.000;21526.15961
 552.15;21455.061;  -29.650;    0.000;21484.71055
 552.43;21482.260;  -17.690;    0.000;21499.94977
 552.71;21505.381;  -26.730;    0.000;21532.11086
 552.99;21522.580;  -27.320;    0.000;21549.90008
 553.27;21555.561;  -33.900;    0.000;21589.46055
 553.55;21527.680;  -29.130;    0.000;21556.80969
 553.83;21554.961;  -34.100;    0.000;21589.06094
 554.11;21536.061;  -29.070;    0.000;21565.13055
 554.39;21612.340;  -17.350;    0.000;21629.68984
 554.67;21658.080;  -31.140;    0.000;21689.22008
 554.95;21604.619;  -15.790;    0.000;21620.40914
 555.23;21610.580;  -19.190;    0.000;21629.77008
 555.51;21533.920;  -23.860;    0.000;21557.77992
 555.79;21636.740;  -26.610;    0.000;21663.35023
 556.07;21528.600;  -33.750;    0.000;21562.34961
 556.35;21527.881;  -33.080;    0.000;21560.96086
 556.63;21539.061;  -23.190;    0.000;21562.25055
 556.91;21560.520;  -20.140;    0.000;21580.65953
 557.19;21550.920;  -33.420;    0.000;21584.33992
 557.47;21543.240;  -26.860;    0.000;21570.10023
 557.75;21533.180;  -27.600;    0.000;21560.77969
 558.03;21536.660;  -23.720;    0.000;21560.38016
 558.31;21560.221;  -32.820;    0.000;21593.04070
 558.59;21582.619;  -28.200;    0.000;21610.81914
 558.87;21566.340;  -31.300;    0.000;21597.63984
 559.15;21532.240;  -29.920;    0.000;21562.16023
 559.43;21583.840;  -31.700;    0.000;21615.53984
 559.71;21539.779;  -29.390;    0.000;21569.16930
 559.99;21509.279;  -29.950;    0.000;21539.22930
 560.27;21555.580;  -31.860;    0.000;21587.44008
 560.55;21551.039;  -27.330;    0.000;21578.36906
 560.82;21434.119;  -30.590;    0.000;21464.70914
 561.10;21549.221;  -35.810;    0.000;21585.03070
 561.38;21551.561;  -27.550;    0.000;21579.11055
 561.66;21473.539;  -27.770;    0.000;21501.30906
 561.94;21346.721;  -36.790;    0.000;21383.51070
 562.22;21418.881;  -29.270;    0.000;21448.15086
 562.50;21405.881;  -25.730;    0.000;21431.61086
 562.78;21347.180;  -28.210;    0.000;21375.38969
 563.06;21257.400;  -32.200;    0.000;21289.60039
 563.34;21307.939;  -32.310;    0.000;21340.24945
 563.62;21327.461;  -26.420;    0.000;21353.88094
 563.90;21234.279;  -33.310;    0.000;21267.58930
 564.18;21211.859;  -30.050;    0.000;21241.90937
 564.46;21208.760;  -33.070;    0.000;21241.82977
 564.74;21174.080;  -26.370;    0.000;21200.45008
 565.01;21139.461;  -34.630;    0.000;21174.09094
 565.29;21007.859;  -30.890;    0.000;21038.74937
 565.57;21043.199;  -27.770;    0.000;21070.96922
 565.85;21042.160;  -26.540;    0.000;21068.70016
 566.13;20896.740;  -35.020;    0.000;20931.76023
 566.41;20975.779;  -27.970;    0.000;21003.74930
 566.69;20863.881;  -26.850;    0.000;20890.73086
 566.97;20913.119;  -35.710;    0.000;20948.82914
 567.25;20837.381;  -26.920;    0.000;20864.30086
 567.53;20874.320;  -31.550;    0.000;20905.87031
 567.80;20852.080;  -29.830;    0.000;20881.91008
 568.08;20705.221;  -23.950;    0.000;20729.17070
 568.36;20594.619;  -39.610;    0.000;20634.22914
 568.64;20686.100;  -31.690;    0.000;20717.78961
 568.92;20549.359;  -24.250;    0.000;20573.60938
 569.20;20528.881;  -32.220;    0.000;20561.10086
 569.48;20493.920;  -33.550;    0.000;20527.46992
 569.76;20374.641;  -41.820;    0.000;20416.46062
 570.03;20337.420;  -26.520;    0.000;20363.93992
 570.31;20364.439;  -33.390;    0.000;20397.82945
 570.59;20294.760;  -29.380;    0.000;20324.13976
 570.87;20205.039;  -30.810;    0.000;20235.84906
 571.15;20124.900;  -35.650;    0.000;20160.55039
 571.43;20148.900;  -28.530;    0.000;20177.43039
 571.71;20103.221;  -40.130;    0.000;20143.35070
 571.98;20036.340;  -30.700;    0.000;20067.03984
 572.26;19959.699;  -33.520;    0.000;19993.21922
 572.54;19987.381;  -36.750;    0.000;20024.13086
 572.82;19879.340;  -35.020;    0.000;19914.35984
 573.10;19845.301;  -32.420;    0.000;19877.72078
 573.38;19808.020;  -33.880;    0.000;19841.89953
 573.66;19731.801;  -34.190;    0.000;19765.99078
 573.93;19629.100;  -33.870;    0.000;19662.96961
 574.21;19657.680;  -31.820;    0.000;19689.49969
 574.49;19630.840;  -31.910;    0.000;19662.74984
 574.77;19475.859;  -29.890;    0.000;19505.74937
 575.05;19473.760;  -22.870;    0.000;19496.62977
 575.33;19349.100;  -31.620;    0.000;19380.71961
 575.60;19309.039;  -29.990;    0.000;19339.02906
 575.88;19195.881;  -30.640;    0.000;19226.52086
 576.16;19165.199;  -31.370;    0.000;19196.56922
 576.44;19107.279;  -30.170;    0.000;19137.44930
 576.72;19001.859;  -30.330;    0.000;19032.18937
 576.99;18981.580;  -35.380;    0.000;19016.96008
 577.27;18932.240;  -32.010;    0.000;18964.25023
 577.55;18796.420;  -20.740;    0.000;18817.15992
 577.83;18765.439;  -38.350;    0.000;18803.78945
 578.11;18618.000;  -30.600;    0.000;18648.60000
 578.38;18630.221;  -33.300;    0.000;18663.52070
 578.66;18579.039;  -33.190;    0.000;18612.22906
 578.94;18473.500;  -34.250;    0.000;18507.75000
 579.22;18407.039;  -36.890;    0.000;18443.92906
 579.50;18396.061;  -16.500;    0.000;18412.56055
 579.77;18320.740;  -27.820;    0.000;18348.56023
 580.05;18213.939;  -33.860;    0.000;18247.79945
 580.33;18119.260;  -36.230;    0.000;18155.48977
 580.61;18065.859;  -31.810;    0.000;18097.66937
 580.88;18044.279;  -31.550;    0.000;18075.82930
 581.16;17932.939;  -30.380;    0.000;17963.31945
 581.44;17874.859;  -26.740;    0.000;17901.59937
 581.72;17801.080;  -36.870;    0.000;17837.95008
 581.99;17701.721;  -28.000;    0.000;17729.72070
 582.27;17645.119;  -32.620;    0.000;17677.73914
 582.55;17451.359;  -39.650;    0.000;17491.00938
 582.83;17439.760;  -31.420;    0.000;17471.17977
 583.10;17400.301;  -34.040;    0.000;17434.34078
 583.38;17304.420;  -33.790;    0.000;17338.20992
 583.66;17249.359;  -23.360;    0.000;17272.71938
 583.94;17120.439;  -37.120;    0.000;17157.55945
 584.21;16992.119;  -36.200;    0.000;17028.31914
 584.49;16993.580;  -31.210;    0.000;17024.79008
 584.77;16852.080;  -41.490;    0.000;16893.57008
 585.05;16787.400;  -41.880;    0.000;16829.28039
 585.32;16716.699;  -40.900;    0.000;16757.59922
 585.60;16687.520;  -35.320;    0.000;16722.83953
 585.88;16564.721;  -36.100;    0.000;16600.82070
 586.16;16446.039;  -33.460;    0.000;16479.49906
 586.43;16374.200;  -23.040;    0.000;16397.24020
 586.71;16287.500;  -33.020;    0.000;16320.52000
 586.99;16192.780;  -38.700;    0.000;16231.48027
 587.26;16082.420;  -39.100;    0.000;16121.51992
 587.54;15993.480;  -29.820;    0.000;16023.30047
 587.82;15917.660;  -31.730;    0.000;15949.39016
 588.10;15850.140;  -35.850;    0.000;15885.98965
 588.37;15824.080;  -41.630;    0.000;15865.71008
 588.65;15662.920;  -32.470;    0.000;15695.38992
 588.93;15571.300;  -32.150;    0.000;15603.44981
 589.20;15524.180;  -34.030;    0.000;15558.20969
 589.48;15398.720;  -34.930;    0.000;15433.64973
 589.76;15336.960;  -15.830;    0.000;15352.78996
 590.03;15204.080;  -40.290;    0.000;15244.37008
 590.31;15127.620;  -33.480;    0.000;15161.10012
 590.59;15085.480;  -33.000;    0.000;15118.48047
 590.86;14919.600;  -31.500;    0.000;14951.09961
 591.14;14835.700;  -37.450;    0.000;14873.15020
 591.42;14788.480;  -37.920;    0.000;14826.40047
 591.70;14677.540;  -32.300;    0.000;14709.84004
 591.97;14643.440;  -26.470;    0.000;14669.91043
 592.25;14554.520;  -31.490;    0.000;14586.00953
 592.53;14434.920;  -39.370;    0.000;14474.28992
 592.80;14406.320;  -30.970;    0.000;14437.29031
 593.08;14322.980;  -28.190;    0.000;14351.17047
 593.36;14147.360;  -33.690;    0.000;14181.05035
 593.63;14065.780;  -28.510;    0.000;14094.29027
 593.91;14002.780;  -39.300;    0.000;14042.08027
 594.18;13893.000;  -30.740;    0.000;13923.74000
 594.46;13788.260;  -37.200;    0.000;13825.45977
 594.74;13757.020;  -35.270;    0.000;13792.28953
 595.01;13638.300;  -39.910;    0.000;13678.20980
 595.29;13465.220;  -37.830;    0.000;13503.04973
 595.57;13445.140;  -30.310;    0.000;13475.44965
 595.84;13358.780;  -34.070;    0.000;13392.85027
 596.12;13236.520;  -35.950;    0.000;13272.46953
 596.40;13149.380;  -47.400;    0.000;13196.77988
 596.67;13115.300;  -33.240;    0.000;13148.53981
 596.95;12986.320;  -31.840;    0.000;13018.16031
 597.22;12846.420;  -42.200;    0.000;12888.61992
 597.50;12812.040;  -33.310;    0.000;12845.35004
 597.78;12649.720;  -35.870;    0.000;12685.58973
 598.05;12601.180;  -42.370;    0.000;12643.54969
 598.33;12536.300;  -31.360;    0.000;12567.65981
 598.61;12450.100;  -34.100;    0.000;12484.19961
 598.88;12347.260;  -43.010;    0.000;12390.26976
 599.16;12264.260;  -38.270;    0.000;12302.52977
 599.43;12172.060;  -44.250;    0.000;12216.30957
 599.71;12106.420;  -31.350;    0.000;12137.76992
 599.99;12003.700;  -40.440;    0.000;12044.14019
 600.26;11936.560;  -34.480;    0.000;11971.03957
 600.54;11875.180;  -35.880;    0.000;11911.05969
 600.81;11719.600;  -30.800;    0.000;11750.39961
 601.09;11715.240;  -38.420;    0.000;11753.66023
 601.36;11586.760;  -43.640;    0.000;11630.39977
 601.64;11513.540;  -36.270;    0.000;11549.81004
 601.92;11419.360;  -40.290;    0.000;11459.65035
 602.19;11302.760;  -43.490;    0.000;11346.24977
 602.47;11203.920;  -41.720;    0.000;11245.63992
 602.74;11138.940;  -33.580;    0.000;11172.52043
 603.02;11042.200;  -30.880;    0.000;11073.08019
 603.29;11068.620;  -30.150;    0.000;11098.77012
 603.57;10914.740;  -38.680;    0.000;10953.42023
 603.85;10822.660;  -36.240;    0.000;10858.90016
 604.12;10815.200;  -25.740;    0.000;10840.94020
 604.40;10694.720;  -37.040;    0.000;10731.75973
 604.67;10603.820;  -31.720;    0.000;10635.54031
 604.95;10563.340;  -36.850;    0.000;10600.18984
 605.22;10501.920;  -36.400;    0.000;10538.31992
 605.50;10396.980;  -42.480;    0.000;10439.46047
 605.77;10306.480;  -37.250;    0.000;10343.73047
 606.05;10321.380;  -39.640;    0.000;10361.01988
 606.33;10188.500;  -35.100;    0.000;10223.60000
 606.60;10132.380;  -44.280;    0.000;10176.65988
 606.88;10049.420;  -33.550;    0.000;10082.96992
 607.15; 9987.940;  -35.810;    0.000;10023.75043
 607.43; 9899.060;  -38.570;    0.000;9937.62957
 607.70; 9854.920;  -33.540;    0.000;9888.45992
 607.98; 9827.800;  -38.040;    0.000;9865.83981
 608.25; 9747.820;  -39.360;    0.000;9787.18031
 608.53; 9619.020;  -46.700;    0.000;9665.71953
 608.80; 9558.880;  -39.200;    0.000;9598.07988
 609.08; 9534.640;  -41.820;    0.000;9576.45965
 609.35; 9476.000;  -35.520;    0.000;9511.52000
 609.63; 9401.520;  -44.390;    0.000;9445.90953
 609.90; 9329.720;  -36.930;    0.000;9366.64973
 610.18; 9272.540;  -28.100;    0.000;9300.64004
 610.45; 9251.800;  -47.230;    0.000;9299.02980
 610.73; 9170.960;  -40.590;    0.000;9211.54996
 611.00; 9155.360;  -28.940;    0.000;9184.30035
 611.28; 9059.080;  -41.770;    0.000;9100.85008
 611.55; 8967.700;  -47.150;    0.000;9014.85020
 611.83; 8970.100;  -42.410;    0.000;9012.50961
 612.10; 8896.240;  -47.870;    0.000;8944.11023
 612.38; 8828.600;  -43.330;    0.000;8871.92961
 612.65; 8810.520;  -38.760;    0.000;8849.27953
 612.93; 8713.200;  -46.440;    0.000;8759.64019
 613.20; 8677.820;  -40.520;    0.000;8718.34031
 613.48; 8612.560;  -42.680;    0.000;8655.23957
 613.75; 8567.400;  -49.140;    0.000;8616.54039
 614.03; 8552.060;  -35.760;    0.000;8587.81957
 614.30; 8440.300;  -49.280;    0.000;8489.57980
 614.57; 8427.260;  -47.070;    0.000;8474.32977
 614.85; 8356.420;  -40.710;    0.000;8397.12992
 615.12; 8369.020;  -40.130;    0.000;8409.14953
 615.40; 8263.760;  -45.350;    0.000;8309.10976
 615.67; 8250.680;  -41.120;    0.000;8291.79969
 615.95; 8212.860;  -42.780;    0.000;8255.64035
 616.22; 8162.780;  -39.310;    0.000;8202.08979
 616.50; 8128.900;  -36.190;    0.000;8165.08990
 616.77; 8039.160;  -39.210;    0.000;8078.37016
 617.05; 7971.280;  -40.130;    0.000;8011.40979
 617.32; 7859.000;  -41.510;    0.000;7900.51000
 617.59; 7826.040;  -39.270;    0.000;7865.31004
 617.87; 7724.420;  -46.440;    0.000;7770.85992
 618.14; 7721.260;  -39.430;    0.000;7760.68977
 618.42; 7573.020;  -48.270;    0.000;7621.29002
 618.69; 7530.840;  -42.280;    0.000;7573.11984
 618.97; 7446.080;  -50.160;    0.000;7496.24008
 619.24; 7328.960;  -46.580;    0.000;7375.53996
 619.51; 7218.880;  -37.650;    0.000;7256.52988
 619.79; 7121.580;  -40.650;    0.000;7162.23008
 620.06; 6957.840;  -36.470;    0.000;6994.30984
 620.34; 6852.080;  -42.190;    0.000;6894.27008
 620.61; 6789.580;  -36.840;    0.000;6826.42008
 620.88; 6707.300;  -52.820;    0.000;6760.11980
 621.16; 6774.840;  -38.520;    0.000;6813.35984
 621.43; 6870.280;  -40.070;    0.000;6910.34978
 621.71; 6929.380;  -40.440;    0.000;6969.81988
 621.98; 6783.980;  -42.920;    0.000;6826.89998
 622.25; 6731.060;  -42.110;    0.000;6773.17006
 622.53; 6688.920;  -43.900;    0.000;6732.81992
 622.80; 6669.460;  -48.280;    0.000;6717.73996
 623.08; 6574.040;  -48.410;    0.000;6622.45004
 623.35; 6606.300;  -42.130;    0.000;6648.42981
 623.62; 6530.340;  -41.870;    0.000;6572.20984
 623.90; 6509.340;  -44.400;    0.000;6553.73985
 624.17; 6413.520;  -45.690;    0.000;6459.21002
 624.44; 6390.100;  -37.610;    0.000;6427.71010
 624.72; 6396.280;  -46.110;    0.000;6442.38979
 624.99; 6360.380;  -46.780;    0.000;6407.15988
 625.26; 6350.040;  -48.840;    0.000;6398.88004
 625.54; 6462.520;  -34.500;    0.000;6497.02002
 625.81; 6387.880;  -39.400;    0.000;6427.27988
 626.09; 6438.600;  -42.260;    0.000;6480.86010
 626.36; 6400.740;  -45.970;    0.000;6446.71024
 626.63; 6383.200;  -41.260;    0.000;6424.46019
 626.91; 6341.720;  -45.500;    0.000;6387.22021
 627.18; 6331.560;  -36.360;    0.000;6367.92006
 627.45; 6316.680;  -44.240;    0.000;6360.92018
 627.73; 6286.640;  -37.730;    0.000;6324.37014
 628.00; 6308.800;  -50.130;    0.000;6358.92981
 628.27; 6233.860;  -40.330;    0.000;6274.18987
 628.55; 6221.680;  -44.630;    0.000;6266.31018
 628.82; 6191.240;  -48.870;    0.000;6240.11023
 629.09; 6174.640;  -49.850;    0.000;6224.49014
 629.37; 6185.740;  -48.480;    0.000;6234.22023
 629.64; 6166.220;  -48.280;    0.000;6214.50021
 629.91; 6097.660;  -45.620;    0.000;6143.28016
 630.18; 6111.880;  -51.830;    0.000;6163.70988
 630.46; 6116.320;  -36.850;    0.000;6153.16982
 630.73; 6077.560;  -39.860;    0.000;6117.42006
 631.00; 6014.220;  -47.900;    0.000;6062.12022
 631.28; 6009.120;  -49.040;    0.000;6058.16012
 631.55; 5977.800;  -43.760;    0.000;6021.55980
 631.82; 5944.240;  -44.290;    0.000;5988.53024
 632.10; 5948.280;  -39.890;    0.000;5988.16978
 632.37; 5899.520;  -43.540;    0.000;5943.06002
 632.64; 5927.600;  -40.290;    0.000;5967.89010
 632.91; 5869.740;  -40.250;    0.000;5909.99023
 633.19; 5842.100;  -41.720;    0.000;5883.82010
 633.46; 5817.900;  -51.730;    0.000;5869.62990
 633.73; 5777.360;  -38.000;    0.000;5815.35986
 634.01; 5786.100;  -45.300;    0.000;5831.40010
 634.28; 5769.500;  -41.280;    0.000;5810.78000
 634.55; 5780.500;  -41.150;    0.000;5821.65000
 634.82; 5766.240;  -47.530;    0.000;5813.77023
 635.10; 5732.280;  -39.270;    0.000;5771.54979
 635.37; 5722.220;  -47.120;    0.000;5769.34021
 635.64; 5648.880;  -54.360;    0.000;5703.23988
 635.91; 5686.620;  -48.020;    0.000;5734.64012
 636.19; 5660.240;  -44.600;    0.000;5704.84023
 636.46; 5698.660;  -48.800;    0.000;5747.46016
 636.73; 5689.320;  -39.570;    0.000;5728.88982
 637.00; 5704.940;  -42.160;    0.000;5747.09994
 637.28; 5703.180;  -50.320;    0.000;5753.50018
 637.55; 5683.200;  -43.570;    0.000;5726.77020
 637.82; 5610.200;  -46.760;    0.000;5656.96019
 638.09; 5532.080;  -39.060;    0.000;5571.14008
 638.37; 5433.020;  -46.470;    0.000;5479.49002
 638.64; 5396.240;  -47.310;    0.000;5443.55024
 638.91; 5404.360;  -41.310;    0.000;5445.66986
 639.18; 5362.900;  -43.470;    0.000;5406.36990
 639.46; 5316.120;  -48.390;    0.000;5364.51012
 639.73; 5294.940;  -39.780;    0.000;5334.71994
 640.00; 5261.940;  -45.530;    0.000;5307.46994
 640.27; 5227.920;  -46.560;    0.000;5274.47992
 640.54; 5189.080;  -51.660;    0.000;5240.74008
 640.82; 5142.740;  -48.560;    0.000;5191.30024
 641.09; 5106.360;  -48.760;    0.000;5155.11986
 641.36; 5093.880;  -46.200;    0.000;5140.07988
 641.63; 5022.540;  -55.600;    0.000;5078.14004
 641.91; 4996.260;  -46.400;    0.000;5042.65977
 642.18; 4936.480;  -52.210;    0.000;4988.68998
 642.45; 4855.420;  -52.490;    0.000;4907.90992
 642.72; 4797.600;  -53.360;    0.000;4850.96010
 642.99; 4818.300;  -36.570;    0.000;4854.86980
 643.26; 4742.060;  -47.650;    0.000;4789.71006
 643.54; 4719.640;  -40.710;    0.000;4760.35014
 643.81; 4668.520;  -55.630;    0.000;4724.15002
 644.08; 4674.900;  -47.930;    0.000;4722.82990
 644.35; 4636.480;  -48.850;    0.000;4685.32998
 644.62; 4586.280;  -49.000;    0.000;4635.27979
 644.90; 4530.220;  -43.820;    0.000;4574.04021
 645.17; 4523.040;  -51.370;    0.000;4574.41004
 645.44; 4490.540;  -47.130;    0.000;4537.67004
 645.71; 4461.460;  -49.200;    0.000;4510.65996
 645.98; 4436.660;  -46.690;    0.000;4483.35015
 646.25; 4382.960;  -46.940;    0.000;4429.89996
 646.53; 4351.280;  -50.370;    0.000;4401.64978
 646.80; 4343.960;  -42.780;    0.000;4386.73996
 647.07; 4303.700;  -59.170;    0.000;4362.87019
 647.34; 4277.360;  -47.590;    0.000;4324.94986
 647.61; 4252.620;  -45.690;    0.000;4298.31012
 647.88; 4244.060;  -38.410;    0.000;4282.47006
 648.15; 4240.620;  -51.900;    0.000;4292.52012
 648.43; 4168.320;  -52.460;    0.000;4220.77982
 648.70; 4161.680;  -50.870;    0.000;4212.55017
 648.97; 4120.140;  -44.090;    0.000;4164.23014
 649.24; 4089.380;  -46.570;    0.000;4135.94988
 649.51; 4056.640;  -56.440;    0.000;4113.07989
 649.78; 4011.720;  -48.510;    0.000;4060.22997
 650.05; 4013.320;  -44.310;    0.000;4057.63007
 650.32; 4061.780;  -21.090;    0.000;4082.87003
 650.60; 3962.320;  -47.320;    0.000;4009.64007
 650.87; 3975.340;  -50.640;    0.000;4025.98009
 651.14; 3908.000;  -54.410;    0.000;3962.41000
 651.41; 3919.080;  -54.500;    0.000;3973.58008
 651.68; 3871.280;  -50.510;    0.000;3921.79003
 651.95; 3877.160;  -48.670;    0.000;3925.82991
 652.22; 3840.740;  -53.000;    0.000;3893.73999
 652.49; 3811.920;  -58.480;    0.000;3870.39992
 652.76; 3791.180;  -53.540;    0.000;3844.71993
 653.03; 3741.520;  -48.460;    0.000;3789.98002
 653.31; 3711.600;  -50.850;    0.000;3762.45010
 653.58; 3687.760;  -50.660;    0.000;3738.42001
 653.85; 3710.400;  -53.770;    0.000;3764.16990
 654.12; 3671.800;  -52.700;    0.000;3724.50005
 654.39; 3612.820;  -49.080;    0.000;3661.90007
 654.66; 3609.880;  -44.350;    0.000;3654.22988
 654.93; 3606.400;  -40.020;    0.000;3646.41990
 655.20; 3571.000;  -51.700;    0.000;3622.70000
 655.47; 3554.440;  -52.020;    0.000;3606.45994
 655.74; 3525.680;  -46.170;    0.000;3571.84993
 656.01; 3475.820;  -53.270;    0.000;3529.09007
 656.28; 3488.200;  -53.920;    0.000;3542.11995
 656.55; 3450.880;  -44.780;    0.000;3495.65988
 656.83; 3430.800;  -54.700;    0.000;3485.50005
 657.10; 3377.380;  -54.950;    0.000;3432.32988
 657.37; 3371.140;  -45.470;    0.000;3416.60989
 657.64; 3360.220;  -50.040;    0.000;3410.25997
 657.91; 3346.180;  -54.530;    0.000;3400.70993
 658.18; 3331.980;  -48.090;    0.000;3380.06998
 658.45; 3263.540;  -53.800;    0.000;3317.34004
 658.72; 3281.180;  -49.560;    0.000;3330.73993
 658.99; 3230.240;  -52.810;    0.000;3283.04999
 659.26; 3267.760;  -44.460;    0.000;3312.22001
 659.53; 3217.160;  -53.390;    0.000;3270.54991
 659.80; 3192.920;  -50.980;    0.000;3243.89992
 660.07; 3175.140;  -41.400;    0.000;3216.53989
 660.34; 3170.540;  -52.590;    0.000;3223.13004
 660.61; 3140.500;  -54.010;    0.000;3194.51000
 660.88; 3114.680;  -49.010;    0.000;3163.68993
 661.15; 3106.160;  -45.510;    0.000;3151.66991
 661.42; 3061.840;  -52.000;    0.000;3113.84009
 661.69; 3063.620;  -51.660;    0.000;3115.28012
 661.96; 3039.100;  -53.540;    0.000;3092.64010
 662.23; 2991.020;  -54.210;    0.000;3045.23002
 662.50; 2995.400;  -55.200;    0.000;3050.59990
 662.77; 3000.800;  -57.340;    0.000;3058.14005
 663.04; 2941.100;  -55.460;    0.000;2996.56010
 663.31; 2927.800;  -53.020;    0.000;2980.82005
 663.58; 2885.860;  -53.790;    0.000;2939.65011
 663.85; 2912.420;  -48.190;    0.000;2960.60992
 664.12; 2861.160;  -49.170;    0.000;2910.32991
 664.39; 2826.580;  -57.490;    0.000;2884.07008
 664.66; 2811.800;  -56.420;    0.000;2868.22005
 664.93; 2822.200;  -57.810;    0.000;2880.00995
 665.20; 2785.020;  -45.510;    0.000;2830.53002
 665.47; 2787.600;  -47.500;    0.000;2835.10010
 665.74; 2735.000;  -56.240;    0.000;2791.24000
 666.01; 2735.880;  -52.970;    0.000;2788.84988
 666.28; 2714.060;  -53.610;    0.000;2767.67006
 666.55; 2705.520;  -48.340;    0.000;2753.86002
 666.82; 2663.820;  -58.560;    0.000;2722.38007
 667.09; 2685.000;  -54.770;    0.000;2739.77000
 667.36; 2644.740;  -51.960;    0.000;2696.69999
 667.63; 2647.520;  -48.120;    0.000;2695.64002
 667.90; 2598.940;  -50.500;    0.000;2649.43994
 668.16; 2608.520;  -51.760;    0.000;2660.28002
 668.43; 2566.620;  -52.290;    0.000;2618.91012
 668.70; 2555.280;  -50.190;    0.000;2605.47003
 668.97; 2536.480;  -54.900;    0.000;2591.37998
 669.24; 2503.740;  -50.670;    0.000;2554.40999
 669.51; 2503.620;  -47.280;    0.000;2550.90012
 669.78; 2481.140;  -57.020;    0.000;2538.15989
 670.05; 2449.600;  -53.780;    0.000;2503.38010
 670.32; 2454.580;  -47.630;    0.000;2502.21008
 670.59; 2427.140;  -59.380;    0.000;2486.51989
 670.86; 2381.060;  -54.490;    0.000;2435.55006
 671.13; 2371.280;  -53.370;    0.000;2424.65003
 671.40; 2367.020;  -52.030;    0.000;2419.05002
 671.67; 2379.040;  -50.040;    0.000;2429.08004
 671.93; 2344.440;  -55.350;    0.000;2399.78994
 672.20; 2305.100;  -58.000;    0.000;2363.10010
 672.47; 2323.180;  -49.890;    0.000;2373.06993
 672.74; 2283.220;  -48.940;    0.000;2332.15997
 673.01; 2276.920;  -62.990;    0.000;2339.90992
 673.28; 2261.140;  -53.910;    0.000;2315.04989
 673.55; 2230.880;  -54.610;    0.000;2285.48988
 673.82; 2209.820;  -51.100;    0.000;2260.92007
 674.09; 2203.560;  -52.250;    0.000;2255.81006
 674.35; 2172.740;  -58.740;    0.000;2231.47999
 674.62; 2176.960;  -44.900;    0.000;2221.85996
 674.89; 2149.760;  -53.110;    0.000;2202.87001
 675.16; 2142.780;  -47.910;    0.000;2190.69003
 675.43; 2135.300;  -52.020;    0.000;2187.32005
 675.70; 2127.920;  -36.370;    0.000;2164.28992
 675.97; 2097.260;  -55.340;    0.000;2152.60001
 676.24; 2115.060;  -47.960;    0.000;2163.02006
 676.50; 2048.840;  -59.330;    0.000;2108.17009
 676.77; 2007.000;  -60.020;    0.000;2067.02000
 677.04; 2025.660;  -47.110;    0.000;2072.77003
 677.31; 2007.460;  -55.920;    0.000;2063.37996
 677.58; 2003.380;  -52.120;    0.000;2055.50000
 677.85; 1974.260;  -48.990;    0.000;2023.25001
 678.12; 1982.400;  -52.160;    0.000;2034.56002
 678.38; 1967.040;  -54.140;    0.000;2021.18004
 678.65; 1949.500;  -60.680;    0.000;2010.18000
 678.92; 1933.600;  -53.340;    0.000;1986.93998
 679.19; 1944.320;  -39.870;    0.000;1984.18995
 679.46; 1922.120;  -46.760;    0.000;1968.87999
 679.73; 1857.420;  -59.180;    0.000;1916.60004
 679.99; 1864.840;  -56.270;    0.000;1921.10997
 680.26; 1848.460;  -54.520;    0.000;1902.97996
 680.53; 1853.760;  -59.650;    0.000;1913.41001
 680.80; 1823.200;  -56.750;    0.000;1879.94995
 681.07; 1802.740;  -55.340;    0.000;1858.07999
 681.33; 1809.460;  -54.670;    0.000;1864.12996
 681.60; 1798.900;  -52.230;    0.000;1851.13002
 681.87; 1762.800;  -54.620;    0.000;1817.42005
 682.14; 1757.860;  -52.270;    0.000;1810.12999
 682.41; 1759.560;  -57.990;    0.000;1817.55006
 682.67; 1728.600;  -50.450;    0.000;1779.04998
 682.94; 1696.440;  -59.360;    0.000;1755.79994
 683.21; 1716.800;  -53.700;    0.000;1770.50005
 683.48; 1733.340;  -55.450;    0.000;1788.78997
 683.75; 1695.100;  -47.950;    0.000;1743.04998
 684.01; 1677.140;  -46.370;    0.000;1723.51001
 684.28; 1638.040;  -57.410;    0.000;1695.45004
 684.55; 1655.040;  -54.400;    0.000;1709.44004
 684.82; 1640.300;  -62.610;    0.000;1702.91005
 685.09; 1631.560;  -45.320;    0.000;1676.88006
 685.35; 1615.160;  -50.950;    0.000;1666.11003
 685.62; 1574.740;  -53.810;    0.000;1628.54999
 685.89; 1592.220;  -50.790;    0.000;1643.00997
 686.16; 1565.620;  -60.890;    0.000;1626.50999
 686.42; 1561.400;  -53.860;    0.000;1615.26003
 686.69; 1547.560;  -49.770;    0.000;1597.33006
 686.96; 1543.540;  -58.350;    0.000;1601.89004
 687.23; 1537.020;  -53.370;    0.000;1590.39002
 687.49; 1517.040;  -46.350;    0.000;1563.39004
 687.76; 1503.340;  -56.190;    0.000;1559.52996
 688.03; 1473.780;  -57.270;    0.000;1531.05003
 688.30; 1447.380;  -63.910;    0.000;1511.29000
 688.56; 1460.620;  -49.760;    0.000;1510.37999
 688.83; 1431.100;  -58.260;    0.000;1489.35997
 689.10; 1463.140;  -59.880;    0.000;1523.02002
 689.37; 1417.100;  -60.250;    0.000;1477.34998
 689.63; 1409.400;  -58.120;    0.000;1467.52002
 689.90; 1425.540;  -42.960;    0.000;1468.50004
 690.17; 1399.080;  -57.170;    0.000;1456.24995
 690.44; 1372.580;  -53.100;    0.000;1425.67995
 690.70; 1372.460;  -64.370;    0.000;1436.82996
 690.97; 1355.680;  -52.060;    0.000;1407.74006
 691.24; 1369.500;  -45.640;    0.000;1415.14000
 691.50; 1331.080;  -63.810;    0.000;1394.88996
 691.77; 1344.480;  -61.380;    0.000;1405.85998
 692.04; 1317.140;  -50.390;    0.000;1367.53001
 692.30; 1285.920;  -61.100;    0.000;1347.02004
 692.57; 1260.620;  -55.730;    0.000;1316.34999
 692.84; 1269.060;  -60.990;    0.000;1330.05006
 693.11; 1266.780;  -51.860;    0.000;1318.64003
 693.37; 1269.100;  -50.850;    0.000;1319.94997
 693.64; 1263.240;  -63.550;    0.000;1326.78999
 693.91; 1230.620;  -52.450;    0.000;1283.07000
 694.17; 1218.580;  -52.150;    0.000;1270.72996
 694.44; 1225.780;  -55.600;    0.000;1281.38003
 694.71; 1195.440;  -66.220;    0.000;1261.65994
 694.97; 1181.860;  -60.180;    0.000;1242.03999
 695.24; 1151.080;  -60.420;    0.000;1211.49995
 695.51; 1157.320;  -64.250;    0.000;1221.56995
 695.77; 1159.920;  -53.070;    0.000;1212.99004
 696.04; 1132.640;  -57.450;    0.000;1190.09002
 696.31; 1107.100;  -55.850;    0.000;1162.94997
 696.57; 1136.220;  -48.360;    0.000;1184.57997
 696.84; 1108.120;  -56.540;    0.000;1164.66000
 697.11; 1096.780;  -49.450;    0.000;1146.23003
 697.37; 1106.900;  -52.390;    0.000;1159.29002
 697.64; 1065.540;  -50.550;    0.000;1116.09004
 697.91; 1042.840;  -63.040;    0.000;1105.87997
 698.17; 1049.580;  -58.460;    0.000;1108.03996
 698.44; 1057.020;  -54.420;    0.000;1111.44002
 698.71; 1017.020;  -60.630;    0.000;1077.65002
 698.97; 1007.740;  -56.130;    0.000;1063.86999
 699.24;  997.340;  -57.190;    0.000;1054.53003
 699.50;  970.300;  -63.610;    0.000;1033.90999
 699.77;  964.820;  -63.480;    0.000;1028.30001
 700.04;  958.160;  -56.390;    0.000;1014.54997
 700.30;  940.840;  -57.580;    0.000;998.42003
 700.57;  931.260;  -57.160;    0.000;988.42001
 700.84;  927.660;  -52.700;    0.000;980.35997
 701.10;  905.580;  -55.650;    0.000;961.23002
 701.37;  927.860;  -57.060;    0.000;984.91999
 701.63;  877.020;  -60.840;    0.000;937.86002
 701.90;  884.580;  -55.460;    0.000;940.04002
 702.17;  884.980;  -46.530;    0.000;931.50998
 702.43;  848.720;  -56.900;    0.000;905.61997
 702.70;  865.520;  -43.080;    0.000;908.60002
 702.96;  847.860;  -57.550;    0.000;905.40998
 703.23;  813.040;  -63.900;    0.000;876.93998
 703.50;  795.280;  -57.740;    0.000;853.02003
 703.76;  805.300;  -60.140;    0.000;865.43999
 704.03;  778.340;  -62.000;    0.000;840.34003
 704.29;  779.400;  -56.620;    0.000;836.02002
 704.56;  755.680;  -66.340;    0.000;822.01999
 704.82;  730.800;  -61.140;    0.000;791.93999
 705.09;  757.940;  -50.240;    0.000;808.18000
 705.36;  698.720;  -63.730;    0.000;762.44997
 705.62;  738.980;  -45.100;    0.000;784.07998
 705.89;  699.180;  -57.710;    0.000;756.88999
 706.15;  683.200;  -52.660;    0.000;735.86001
 706.42;  679.280;  -49.750;    0.000;729.03003
 706.68;  668.280;  -59.540;    0.000;727.82003
 706.95;  653.140;  -55.380;    0.000;708.52002
 707.21;  623.020;  -63.590;    0.000;686.61002
 707.48;  640.600;  -61.770;    0.000;702.36998
 707.75;  620.660;  -54.600;    0.000;675.25997
 708.01;  621.840;  -64.580;    0.000;686.42003
 708.28;  604.680;  -55.470;    0.000;660.14999
 708.54;  602.700;  -64.490;    0.000;667.19001
 708.81;  609.460;  -52.630;    0.000;662.09002
 709.07;  589.840;  -58.430;    0.000;648.27003
 709.34;  572.580;  -63.150;    0.000;635.73002
 709.60;  556.920;  -59.760;    0.000;616.67998
 709.87;  566.880;  -51.730;    0.000;618.61000
 710.13;  541.240;  -58.250;    0.000;599.48999
 710.40;  518.120;  -67.870;    0.000;585.99000
 710.66;  521.900;  -58.170;    0.000;580.07002
 710.93;  531.080;  -58.390;    0.000;589.47002
 711.19;  508.920;  -60.660;    0.000;569.58001
 711.46;  515.640;  -53.110;    0.000;568.75002
 711.72;  511.280;  -53.100;    0.000;564.38000
 711.99;  492.140;  -64.700;    0.000;556.84001
 712.25;  517.260;  -54.480;    0.000;571.74001
 712.52;  497.960;  -51.400;    0.000;549.35999
 712.78;  483.340;  -54.830;    0.000;538.17000
 713.05;  469.480;  -61.310;    0.000;530.79001
 713.31;  464.920;  -54.880;    0.000;519.80001
 713.58;  451.540;  -56.790;    0.000;508.33001
 713.84;  456.580;  -53.100;    0.000;509.67999
 714.11;  454.380;  -62.430;    0.000;516.81001
 714.37;  444.200;  -52.180;    0.000;496.38001
 714.64;  440.920;  -54.400;    0.000;495.32001
 714.90;  438.720;  -53.310;    0.000;492.03000
 715.17;  442.940;  -57.550;    0.000;500.49000
 715.43;  426.860;  -50.260;    0.000;477.11998
 715.70;  413.340;  -55.710;    0.000;469.05000
 715.96;  422.660;  -54.690;    0.000;477.35000
 716.22;  404.700;  -61.380;    0.000;466.08001
 716.49;  407.820;  -58.790;    0.000;466.61001
 716.75;  390.140;  -62.550;    0.000;452.69001
 717.02;  394.120;  -58.140;    0.000;452.25999
 717.28;  378.480;  -63.690;    0.000;442.17001
 717.55;  388.640;  -62.720;    0.000;451.36002
 717.81;  403.680;  -56.110;    0.000;459.78999
 718.08;  388.580;  -58.860;    0.000;447.43999
 718.34;  386.620;  -65.190;    0.000;451.81000
 718.60;  396.760;  -51.960;    0.000;448.72001
 718.87;  395.040;  -58.480;    0.000;453.52001
 719.13;  377.800;  -63.390;    0.000;441.18999
 719.40;  382.260;  -57.650;    0.000;439.91001
 719.66;  364.900;  -60.260;    0.000;425.15999
 719.93;  364.240;  -56.900;    0.000;421.13999
 720.19;  364.460;  -67.380;    0.000;431.83999
 720.45;  365.080;  -62.750;    0.000;427.82999
 720.72;  372.540;  -57.950;    0.000;430.49001
 720.98;  373.920;  -55.200;    0.000;429.12001
 721.25;  357.260;  -64.310;    0.000;421.57001
 721.51;  362.560;  -68.290;    0.000;430.85000
 721.77;  360.560;  -60.350;    0.000;420.91000
 722.04;  391.300;  -45.030;    0.000;436.32999
 722.30;  368.920;  -55.770;    0.000;424.69001
 722.57;  356.140;  -60.430;    0.000;416.57001
 722.83;  357.180;  -62.410;    0.000;419.58999
 723.09;  347.760;  -64.170;    0.000;411.93001
 723.36;  348.860;  -64.180;    0.000;413.03999
 723.62;  370.500;  -58.620;    0.000;429.12000
 723.88;  350.700;  -56.860;    0.000;407.56001
 724.15;  369.840;  -56.520;    0.000;426.36000
 724.41;  358.280;  -63.620;    0.000;421.90000
 724.68;  349.480;  -62.790;    0.000;412.27001
 724.94;  366.740;  -49.670;    0.000;416.40999
 725.20;  342.960;  -59.760;    0.000;402.71999
 725.47;  355.700;  -61.790;    0.000;417.49001
 725.73;  342.420;  -57.560;    0.000;399.98001
 725.99;  351.560;  -62.280;    0.000;413.84000
 726.26;  359.280;  -48.740;    0.000;408.02000
 726.52;  342.500;  -52.300;    0.000;394.80000
 726.78;  343.760;  -64.050;    0.000;407.81001
 727.05;  352.540;  -58.610;    0.000;411.15001
 727.31;  340.080;  -65.490;    0.000;405.56998
 727.57;  344.920;  -61.120;    0.000;406.04001
 727.84;  339.620;  -54.090;    0.000;393.71000
 728.10;  343.800;  -57.090;    0.000;400.88999
 728.36;  336.320;  -62.130;    0.000;398.45001
 728.63;  339.080;  -64.770;    0.000;403.84998
 728.89;  316.140;  -68.210;    0.000;384.35001
 729.15;  331.400;  -60.940;    0.000;392.33999
 729.42;  314.660;  -64.380;    0.000;379.04000
 729.68;  325.060;  -59.120;    0.000;384.18000
 729.94;  311.440;  -61.710;    0.000;373.15000
 730.21;  322.660;  -63.750;    0.000;386.41000
 730.47;  322.760;  -65.420;    0.000;388.18001
 730.73;  323.220;  -62.120;    0.000;385.34000
 731.00;  323.300;  -57.710;    0.000;381.00999
 731.26;  312.140;  -55.830;    0.000;367.97002
 731.52;  294.540;  -65.480;    0.000;360.02001
 731.78;  303.760;  -64.150;    0.000;367.91001
 732.05;  290.640;  -63.760;    0.000;354.40001
 732.31;  305.440;  -66.150;    0.000;371.59000
 732.57;  295.140;  -62.040;    0.000;357.18002
 732.84;  292.020;  -65.060;    0.000;357.07999
 733.10;  292.280;  -61.680;    0.000;353.96000
 733.36;  289.600;  -65.560;    0.000;355.16000
 733.62;  287.420;  -68.590;    0.000;356.01001
 733.89;  293.040;  -60.690;    0.000;353.73001
 734.15;  293.860;  -62.020;    0.000;355.87999
 734.41;  297.180;  -59.170;    0.000;356.34999
 734.67;  277.800;  -65.610;    0.000;343.40999
 734.94;  276.800;  -64.100;    0.000;340.89999
 735.20;  273.320;  -64.260;    0.000;337.58001
 735.46;  276.520;  -61.760;    0.000;338.27999
 735.73;  289.540;  -62.280;    0.000;351.82001
 735.99;  267.160;  -63.580;    0.000;330.74001
 736.25;  271.800;  -65.330;    0.000;337.12999
 736.51;  270.260;  -64.780;    0.000;335.04001
 736.77;  262.780;  -59.870;    0.000;322.65000
 737.04;  264.780;  -62.400;    0.000;327.18000
 737.30;  244.180;  -60.030;    0.000;304.20999
 737.56;  270.100;  -57.690;    0.000;327.79000
 737.82;  260.400;  -62.400;    0.000;322.80000
 738.09;  248.540;  -61.080;    0.000;309.62000
 738.35;  260.720;  -65.060;    0.000;325.78000
 738.61;  265.860;  -60.770;    0.000;326.62999
 738.87;  261.140;  -61.660;    0.000;322.80001
 739.14;  252.860;  -59.450;    0.000;312.31000
 739.40;  240.820;  -66.620;    0.000;307.44001
 739.66;  249.240;  -65.480;    0.000;314.72001
 739.92;  224.360;  -64.110;    0.000;288.47000
 740.18;  251.640;  -58.910;    0.000;310.55000
 740.45;  226.540;  -66.570;    0.000;293.10999
 740.71;  233.020;  -64.190;    0.000;297.21001
 740.97;  239.320;  -61.620;    0.000;300.94001
 741.23;  218.640;  -64.440;    0.000;283.08000
 741.49;  231.720;  -61.870;    0.000;293.59000
 741.76;  219.880;  -69.670;    0.000;289.55000
 742.02;  221.100;  -70.580;    0.000;291.68001
 742.28;  215.960;  -67.810;    0.000;283.77000
 742.54;  221.520;  -67.320;    0.000;288.84000
 742.80;  232.460;  -66.940;    0.000;299.40001
 743.06;  218.100;  -60.220;    0.000;278.32001
 743.33;  223.800;  -60.250;    0.000;284.05000
 743.59;  195.960;  -71.210;    0.000;267.17001
 743.85;  209.080;  -63.280;    0.000;272.36000
 744.11;  200.720;  -65.520;    0.000;266.24000
 744.37;  203.580;  -63.300;    0.000;266.88000
 744.63;  184.700;  -62.430;    0.000;247.13000
 744.90;  189.900;  -61.300;    0.000;251.19999
 745.16;  191.100;  -61.400;    0.000;252.50001
 745.42;  197.700;  -69.410;    0.000;267.11000
 745.68;  190.560;  -62.770;    0.000;253.33000
 745.94;  215.980;  -54.740;    0.000;270.72000
 746.20;  174.640;  -62.940;    0.000;237.58000
 746.46;  201.060;  -58.490;    0.000;259.55000
 746.72;  193.340;  -60.020;    0.000;253.36000
 746.99;  177.700;  -59.340;    0.000;237.04000
 747.25;  196.320;  -54.110;    0.000;250.43001
 747.51;  177.600;  -63.240;    0.000;240.84001
 747.77;  173.800;  -66.010;    0.000;239.81001
 748.03;  174.800;  -65.590;    0.000;240.39000
 748.29;  177.180;  -63.300;    0.000;240.47999
 748.55;  168.080;  -63.610;    0.000;231.69000
 748.81;  159.480;  -65.400;    0.000;224.88000
 749.08;  173.240;  -61.140;    0.000;234.38000
 749.34;  153.400;  -61.020;    0.000;214.41999
 749.60;  162.980;  -61.090;    0.000;224.07000
 749.86;  159.300;  -62.460;    0.000;221.76000
 750.12;  156.180;  -58.080;    0.000;214.25999
 750.38;  168.200;  -66.740;    0.000;234.93999
 750.64;  141.660;  -64.990;    0.000;206.65000
 750.90;  155.980;  -61.010;    0.000;216.98999
 751.16;  138.560;  -66.030;    0.000;204.59000
 751.42;  135.480;  -63.820;    0.000;199.30000
 751.68;  160.480;  -57.490;    0.000;217.97000
 751.95;  131.080;  -66.360;    0.000;197.44000
 752.21;  126.260;  -68.570;    0.000;194.83000
 752.47;  126.780;  -59.310;    0.000;186.09000
 752.73;  130.980;  -72.150;    0.000;203.13000
 752.99;  126.360;  -62.330;    0.000;188.69000
 753.25;  127.860;  -68.210;    0.000;196.07000
 753.51;  122.040;  -66.540;    0.000;188.58000
 753.77;  128.760;  -65.250;    0.000;194.00999
 754.03;  108.160;  -63.310;    0.000;171.47001
 754.29;  115.280;  -69.830;    0.000;185.11000
 754.55;  123.900;  -73.220;    0.000;197.12000
 754.81;  110.300;  -65.730;    0.000;176.03001
 755.07;   97.180;  -60.480;    0.000;157.66000
 755.33;  101.540;  -68.640;    0.000;170.18000
 755.59;  106.440;  -69.750;    0.000;176.19000
 755.85;   94.980;  -61.550;    0.000;156.53000
 756.11;  106.360;  -66.180;    0.000;172.54000
 756.37;   99.480;  -68.200;    0.000;167.68000
 756.63;  124.900;  -52.880;    0.000;177.78000
 756.89;   88.960;  -77.540;    0.000;166.50000
 757.15;   97.000;  -67.220;    0.000;164.22000
 757.41;  116.140;  -51.850;    0.000;167.99000
 757.68;   93.460;  -69.940;    0.000;163.40000
 757.94;  103.140;  -61.100;    0.000;164.24000
 758.20;   98.360;  -60.850;    0.000;159.21000
 758.46;   77.300;  -65.120;    0.000;142.42001
 758.72;   80.600;  -70.550;    0.000;151.15000
 758.98;   91.320;  -58.450;    0.000;149.77000
 759.24;   80.320;  -62.840;    0.000;143.16000
 759.50;   96.360;  -60.370;    0.000;156.73000
 759.76;  104.360;  -58.150;    0.000;162.51000
 760.02;   67.920;  -64.840;    0.000;132.75999
 760.27;   74.160;  -64.360;    0.000;138.52000
 760.53;   85.940;  -61.770;    0.000;147.71000
 760.79;   85.640;  -58.420;    0.000;144.06000
 761.05;   71.440;  -59.730;    0.000;131.17000
 761.31;   86.000;  -68.970;    0.000;154.97000
 761.57;   93.320;  -64.760;    0.000;158.08000
 761.83;   71.320;  -63.850;    0.000;135.17000
 762.09;   68.000;  -60.800;    0.000;128.80000
 762.35;   66.780;  -73.160;    0.000;139.94000
 762.61;   66.760;  -65.790;    0.000;132.55000
 762.87;   66.300;  -64.790;    0.000;131.09000
 763.13;   62.560;  -65.200;    0.000;127.76000
 763.39;   82.800;  -58.510;    0.000;141.31000
 763.65;   54.060;  -65.790;    0.000;119.85000
 763.91;   59.920;  -68.850;    0.000;128.77000
 764.17;   69.040;  -61.550;    0.000;130.59000
 764.43;   74.640;  -65.120;    0.000;139.76000
 764.69;   56.360;  -67.690;    0.000;124.05000
 764.95;   59.480;  -65.290;    0.000;124.77000
 765.21;   57.400;  -64.710;    0.000;122.11000
 765.47;   55.820;  -60.070;    0.000;115.89000
 765.73;   59.120;  -63.090;    0.000;122.21000
 765.98;   72.220;  -62.060;    0.000;134.28000
 766.24;   50.660;  -71.710;    0.000;122.37000
 766.50;   50.620;  -70.390;    0.000;121.01000
 766.76;   64.560;  -59.140;    0.000;123.70000
 767.02;   48.320;  -67.650;    0.000;115.97000
 767.28;   49.280;  -62.770;    0.000;112.05000
 767.54;   42.300;  -65.130;    0.000;107.43000
 767.80;   40.160;  -67.980;    0.000;108.14000
 768.06;   66.920;  -57.150;    0.000;124.07000
 768.32;   52.000;  -55.090;    0.000;107.09000
 768.58;   47.360;  -72.460;    0.000;119.82000
 768.83;   35.940;  -67.770;    0.000;103.71000
 769.09;   34.060;  -63.610;    0.000;97.67000
 769.35;   43.400;  -63.310;    0.000;106.71000
 769.61;   38.460;  -65.500;    0.000;103.96000
 769.87;   50.880;  -60.230;    0.000;111.11000
 770.13;   34.320;  -65.920;    0.000;100.24000
 770.39;   20.160;  -67.330;    0.000;87.49000
 770.65;   42.900;  -65.630;    0.000;108.53000
 770.90;   36.000;  -71.040;    0.000;107.04000
 771.16;   24.520;  -65.650;    0.000;90.17000
 771.42;   37.480;  -60.610;    0.000;98.09000
 771.68;   30.920;  -72.120;    0.000;103.04000
 771.94;   34.920;  -64.270;    0.000;99.18999
 772.20;   29.400;  -71.570;    0.000;100.97000
 772.46;   23.580;  -70.450;    0.000;94.03000
 772.71;   24.600;  -62.790;    0.000;87.39000
 772.97;   50.140;  -61.450;    0.000;111.59000
 773.23;   18.200;  -66.880;    0.000;85.08000
 773.49;   47.960;  -61.900;    0.000;109.86000
 773.75;    4.860;  -66.690;    0.000;71.55000
 774.01;   15.540;  -66.730;    0.000;82.27000
 774.26;   14.100;  -70.110;    0.000;84.21000
 774.52;   43.540;  -57.630;    0.000;101.17000
 774.78;   24.960;  -67.870;    0.000;92.83000
 775.04;   47.120;  -57.380;    0.000;104.50000
 775.30;   14.940;  -70.620;    0.000;85.56000
 775.56;   27.700;  -62.130;    0.000;89.83000
 775.81;   29.580;  -62.360;    0.000;91.94000
 776.07;   12.700;  -63.320;    0.000;76.02000
 776.33;   14.560;  -66.810;    0.000;81.37000
 776.59;   15.640;  -72.310;    0.000;87.95000
 776.85;   10.300;  -72.330;    0.000;82.63000
 777.10;   32.980;  -66.910;    0.000;99.89000
 777.36;   13.420;  -70.350;    0.000;83.77000
 777.62;   27.680;  -66.270;    0.000;93.95000
 777.88;   12.020;  -66.450;    0.000;78.47000
 778.14;   20.300;  -67.860;    0.000;88.16000
 778.39;   20.420;  -69.450;    0.000;89.87000
 778.65;   19.820;  -66.470;    0.000;86.29000
 778.91;    7.200;  -72.700;    0.000;79.90000
 779.17;   23.480;  -59.560;    0.000;83.04000
 779.42;    5.580;  -73.390;    0.000;78.97000
 779.68;   -0.900;  -69.660;    0.000;68.76000
 779.94;   18.400;  -68.700;    0.000;87.10000
 780.20;    9.800;  -73.010;    0.000;82.81000
 780.46;    0.840;  -73.730;    0.000;74.57000
 780.71;   18.780;  -65.500;    0.000;84.28000
 780.97;    8.820;  -67.720;    0.000;76.54000
 781.23;   -7.540;  -68.470;    0.000;60.93000
 781.49;    8.160;  -65.070;    0.000;73.23000
 781.74;   13.320;  -62.670;    0.000;75.99000
 782.00;   -1.960;  -71.050;    0.000;69.09000
 782.26;   12.580;  -61.940;    0.000;74.52000
 782.52;    6.500;  -67.400;    0.000;73.90000
 782.77;    6.900;  -63.130;    0.000;70.03000
 783.03;   -6.760;  -72.070;    0.000;65.31000
 783.29;  -11.980;  -67.470;    0.000;55.49000
 783.54;   -8.140;  -69.510;    0.000;61.37000
 783.80;   11.440;  -61.520;    0.000;72.96000
 784.06;   -2.400;  -72.390;    0.000;69.99000
 784.32;    2.560;  -69.850;    0.000;72.41000
 784.57;   21.160;  -57.390;    0.000;78.55000
 784.83;   -6.700;  -75.500;    0.000;68.80000
 785.09;  -11.860;  -75.670;    0.000;63.81000
 785.34;   -1.700;  -67.830;    0.000;66.13000
 785.60;    8.860;  -68.990;    0.000;77.85000
 785.86;  -13.340;  -65.770;    0.000;52.43000
 786.12;   14.800;  -64.000;    0.000;78.80000
 786.37;   10.580;  -58.590;    0.000;69.17000
 786.63;  -15.360;  -70.160;    0.000;54.80000
 786.89;   -5.940;  -64.130;    0.000;58.19000
 787.14;    9.560;  -68.600;    0.000;78.16000
 787.40;   -9.220;  -65.120;    0.000;55.90000
 787.66;   -3.520;  -69.570;    0.000;66.05000
 787.91;   19.700;  -54.980;    0.000;74.68000
 788.17;  -12.240;  -74.240;    0.000;62.00000
 788.43;  -12.580;  -65.670;    0.000;53.09000
 788.68;  -19.600;  -66.800;    0.000;47.20000
 788.94;   -2.680;  -64.460;    0.000;61.78000
 789.20;  -10.340;  -67.690;    0.000;57.35000
 789.45;  -23.760;  -75.860;    0.000;52.10000
 789.71;  -21.160;  -77.270;    0.000;56.11000
 789.97;    0.340;  -62.650;    0.000;62.99000
 790.22;   -6.500;  -70.660;    0.000;64.16000
 790.48;  -22.060;  -66.280;    0.000;44.22000
 790.74;   -5.200;  -69.070;    0.000;63.87000
 790.99;  -12.660;  -67.310;    0.000;54.65000
 791.25;  -15.260;  -72.320;    0.000;57.06000
 791.51;   -4.640;  -69.110;    0.000;64.47000
 791.76;   13.640;  -60.800;    0.000;74.44000
 792.02;  -24.400;  -69.930;    0.000;45.53000
 792.27;   -0.440;  -63.120;    0.000;62.68000
 792.53;   -8.780;  -67.640;    0.000;58.86000
 792.79;  -13.120;  -74.900;    0.000;61.78000
 793.04;  -16.860;  -66.410;    0.000;49.55000
 793.30;  -20.880;  -72.290;    0.000;51.41000
 793.56;  -11.420;  -64.850;    0.000;53.43000
 793.81;    5.280;  -64.930;    0.000;70.21000
 794.07;  -27.300;  -78.310;    0.000;51.01000
 794.32;  -10.520;  -65.850;    0.000;55.33000
 794.58;  -15.880;  -64.290;    0.000;48.41000
 794.84;  -28.540;  -73.370;    0.000;44.83000
 795.09;  -14.320;  -63.290;    0.000;48.97000
 795.35;  -10.980;  -68.300;    0.000;57.32000
 795.60;  -17.160;  -67.650;    0.000;50.49000
 795.86;  -19.360;  -68.830;    0.000;49.47000
 796.12;  -31.100;  -75.900;    0.000;44.80000
 796.37;  -27.440;  -66.550;    0.000;39.11000
 796.63;  -22.400;  -68.700;    0.000;46.30000
 796.88;  -20.700;  -72.950;    0.000;52.25000
 797.14;  -14.120;  -65.230;    0.000;51.11000
 797.39;  -18.560;  -61.460;    0.000;42.90000
 797.65;  -21.460;  -68.500;    0.000;47.04000
 797.91;  -20.820;  -79.560;    0.000;58.74000
 798.16;  -28.500;  -69.310;    0.000;40.81000
 798.42;  -41.060;  -73.060;    0.000;32.00000
 798.67;  -22.300;  -75.160;    0.000;52.86000
 798.93;  -21.520;  -72.820;    0.000;51.30000
 799.18;  -34.380;  -69.660;    0.000;35.28000
 799.44;  -35.280;  -74.410;    0.000;39.13000
 799.69;  -28.220;  -72.570;    0.000;44.35000
 799.95;  -39.800;  -76.750;    0.000;36.95000
 800.21;  -25.480;  -71.490;    0.000;46.01000
 800.46;   -0.140;  -60.670;    0.000;60.53000
 800.72;  -32.240;  -74.550;    0.000;42.31000
 800.97;  -22.960;  -66.080;    0.000;43.12000
 801.23;  -27.740;  -69.050;    0.000;41.31000
 801.48;  -36.300;  -80.230;    0.000;43.93000
 801.74;  -27.560;  -70.650;    0.000;43.09000
 801.99;  -16.100;  -69.570;    0.000;53.47000
 802.25;  -29.240;  -68.120;    0.000;38.88000
 802.50;  -31.420;  -69.760;    0.000;38.34000
 802.76;  -13.840;  -68.390;    0.000;54.55000
 803.01;  -35.300;  -73.710;    0.000;38.41000
 803.27;  -30.840;  -68.660;    0.000;37.82000
 803.52;  -32.760;  -67.380;    0.000;34.62000
 803.78;  -22.740;  -65.800;    0.000;43.06000
 804.03;  -21.260;  -64.730;    0.000;43.47000
 804.29;  -49.880;  -73.690;    0.000;23.81000
 804.54;  -31.200;  -72.140;    0.000;40.94000
 804.80;  -36.080;  -70.710;    0.000;34.63000
 805.05;  -34.120;  -78.700;    0.000;44.58000
 805.31;  -17.020;  -64.860;    0.000;47.84000
 805.56;  -19.400;  -61.820;    0.000;42.42000
 805.82;  -50.040;  -75.510;    0.000;25.47000
 806.07;  -19.380;  -71.590;    0.000;52.21000
 806.33;  -43.840;  -63.430;    0.000;19.59000
 806.58;  -53.380;  -76.420;    0.000;23.04000
 806.84;  -28.320;  -67.110;    0.000;38.79000
 807.09;  -38.520;  -70.810;    0.000;32.29000
 807.34;  -34.880;  -71.760;    0.000;36.88000
 807.60;  -18.500;  -72.510;    0.000;54.01000
 807.85;  -25.220;  -66.100;    0.000;40.88000
 808.11;  -41.080;  -65.900;    0.000;24.82000
 808.36;  -24.460;  -56.490;    0.000;32.03000
 808.62;  -33.280;  -69.320;    0.000;36.04000
 808.87;  -36.500;  -69.730;    0.000;33.23000
 809.13;  -39.180;  -72.860;    0.000;33.68000
 809.38;  -19.920;  -63.580;    0.000;43.66000
 809.63;  -34.840;  -74.820;    0.000;39.98000
 809.89;  -21.840;  -65.740;    0.000;43.90000
 810.14;  -44.200;  -75.130;    0.000;30.93000
 810.40;  -29.900;  -66.270;    0.000;36.37000
 810.65;  -44.300;  -71.440;    0.000;27.14000
 810.91;  -42.860;  -76.930;    0.000;34.07000
 811.16;  -31.780;  -65.800;    0.000;34.02000
 811.41;  -19.400;  -58.080;    0.000;38.68000
 811.67;  -36.580;  -71.200;    0.000;34.62000
 811.92;  -22.720;  -67.900;    0.000;45.18000
 812.18;  -40.640;  -70.620;    0.000;29.98000
 812.43;  -42.500;  -69.170;    0.000;26.67000
 812.68;  -29.740;  -72.250;    0.000;42.51000
 812.94;  -33.700;  -70.010;    0.000;36.31000
 813.19;  -38.680;  -73.690;    0.000;35.01000
 813.45;   -0.780;  -54.460;    0.000;53.68000
 813.70;  -40.100;  -73.310;    0.000;33.21000
 813.95;  -28.720;  -69.970;    0.000;41.25000
 814.21;  -33.280;  -72.990;    0.000;39.71000
 814.46;  -41.860;  -66.200;    0.000;24.34000
 814.71;  -47.100;  -77.220;    0.000;30.12000
 814.97;  -38.840;  -71.610;    0.000;32.77000
 815.22;  -50.080;  -73.660;    0.000;23.58000
 815.48;  -38.860;  -74.930;    0.000;36.07000
 815.73;  -33.060;  -70.320;    0.000;37.26000
 815.98;  -41.460;  -72.260;    0.000;30.80000
 816.24;  -46.400;  -73.690;    0.000;27.29000
 816.49;  -36.020;  -67.570;    0.000;31.55000
 816.74;  -41.540;  -66.060;    0.000;24.52000
 817.00;   -6.940;  -65.110;    0.000;58.17000
 817.25;  -43.980;  -64.360;    0.000;20.38000
 817.50;  -42.100;  -71.190;    0.000;29.09000
 817.76;  -39.100;  -73.870;    0.000;34.77000
 818.01;  -48.800;  -74.140;    0.000;25.34000
 818.26;  -37.760;  -77.660;    0.000;39.90001
 818.52;  -39.140;  -71.160;    0.000;32.02000
 818.77;  -44.720;  -70.450;    0.000;25.73000
 819.02;  140.880;   -1.560;    0.000;142.44000
 819.28;  -35.500;  -76.850;    0.000;41.35000
 819.53;  -51.280;  -76.810;    0.000;25.53000
 819.78;  -42.160;  -71.320;    0.000;29.16000
 820.04;  -33.160;  -76.120;    0.000;42.96000
 820.29;  -46.960;  -69.520;    0.000;22.56000
 820.54;  -31.240;  -71.830;    0.000;40.59000
 820.79;  -43.320;  -68.430;    0.000;25.11000
 821.05;  -59.520;  -73.180;    0.000;13.66000
 821.30;  -15.800;  -60.740;    0.000;44.94000
 821.55;  -21.380;  -56.870;    0.000;35.49000
 821.81;  -41.000;  -72.250;    0.000;31.25000
 822.06;  -48.480;  -64.240;    0.000;15.76000
 822.31;  -20.460;  -64.090;    0.000;43.63000
 822.56;  -52.500;  -71.570;    0.000;19.07000
 822.82;  -51.500;  -74.760;    0.000;23.26000
 823.07;  -56.120;  -77.000;    0.000;20.88000
 823.32;  -64.660;  -86.470;    0.000;21.81000
 823.58;  -38.580;  -70.830;    0.000;32.25000
 823.83;  -46.080;  -68.440;    0.000;22.36000
 824.08;  -59.280;  -68.700;    0.000; 9.42000
 824.33;  -63.980;  -78.080;    0.000;14.10000
 824.59;  -56.800;  -75.110;    0.000;18.31000
 824.84;  -57.900;  -73.820;    0.000;15.92000
 825.09;  -49.880;  -71.350;    0.000;21.47000
 825.34;  -43.460;  -78.610;    0.000;35.15000
 825.60;  -51.300;  -76.840;    0.000;25.54000
 825.85;  -56.980;  -72.800;    0.000;15.82000
 826.10;  -63.480;  -75.820;    0.000;12.34000
 826.35;  -49.780;  -78.380;    0.000;28.60000
 826.61;  -52.360;  -69.170;    0.000;16.81000
 826.86;  -65.020;  -74.300;    0.000; 9.28001
 827.11;  -51.460;  -73.210;    0.000;21.75000
 827.36;  -67.100;  -79.440;    0.000;12.34000
 827.61;  -64.320;  -77.970;    0.000;13.65000
 827.87;  -49.420;  -73.890;    0.000;24.47000
 828.12;  -47.340;  -78.790;    0.000;31.45000
 828.37;  -51.120;  -76.470;    0.000;25.35000
 828.62;  -38.980;  -66.780;    0.000;27.80000
 828.88;  -42.380;  -68.950;    0.000;26.57000
 829.13;  -42.480;  -65.460;    0.000;22.98000
 829.38;  -54.340;  -74.310;    0.000;19.97000
 829.63;  -54.180;  -76.380;    0.000;22.20000
 829.88;  -51.460;  -77.840;    0.000;26.38000
 830.14;  -46.600;  -68.400;    0.000;21.80000
 830.39;  -38.560;  -67.150;    0.000;28.59000
 830.64;  -61.860;  -73.500;    0.000;11.64000
 830.89;  -28.840;  -63.930;    0.000;35.09000
 831.14;  -52.080;  -65.130;    0.000;13.05000
 831.39;  -66.120;  -80.200;    0.000;14.07999
 831.65;  -64.220;  -73.680;    0.000; 9.46000
 831.90;  -52.660;  -76.450;    0.000;23.79000
 832.15;  -49.020;  -74.460;    0.000;25.44000
 832.40;  -46.800;  -71.070;    0.000;24.27000
 832.65;  -48.800;  -65.920;    0.000;17.12000
 832.90;  -65.840;  -71.420;    0.000; 5.58000
 833.16;  -60.620;  -70.920;    0.000;10.30000
 833.41;  -53.460;  -68.270;    0.000;14.81000
 833.66;  -58.320;  -80.480;    0.000;22.16000
 833.91;  -50.540;  -69.470;    0.000;18.93000
 834.16;  -61.280;  -74.480;    0.000;13.20000
 834.41;  -65.460;  -78.330;    0.000;12.87000
 834.66;  -52.560;  -73.780;    0.000;21.22000
 834.92;  -48.220;  -76.420;    0.000;28.20000
 835.17;  -58.800;  -79.700;    0.000;20.90000
 835.42;  -61.200;  -74.750;    0.000;13.55000
 835.67;  -54.940;  -67.620;    0.000;12.68000
 835.92;  -64.120;  -76.180;    0.000;12.06000
 836.17;  -63.640;  -73.070;    0.000; 9.43000
 836.42;  -68.780;  -80.720;    0.000;11.94000
 836.67;  -69.200;  -72.910;    0.000; 3.71001
 836.93;  -57.040;  -67.370;    0.000;10.33000
 837.18;  -52.860;  -68.480;    0.000;15.62000
 837.43;  -60.720;  -77.570;    0.000;16.85000
 837.68;  -59.500;  -75.250;    0.000;15.75000
 837.93;  -69.320;  -77.620;    0.000; 8.30000
 838.18;  -64.820;  -72.720;    0.000; 7.90000
 838.43;  -65.400;  -77.330;    0.000;11.93000
 838.68;  -52.460;  -75.400;    0.000;22.94000
 838.93;  -65.720;  -76.840;    0.000;11.12000
 839.18;  -38.120;  -68.870;    0.000;30.75000
 839.43;  -53.740;  -68.920;    0.000;15.18000
 839.69;  -74.700;  -75.200;    0.000; 0.50000
 839.94;  -67.560;  -75.060;    0.000; 7.50000
 840.19;  -64.660;  -64.900;    0.000; 0.24000
 840.44;  -60.600;  -74.590;    0.000;13.99000
 840.69;  -54.700;  -67.680;    0.000;12.98000
 840.94;  -48.620;  -78.800;    0.000;30.18000
 841.19;  -41.200;  -66.410;    0.000;25.21000
 841.44;  -50.300;  -70.390;    0.000;20.09000
 841.69;  -42.360;  -69.710;    0.000;27.35000
 841.94;  -64.980;  -72.650;    0.000; 7.67000
 842.19;  -69.920;  -74.280;    0.000; 4.36000
 842.44;  -61.620;  -72.650;    0.000;11.03000
 842.69;  -54.000;  -68.330;    0.000;14.33000
 842.94;  -60.940;  -71.610;    0.000;10.67000
 843.19;  -64.580;  -78.190;    0.000;13.61000
 843.44;  -58.800;  -74.710;    0.000;15.91000
 843.69;  -65.820;  -76.520;    0.000;10.70000
 843.94;    7.880;  -44.550;    0.000;52.43000
 844.19;  -74.980;  -77.910;    0.000; 2.93000
 844.44;  -41.560;  -71.510;    0.000;29.95000
 844.69;  -59.120;  -73.310;    0.000;14.19000
 844.95;  -54.340;  -74.630;    0.000;20.29000
 845.20;  -67.660;  -82.130;    0.000;14.46999
 845.45;  -55.740;  -68.000;    0.000;12.26000
 845.70;  -65.720;  -72.870;    0.000; 7.15000
 845.95;  -64.480;  -74.560;    0.000;10.07999
 846.20;  -56.580;  -71.730;    0.000;15.15000
 846.45;  -73.660;  -77.390;    0.000; 3.73000
 846.70;  -56.400;  -65.790;    0.000; 9.39000
 846.95;  -72.540;  -75.980;    0.000; 3.44000
 847.20;  -68.100;  -73.000;    0.000; 4.90000
 847.44;  -39.120;  -61.130;    0.000;22.01000
 847.69;  -67.060;  -79.180;    0.000;12.12000
 847.94;  -49.040;  -71.950;    0.000;22.91000
 848.19;  -56.500;  -73.590;    0.000;17.09000
 848.44;  -58.080;  -70.960;    0.000;12.88000
 848.69;  -62.400;  -73.670;    0.000;11.27000
 848.94;  -60.340;  -69.750;    0.000; 9.41000
 849.19;  -70.040;  -80.480;    0.000;10.44000
 849.44;  -67.720;  -73.190;    0.000; 5.47000
 849.69;  -59.660;  -78.510;    0.000;18.85000
 849.94;  -77.520;  -72.940;    0.000;-4.57999
 850.19;  -56.000;  -63.930;    0.000; 7.93000
 850.44;  -58.980;  -76.610;    0.000;17.63000
 850.69;  -62.340;  -69.690;    0.000; 7.35000
 850.94;  -73.560;  -77.600;    0.000; 4.04000
 851.19;  -68.860;  -72.230;    0.000; 3.37000
 851.44;  -67.520;  -76.080;    0.000; 8.56001
 851.69;  -75.120;  -76.040;    0.000; 0.92000
 851.94;  -66.280;  -79.190;    0.000;12.91000
 852.19;  -68.360;  -76.300;    0.000; 7.94000
 852.44;  -60.940;  -74.760;    0.000;13.82000
 852.68;  -71.200;  -75.620;    0.000; 4.42001
 852.93;  -55.380;  -70.590;    0.000;15.21000
 853.18;  -69.160;  -77.250;    0.000; 8.09000
 853.43;  -62.640;  -76.120;    0.000;13.48000
 853.68;  -59.980;  -77.810;    0.000;17.83000
 853.93;  -62.240;  -67.550;    0.000; 5.31000
 854.18;  -57.080;  -66.630;    0.000; 9.55000
 854.43;  -53.260;  -77.970;    0.000;24.71000
 854.68;  -61.800;  -75.490;    0.000;13.69000
 854.93;  -50.380;  -66.450;    0.000;16.07000
 855.18;  -65.120;  -74.650;    0.000; 9.53000
 855.42;  -56.420;  -72.230;    0.000;15.81001
 855.67;  -64.880;  -71.310;    0.000; 6.43000
 855.92;  -64.060;  -74.510;    0.000;10.45000
 856.17;  -68.500;  -67.440;    0.000;-1.06000
 856.42;  -60.820;  -76.160;    0.000;15.34000
 856.67;  -61.520;  -77.970;    0.000;16.45000
 856.92;  -69.360;  -79.620;    0.000;10.26000
 857.17;  -71.320;  -77.870;    0.000; 6.55000
 857.41;  -67.520;  -71.030;    0.000; 3.51000
 857.66;  -64.800;  -73.290;    0.000; 8.49000
 857.91;  -59.560;  -73.290;    0.000;13.73000
 858.16;  -71.320;  -82.520;    0.000;11.20000
 858.41;  -61.200;  -72.320;    0.000;11.12000
 858.66;  -63.500;  -69.160;    0.000; 5.66000
 858.91;  -53.340;  -77.930;    0.000;24.59000
 859.15;  -67.920;  -76.870;    0.000; 8.95000
 859.40;  -40.340;  -68.270;    0.000;27.93000
 859.65;  -71.760;  -84.460;    0.000;12.70000
 859.90;  -69.860;  -79.390;    0.000; 9.53000
 860.15;  -70.080;  -69.890;    0.000;-0.19000
 860.40;  -47.320;  -69.890;    0.000;22.57000
 860.64;  -56.220;  -70.370;    0.000;14.15000
 860.89;  -65.840;  -74.750;    0.000; 8.91000
 861.14;  -67.540;  -70.090;    0.000; 2.55000
 861.39;  -60.720;  -69.870;    0.000; 9.15000
 861.64;  -65.760;  -75.520;    0.000; 9.75999
 861.88;  -51.680;  -72.380;    0.000;20.70000
 862.13;  -61.540;  -76.230;    0.000;14.69000
 862.38;  -64.200;  -72.450;    0.000; 8.25000
 862.63;  -71.140;  -74.260;    0.000; 3.12000
 862.88;  -67.340;  -69.530;    0.000; 2.19000
 863.12;  -57.320;  -67.960;    0.000;10.64000
 863.37;  -79.140;  -71.990;    0.000;-7.15000
 863.62;  -70.600;  -77.420;    0.000; 6.82000
 863.87;  -79.020;  -78.180;    0.000;-0.84000
 864.12;  -61.460;  -73.600;    0.000;12.14000
 864.36;  -64.440;  -69.580;    0.000; 5.14000
 864.61;  -66.400;  -73.260;    0.000; 6.86000
 864.86;  -74.100;  -78.780;    0.000; 4.68000
 865.11;  -52.540;  -68.440;    0.000;15.90000
 865.35;  -58.720;  -68.810;    0.000;10.09000
 865.60;  -56.540;  -71.930;    0.000;15.39000
 865.85;  -49.180;  -72.600;    0.000;23.42000
 866.10;  -66.560;  -75.090;    0.000; 8.53000
 866.34;  -58.580;  -74.150;    0.000;15.57000
 866.59;  -49.900;  -67.290;    0.000;17.39000
 866.84;  -68.920;  -74.630;    0.000; 5.71000
 867.09;  -58.960;  -80.380;    0.000;21.42000
 867.33;  -76.640;  -74.040;    0.000;-2.60000
 867.58;  -63.900;  -71.470;    0.000; 7.57000
 867.83;  -69.500;  -74.280;    0.000; 4.78000
 868.08;  -60.620;  -76.090;    0.000;15.47000
 868.32;  -68.180;  -68.010;    0.000;-0.17000
 868.57;  -65.160;  -81.500;    0.000;16.34000
 868.82;  -59.980;  -72.920;    0.000;12.94000
 869.07;  -78.100;  -81.160;    0.000; 3.06001
 869.31;  -61.320;  -69.490;    0.000; 8.17000
 869.56;  -71.920;  -84.440;    0.000;12.52000
 869.81;  -58.860;  -83.050;    0.000;24.19000
 870.05;  -84.300;  -79.990;    0.000;-4.31001
 870.30;  -63.300;  -76.070;    0.000;12.77000
 870.55;  -49.780;  -69.170;    0.000;19.39000
 870.80;  -52.860;  -74.860;    0.000;22.00000
 871.04;  -52.440;  -69.280;    0.000;16.84000
 871.29;  -58.620;  -73.970;    0.000;15.35000
 871.54;  -64.120;  -72.650;    0.000; 8.53000
 871.78;  -77.540;  -75.650;    0.000;-1.89000
 872.03;  -60.240;  -76.460;    0.000;16.22000
 872.28;  -62.540;  -75.610;    0.000;13.07000
 872.52;  -58.740;  -63.940;    0.000; 5.20000
 872.77;  -64.480;  -68.280;    0.000; 3.80000
 873.02;  -81.900;  -78.210;    0.000;-3.69000
 873.26;  -62.480;  -75.910;    0.000;13.43000
 873.51;  -54.300;  -67.060;    0.000;12.76000
 873.76;  -65.020;  -69.910;    0.000; 4.89001
 874.00;  -48.500;  -67.690;    0.000;19.19000
 874.25;  -69.300;  -75.800;    0.000; 6.50000
 874.50;  -59.960;  -80.100;    0.000;20.14000
 874.74;  -77.860;  -73.380;    0.000;-4.48000
 874.99;  -68.780;  -77.690;    0.000; 8.91000
 875.24;  -37.300;  -71.860;    0.000;34.56000
 875.48;  -68.580;  -75.510;    0.000; 6.93000
 875.73;  -60.880;  -71.020;    0.000;10.14000
 875.98;  -58.360;  -72.290;    0.000;13.93000
 876.22;  -56.900;  -74.020;    0.000;17.12000
 876.47;  -63.540;  -73.180;    0.000; 9.64000
 876.71;  -56.860;  -66.650;    0.000; 9.79000
 876.96;  -44.300;  -68.040;    0.000;23.74000
 877.21;  -66.000;  -80.560;    0.000;14.56000
 877.45;  -69.300;  -79.740;    0.000;10.43999
 877.70;  -51.560;  -68.150;    0.000;16.59000
 877.95;  -65.440;  -71.420;    0.000; 5.98000
 878.19;  -34.380;  -66.290;    0.000;31.91000
 878.44;  -53.360;  -73.630;    0.000;20.27000
 878.68;  -24.240;  -58.820;    0.000;34.58000
 878.93;  -44.700;  -67.350;    0.000;22.65000
 879.18;  -45.740;  -71.350;    0.000;25.61000
 879.42;  -40.940;  -70.170;    0.000;29.23000
 879.67;  -66.420;  -73.850;    0.000; 7.43000
 879.91;  -51.780;  -67.960;    0.000;16.18000
 880.16;  -44.420;  -78.060;    0.000;33.64000
 880.40;  -56.240;  -65.360;    0.000; 9.12000
 880.65;  -47.720;  -71.790;    0.000;24.07000
 880.90;  -49.560;  -69.720;    0.000;20.16000
 881.14;  -38.320;  -65.060;    0.000;26.74000
 881.39;  -57.420;  -72.620;    0.000;15.20000
 881.63;  -58.180;  -68.980;    0.000;10.80000
 881.88;  -43.500;  -70.790;    0.000;27.29000
 882.12;  -49.160;  -76.190;    0.000;27.03000
 882.37;  -41.360;  -72.930;    0.000;31.57000
 882.62;  -60.520;  -70.810;    0.000;10.29000
 882.86;  -63.320;  -75.020;    0.000;11.70000
 883.11;  -45.920;  -74.980;    0.000;29.06001
 883.35;  -45.920;  -71.230;    0.000;25.31001
 883.60;  -36.460;  -67.200;    0.000;30.74000
 883.84;  -48.160;  -73.170;    0.000;25.01000
 884.09;  -58.540;  -72.690;    0.000;14.15000
 884.33;  -49.160;  -71.050;    0.000;21.89000
 884.58;  -53.640;  -70.670;    0.000;17.03000
 884.82;  -53.180;  -73.840;    0.000;20.66000
 885.07;  -51.620;  -75.950;    0.000;24.33000
 885.31;  -48.920;  -74.400;    0.000;25.48000
 885.56;  -37.540;  -65.280;    0.000;27.74000
 885.80;  -44.860;  -79.420;    0.000;34.56000
 886.05;  -50.480;  -70.300;    0.000;19.82000
 886.29;  -38.140;  -61.930;    0.000;23.79000
 886.54;  -59.620;  -68.310;    0.000; 8.69000
 886.78;  -42.300;  -71.060;    0.000;28.76000
 887.03;  -41.040;  -67.810;    0.000;26.77000
 887.27;  -29.700;  -61.920;    0.000;32.22000
 887.52;  -45.720;  -70.160;    0.000;24.44000
 887.76;  -47.300;  -70.980;    0.000;23.68000
 888.01;  -47.080;  -70.270;    0.000;23.18999
 888.25;  -47.320;  -74.180;    0.000;26.86000
 888.50;  -38.620;  -70.460;    0.000;31.84000
 888.74;  -32.920;  -65.070;    0.000;32.15000
 888.99;  -46.600;  -75.410;    0.000;28.81001
 889.23;  -54.320;  -73.760;    0.000;19.44000
 889.48;  -55.360;  -67.050;    0.000;11.69000
 889.72;  -40.420;  -61.140;    0.000;20.72000
 889.97;  -33.620;  -67.890;    0.000;34.27000
 890.21;  -31.040;  -71.660;    0.000;40.62000
 890.46;  -35.520;  -67.310;    0.000;31.79000
 890.70;  -37.120;  -66.540;    0.000;29.42000
 890.94;  -37.620;  -66.690;    0.000;29.07000
 891.19;  -38.280;  -67.720;    0.000;29.44000
 891.43;  -31.780;  -60.230;    0.000;28.45000
 891.68;  -10.200;  -60.880;    0.000;50.68000
 891.92;  -30.540;  -66.740;    0.000;36.20000
 892.17;  -30.620;  -63.670;    0.000;33.05000
 892.41;  -30.880;  -64.550;    0.000;33.67000
 892.66;  -43.280;  -72.780;    0.000;29.50000
 892.90;   -1.240;  -53.850;    0.000;52.61000
 893.14;  -37.060;  -67.700;    0.000;30.64000
 893.39;  -28.120;  -61.520;    0.000;33.40000
 893.63;  -40.320;  -66.090;    0.000;25.77000
 893.88;  -33.060;  -64.750;    0.000;31.69000
 894.12;  -27.520;  -60.690;    0.000;33.17000
 894.36;  -17.660;  -52.460;    0.000;34.80000
 894.61;  -26.060;  -59.430;    0.000;33.37000
 894.85;  -21.620;  -59.970;    0.000;38.35000
 895.10;  -13.980;  -64.360;    0.000;50.38000
 895.34;  -37.840;  -59.380;    0.000;21.54000
 895.58;  -34.040;  -69.260;    0.000;35.22000
 895.83;  -21.280;  -62.800;    0.000;41.52000
 896.07;  -25.300;  -66.320;    0.000;41.02000
 896.32;  -18.040;  -58.720;    0.000;40.68000
 896.56;  -18.520;  -59.080;    0.000;40.56000
 896.80;  -32.360;  -64.120;    0.000;31.76000
 897.05;  -30.500;  -66.340;    0.000;35.84000
 897.29;  -12.680;  -51.230;    0.000;38.55000
 897.53;  -30.200;  -64.490;    0.000;34.29000
 897.78;  -18.580;  -59.400;    0.000;40.82000
 898.02;   -5.220;  -53.570;    0.000;48.35000
 898.26;  -18.800;  -63.930;    0.000;45.13000
 898.51;  -11.980;  -52.040;    0.000;40.06000
 898.75;  -17.500;  -56.010;    0.000;38.51000
 898.99;   -1.480;  -55.790;    0.000;54.31000
 899.24;   -2.940;  -49.180;    0.000;46.24000
 899.48;   -6.360;  -48.260;    0.000;41.90000
 899.73;  -10.720;  -54.040;    0.000;43.32000
 899.97;    5.160;  -42.750;    0.000;47.91000
 900.21;   10.360;  -44.210;    0.000;54.57000
 900.46;    9.560;  -41.230;    0.000;50.79000
 900.70;   21.400;  -40.060;    0.000;61.46000
 900.94;    6.540;  -49.340;    0.000;55.88000
 901.18;   19.760;  -43.690;    0.000;63.45000
 901.43;   25.100;  -40.290;    0.000;65.39000
 901.67;   17.820;  -38.410;    0.000;56.23000
 901.91;   22.840;  -29.050;    0.000;51.89000
 902.16;   27.560;  -39.250;    0.000;66.81000
 902.40;   50.300;  -35.010;    0.000;85.31000
 902.64;   47.180;  -28.700;    0.000;75.88000
 902.89;   39.720;  -28.120;    0.000;67.84000
 903.13;   54.380;  -20.830;    0.000;75.21000
 903.37;   76.060;  -22.230;    0.000;98.29000
 903.61;   85.780;   -7.810;    0.000;93.59000
 903.86;   81.960;   -9.670;    0.000;91.63000
 904.10;  111.100;   -7.290;    0.000;118.39000
 904.34;  115.040;    5.810;    0.000;109.23000
 904.59;  133.060;   17.270;    0.000;115.79000
 904.83;  156.660;   23.940;    0.000;132.72000
 905.07;  180.900;   39.780;    0.000;141.12000
 905.31;  187.500;   43.380;    0.000;144.12000
 905.56;  211.340;   56.080;    0.000;155.25999
 905.80;  264.120;   75.520;    0.000;188.60000

