p1
Integration time [ms]:  10.000
Averaging Nr. [scans]: 100
Smoothing Nr. [pixels]: 0
Data measured with spectrometer [name]: 1307078U2
Wave   ;Sample   ;Dark     ;Reference;Scope Corrected for Dark
[nm]   ;[counts] ;[counts] ;[counts] 

 351.07;   15.430;    0.420;    0.000;15.01000
 351.37;   16.930;    2.109;    0.000;14.82125
 351.66;   15.290;    2.484;    0.000;12.80625
 351.95;   10.800;    0.324;    0.000;10.47625
 352.24;   16.870;    1.910;    0.000;14.96000
 352.54;   18.680;    1.401;    0.000;17.27875
 352.83;    4.390;   -0.629;    0.000; 5.01875
 353.12;   26.890;    1.364;    0.000;25.52625
 353.42;    4.230;   -0.535;    0.000; 4.76500
 353.71;    8.410;    2.263;    0.000; 6.14750
 354.00;   23.980;    3.929;    0.000;20.05125
 354.30;   18.710;    1.025;    0.000;17.68500
 354.59;    7.750;   -0.266;    0.000; 8.01625
 354.88;   13.010;    5.190;    0.000; 7.82000
 355.17;    6.320;   -0.014;    0.000; 6.33375
 355.47;    4.140;    2.134;    0.000; 2.00625
 355.76;   12.220;    0.416;    0.000;11.80375
 356.05;   15.720;    1.192;    0.000;14.52750
 356.35;   16.270;    1.587;    0.000;14.68250
 356.64;   31.240;    1.753;    0.000;29.48750
 356.93;   21.320;    1.768;    0.000;19.55250
 357.22;   31.390;    1.366;    0.000;30.02375
 357.52;   -0.400;    3.320;    0.000;-3.72000
 357.81;   23.660;    1.643;    0.000;22.01750
 358.10;   11.450;   -0.600;    0.000;12.05000
 358.39;   29.130;    1.461;    0.000;27.66875
 358.69;    7.690;    1.997;    0.000; 5.69250
 358.98;    6.630;    0.317;    0.000; 6.31250
 359.27;    2.800;    1.446;    0.000; 1.35375
 359.57;   19.800;    2.324;    0.000;17.47625
 359.86;    9.280;   -0.700;    0.000; 9.98000
 360.15;   17.280;    1.474;    0.000;15.80625
 360.44;   10.760;   -0.946;    0.000;11.70625
 360.74;   19.300;    1.480;    0.000;17.82000
 361.03;   12.570;   -0.345;    0.000;12.91500
 361.32;   15.410;    2.919;    0.000;12.49125
 361.61;   13.780;    2.338;    0.000;11.44250
 361.91;   21.010;    2.645;    0.000;18.36500
 362.20;   11.440;    1.590;    0.000; 9.85000
 362.49;   15.820;    1.854;    0.000;13.96625
 362.78;   16.680;    0.435;    0.000;16.24500
 363.08;   16.220;    1.149;    0.000;15.07125
 363.37;   15.650;    0.004;    0.000;15.64625
 363.66;   23.280;    3.439;    0.000;19.84125
 363.95;   12.270;    2.359;    0.000; 9.91125
 364.24;   15.680;    2.213;    0.000;13.46750
 364.54;    9.450;   -0.068;    0.000; 9.51750
 364.83;   18.490;    2.066;    0.000;16.42375
 365.12;    2.180;   -0.624;    0.000; 2.80375
 365.41;   22.900;    3.152;    0.000;19.74750
 365.71;   15.320;    0.161;    0.000;15.15875
 366.00;    2.390;    1.484;    0.000; 0.90625
 366.29;    5.980;    0.876;    0.000; 5.10375
 366.58;   16.380;    2.200;    0.000;14.18000
 366.87;   26.230;    3.334;    0.000;22.89625
 367.17;   20.320;    4.057;    0.000;16.26250
 367.46;   10.120;    1.112;    0.000; 9.00750
 367.75;   17.610;    0.207;    0.000;17.40250
 368.04;    9.170;    2.296;    0.000; 6.87375
 368.34;   17.100;    3.155;    0.000;13.94500
 368.63;   10.200;    1.982;    0.000; 8.21750
 368.92;   20.780;    4.579;    0.000;16.20125
 369.21;   18.300;    0.301;    0.000;17.99875
 369.50;   26.780;    4.056;    0.000;22.72375
 369.80;   11.960;    3.011;    0.000; 8.94875
 370.09;   16.480;    2.666;    0.000;13.81375
 370.38;   17.760;    1.489;    0.000;16.27125
 370.67;    5.610;    2.949;    0.000; 2.66125
 370.96;   11.400;    1.915;    0.000; 9.48500
 371.26;   19.400;    3.515;    0.000;15.88500
 371.55;    6.050;   -0.750;    0.000; 6.80000
 371.84;   17.190;    1.237;    0.000;15.95250
 372.13;   11.120;    0.486;    0.000;10.63375
 372.42;   17.990;    4.290;    0.000;13.70000
 372.71;   11.370;    2.305;    0.000; 9.06500
 373.01;   15.980;    2.734;    0.000;13.24625
 373.30;    4.310;    0.909;    0.000; 3.40125
 373.59;   21.360;    4.401;    0.000;16.95875
 373.88;   17.270;    0.729;    0.000;16.54125
 374.17;   18.340;    5.426;    0.000;12.91375
 374.46;   16.340;    2.037;    0.000;14.30250
 374.76;   18.020;    3.602;    0.000;14.41750
 375.05;   23.000;    4.131;    0.000;18.86875
 375.34;   14.010;    4.778;    0.000; 9.23250
 375.63;   11.470;   -1.367;    0.000;12.83750
 375.92;   13.420;    1.354;    0.000;12.06625
 376.21;    9.030;    0.181;    0.000; 8.84875
 376.51;   12.280;    0.475;    0.000;11.80500
 376.80;   19.470;    3.346;    0.000;16.12375
 377.09;   11.550;    1.947;    0.000; 9.60250
 377.38;   11.530;    1.015;    0.000;10.51500
 377.67;   13.660;    2.574;    0.000;11.08625
 377.96;    9.070;    0.863;    0.000; 8.20750
 378.25;   20.410;    3.033;    0.000;17.37750
 378.55;   10.490;    1.080;    0.000; 9.41000
 378.84;   10.000;    4.383;    0.000; 5.61750
 379.13;   18.570;    1.696;    0.000;16.87375
 379.42;   13.340;    4.142;    0.000; 9.19750
 379.71;    3.970;    1.695;    0.000; 2.27500
 380.00;   29.270;    4.409;    0.000;24.86125
 380.29;   12.100;    0.924;    0.000;11.17625
 380.59;   14.030;    2.340;    0.000;11.69000
 380.88;    2.550;    1.253;    0.000; 1.29750
 381.17;   12.030;    2.536;    0.000; 9.49375
 381.46;   17.030;    2.259;    0.000;14.77125
 381.75;   13.030;    3.750;    0.000; 9.28000
 382.04;   15.660;    3.304;    0.000;12.35625
 382.33;   16.920;    1.438;    0.000;15.48250
 382.62;    1.310;    2.980;    0.000;-1.67000
 382.91;   20.470;    3.025;    0.000;17.44500
 383.21;   12.260;   -1.186;    0.000;13.44625
 383.50;   14.540;    1.279;    0.000;13.26125
 383.79;   19.960;    3.581;    0.000;16.37875
 384.08;   14.930;    1.620;    0.000;13.31000
 384.37;   11.950;    2.861;    0.000; 9.08875
 384.66;   14.300;    0.262;    0.000;14.03750
 384.95;    7.620;    1.033;    0.000; 6.58750
 385.24;   13.850;    0.772;    0.000;13.07750
 385.53;   -5.730;   -1.732;    0.000;-3.99750
 385.83;    6.530;    0.712;    0.000; 5.81750
 386.12;   15.980;    1.009;    0.000;14.97125
 386.41;   13.900;    2.080;    0.000;11.82000
 386.70;    7.070;    0.155;    0.000; 6.91500
 386.99;    9.580;    0.820;    0.000; 8.76000
 387.28;   25.470;    3.057;    0.000;22.41250
 387.57;   15.510;    2.020;    0.000;13.49000
 387.86;    7.270;    1.317;    0.000; 5.95250
 388.15;    9.620;    2.237;    0.000; 7.38250
 388.44;    0.520;    1.854;    0.000;-1.33375
 388.73;   15.510;    1.639;    0.000;13.87125
 389.02;    9.510;    1.174;    0.000; 8.33625
 389.31;    7.590;    3.336;    0.000; 4.25375
 389.61;    3.030;    1.742;    0.000; 1.28750
 389.90;   13.790;    2.181;    0.000;11.60875
 390.19;    8.560;    0.252;    0.000; 8.30750
 390.48;    7.250;    3.714;    0.000; 3.53625
 390.77;   15.300;    2.156;    0.000;13.14375
 391.06;   11.200;    0.019;    0.000;11.18125
 391.35;    6.780;    0.766;    0.000; 6.01375
 391.64;   20.060;    4.639;    0.000;15.42125
 391.93;   -1.900;    0.449;    0.000;-2.34875
 392.22;   14.290;    2.592;    0.000;11.69750
 392.51;   14.680;    1.247;    0.000;13.43250
 392.80;   20.630;    2.735;    0.000;17.89500
 393.09;    5.290;    1.086;    0.000; 4.20375
 393.38;   18.840;    0.229;    0.000;18.61125
 393.67;    5.840;    1.561;    0.000; 4.27875
 393.96;   13.520;    1.930;    0.000;11.59000
 394.25;   13.840;    0.956;    0.000;12.88375
 394.54;   10.670;    1.622;    0.000; 9.04750
 394.83;    8.640;    0.440;    0.000; 8.20000
 395.13;   13.440;    2.201;    0.000;11.23875
 395.42;   11.520;    2.457;    0.000; 9.06250
 395.71;   19.210;    4.305;    0.000;14.90500
 396.00;   13.610;    1.222;    0.000;12.38750
 396.29;    9.840;    1.178;    0.000; 8.66250
 396.58;   10.620;    0.967;    0.000; 9.65250
 396.87;   18.040;    1.986;    0.000;16.05375
 397.16;    5.580;    1.911;    0.000; 3.66875
 397.45;   14.820;    3.014;    0.000;11.80625
 397.74;    8.580;    2.689;    0.000; 5.89125
 398.03;   12.580;    2.170;    0.000;10.41000
 398.32;    3.850;    1.844;    0.000; 2.00625
 398.61;    9.390;    3.154;    0.000; 6.23625
 398.90;    4.430;    1.420;    0.000; 3.01000
 399.19;   23.830;    3.316;    0.000;20.51375
 399.48;    7.890;    0.412;    0.000; 7.47750
 399.77;   14.500;    1.786;    0.000;12.71375
 400.06;   19.120;    2.120;    0.000;17.00000
 400.35;   21.270;    3.961;    0.000;17.30875
 400.64;    8.850;    2.411;    0.000; 6.43875
 400.93;   10.370;    3.304;    0.000; 7.06625
 401.22;    5.310;    1.479;    0.000; 3.83125
 401.51;   12.440;    3.400;    0.000; 9.04000
 401.80;   10.340;    1.049;    0.000; 9.29125
 402.09;    6.170;    1.710;    0.000; 4.46000
 402.38;    8.920;    1.655;    0.000; 7.26500
 402.67;    2.760;    2.055;    0.000; 0.70500
 402.96;   17.680;    1.381;    0.000;16.29875
 403.25;   23.670;    4.099;    0.000;19.57125
 403.54;   11.510;    2.920;    0.000; 8.59000
 403.83;   15.080;    1.701;    0.000;13.37875
 404.12;    4.750;    4.244;    0.000; 0.50625
 404.41;   19.860;    7.259;    0.000;12.60125
 404.70;   14.320;    1.739;    0.000;12.58125
 404.98;   11.670;    3.635;    0.000; 8.03500
 405.27;    7.520;    2.116;    0.000; 5.40375
 405.56;   29.240;    5.247;    0.000;23.99250
 405.85;   11.290;    1.905;    0.000; 9.38500
 406.14;   18.910;    2.216;    0.000;16.69375
 406.43;    1.380;    0.695;    0.000; 0.68500
 406.72;    8.620;    1.689;    0.000; 6.93125
 407.01;    5.740;    2.034;    0.000; 3.70625
 407.30;    2.850;    2.056;    0.000; 0.79375
 407.59;   12.630;   -0.241;    0.000;12.87125
 407.88;   18.650;    1.026;    0.000;17.62375
 408.17;    3.060;    1.819;    0.000; 1.24125
 408.46;   25.180;    2.744;    0.000;22.43625
 408.75;   24.350;    2.339;    0.000;22.01125
 409.04;   12.040;    1.809;    0.000;10.23125
 409.33;    4.480;    1.810;    0.000; 2.67000
 409.62;   17.230;    3.089;    0.000;14.14125
 409.91;    2.520;    0.704;    0.000; 1.81625
 410.20;   17.680;    1.890;    0.000;15.79000
 410.48;   16.110;    1.309;    0.000;14.80125
 410.77;    2.770;    2.919;    0.000;-0.14875
 411.06;   12.290;   -0.224;    0.000;12.51375
 411.35;   22.960;    2.226;    0.000;20.73375
 411.64;   11.450;    2.741;    0.000; 8.70875
 411.93;    7.660;   -0.534;    0.000; 8.19375
 412.22;    8.890;    0.561;    0.000; 8.32875
 412.51;    3.350;    2.220;    0.000; 1.13000
 412.80;    6.010;    1.974;    0.000; 4.03625
 413.09;   11.050;    0.749;    0.000;10.30125
 413.38;   17.720;    3.604;    0.000;14.11625
 413.67;   17.390;    0.146;    0.000;17.24375
 413.96;   -2.620;   -0.986;    0.000;-1.63375
 414.24;   19.890;    2.872;    0.000;17.01750
 414.53;   15.140;    3.146;    0.000;11.99375
 414.82;   19.310;    2.290;    0.000;17.02000
 415.11;   16.290;    2.401;    0.000;13.88875
 415.40;   14.740;    0.995;    0.000;13.74500
 415.69;    4.610;    2.255;    0.000; 2.35500
 415.98;   12.480;    3.622;    0.000; 8.85750
 416.27;    5.150;    2.026;    0.000; 3.12375
 416.56;   18.720;    2.160;    0.000;16.56000
 416.84;    9.650;    1.849;    0.000; 7.80125
 417.13;   15.510;    1.085;    0.000;14.42500
 417.42;   23.720;    2.255;    0.000;21.46500
 417.71;   19.550;    0.942;    0.000;18.60750
 418.00;    0.150;   -0.894;    0.000; 1.04375
 418.29;   15.110;    2.760;    0.000;12.35000
 418.58;    5.260;    1.184;    0.000; 4.07625
 418.87;   12.920;    1.616;    0.000;11.30375
 419.15;   10.580;    1.469;    0.000; 9.11125
 419.44;   12.960;    1.505;    0.000;11.45500
 419.73;    9.800;   -0.203;    0.000;10.00250
 420.02;   14.500;    3.578;    0.000;10.92250
 420.31;    1.200;    0.189;    0.000; 1.01125
 420.60;   14.990;    0.344;    0.000;14.64625
 420.89;    0.780;    1.889;    0.000;-1.10875
 421.18;   18.870;    0.249;    0.000;18.62125
 421.46;   16.450;    1.220;    0.000;15.23000
 421.75;   20.540;    1.529;    0.000;19.01125
 422.04;    1.850;    1.446;    0.000; 0.40375
 422.33;   23.610;    1.941;    0.000;21.66875
 422.62;   10.520;    4.503;    0.000; 6.01750
 422.91;   13.150;    4.043;    0.000; 9.10750
 423.19;    0.800;    3.485;    0.000;-2.68500
 423.48;   18.000;    1.274;    0.000;16.72625
 423.77;    6.430;    2.696;    0.000; 3.73375
 424.06;    5.860;    3.234;    0.000; 2.62625
 424.35;    6.570;    0.522;    0.000; 6.04750
 424.64;   24.030;    3.535;    0.000;20.49500
 424.93;   -2.800;   -0.317;    0.000;-2.48250
 425.21;   13.850;    2.582;    0.000;11.26750
 425.50;    8.480;    3.263;    0.000; 5.21750
 425.79;   14.240;    2.591;    0.000;11.64875
 426.08;   13.010;    1.785;    0.000;11.22500
 426.37;   21.840;    1.579;    0.000;20.26125
 426.65;    3.590;    2.955;    0.000; 0.63500
 426.94;   10.330;    2.134;    0.000; 8.19625
 427.23;   14.890;    2.475;    0.000;12.41500
 427.52;   16.450;    0.715;    0.000;15.73500
 427.81;    2.070;   -0.177;    0.000; 2.24750
 428.10;   26.920;    2.043;    0.000;24.87750
 428.38;   -3.390;    0.154;    0.000;-3.54375
 428.67;   16.860;    2.436;    0.000;14.42375
 428.96;    0.610;    1.938;    0.000;-1.32750
 429.25;   18.900;    2.326;    0.000;16.57375
 429.54;   14.560;    2.418;    0.000;12.14250
 429.82;   22.740;    2.749;    0.000;19.99125
 430.11;   12.390;    0.755;    0.000;11.63500
 430.40;   16.380;    2.376;    0.000;14.00375
 430.69;   11.140;    2.435;    0.000; 8.70500
 430.98;    9.700;    3.626;    0.000; 6.07375
 431.26;   16.050;    4.383;    0.000;11.66750
 431.55;   27.440;    3.697;    0.000;23.74250
 431.84;   12.700;   -0.666;    0.000;13.36625
 432.13;   16.860;    0.749;    0.000;16.11125
 432.41;    2.510;    2.846;    0.000;-0.33625
 432.70;    9.960;    2.501;    0.000; 7.45875
 432.99;   16.620;    2.007;    0.000;14.61250
 433.28;   15.480;    4.089;    0.000;11.39125
 433.57;   20.120;    0.668;    0.000;19.45250
 433.85;   24.180;    0.570;    0.000;23.61000
 434.14;   10.430;    1.510;    0.000; 8.92000
 434.43;   24.750;    4.943;    0.000;19.80750
 434.72;    7.510;    1.523;    0.000; 5.98750
 435.00;   10.530;    4.381;    0.000; 6.14875
 435.29;   13.280;    3.159;    0.000;10.12125
 435.58;   19.770;    3.307;    0.000;16.46250
 435.87;   11.630;    0.380;    0.000;11.25000
 436.15;   13.550;    2.906;    0.000;10.64375
 436.44;    8.760;    2.568;    0.000; 6.19250
 436.73;   22.180;    4.294;    0.000;17.88625
 437.02;    6.670;    2.537;    0.000; 4.13250
 437.30;   15.530;    2.334;    0.000;13.19625
 437.59;    8.700;    2.810;    0.000; 5.89000
 437.88;   14.560;    5.700;    0.000; 8.86000
 438.17;   -3.410;   -0.534;    0.000;-2.87625
 438.45;   10.530;    3.159;    0.000; 7.37125
 438.74;   19.220;    0.505;    0.000;18.71500
 439.03;   25.860;    2.618;    0.000;23.24250
 439.32;    8.290;    3.250;    0.000; 5.04000
 439.60;   12.590;    0.890;    0.000;11.70000
 439.89;   15.170;    2.642;    0.000;12.52750
 440.18;   14.460;    2.490;    0.000;11.97000
 440.46;    3.260;    0.183;    0.000; 3.07750
 440.75;   27.730;    2.443;    0.000;25.28750
 441.04;   12.260;    0.079;    0.000;12.18125
 441.33;   18.620;    3.149;    0.000;15.47125
 441.61;   -1.040;    2.630;    0.000;-3.67000
 441.90;   28.280;    3.733;    0.000;24.54750
 442.19;    7.050;   -0.200;    0.000; 7.25000
 442.47;   10.190;    3.862;    0.000; 6.32750
 442.76;    6.920;    2.916;    0.000; 4.00375
 443.05;   15.930;    2.666;    0.000;13.26375
 443.34;   11.390;    2.057;    0.000; 9.33250
 443.62;   26.730;    1.426;    0.000;25.30375
 443.91;    4.770;    0.027;    0.000; 4.74250
 444.20;   26.490;    6.335;    0.000;20.15500
 444.48;   -0.270;    1.109;    0.000;-1.37875
 444.77;   29.550;    4.639;    0.000;24.91125
 445.06;    6.690;    1.806;    0.000; 4.88375
 445.34;   19.770;    0.406;    0.000;19.36375
 445.63;    5.430;    0.630;    0.000; 4.80000
 445.92;   38.130;    1.935;    0.000;36.19500
 446.21;   13.540;    3.364;    0.000;10.17625
 446.49;   10.670;    2.110;    0.000; 8.56000
 446.78;   20.920;    2.021;    0.000;18.89875
 447.07;   15.640;    0.465;    0.000;15.17500
 447.35;   -1.430;    0.983;    0.000;-2.41250
 447.64;   18.460;    3.451;    0.000;15.00875
 447.93;   11.280;    1.934;    0.000; 9.34625
 448.21;   13.980;    1.536;    0.000;12.44375
 448.50;    8.620;    1.910;    0.000; 6.71000
 448.79;    7.990;    1.992;    0.000; 5.99750
 449.07;   17.450;    3.325;    0.000;14.12500
 449.36;    4.760;    1.426;    0.000; 3.33375
 449.65;   13.890;    0.134;    0.000;13.75625
 449.93;   15.030;    3.255;    0.000;11.77500
 450.22;   11.590;    1.070;    0.000;10.52000
 450.51;    7.400;    3.435;    0.000; 3.96500
 450.79;   11.750;    2.901;    0.000; 8.84875
 451.08;   10.780;    2.376;    0.000; 8.40375
 451.36;   12.430;   -0.282;    0.000;12.71250
 451.65;   13.040;    4.582;    0.000; 8.45750
 451.94;   -1.510;    2.245;    0.000;-3.75500
 452.22;    8.100;    1.971;    0.000; 6.12875
 452.51;    3.900;    2.864;    0.000; 1.03625
 452.80;   11.720;    0.808;    0.000;10.91250
 453.08;    6.660;    3.300;    0.000; 3.36000
 453.37;   20.460;    5.216;    0.000;15.24375
 453.66;   11.450;    1.974;    0.000; 9.47625
 453.94;   18.040;    2.578;    0.000;15.46250
 454.23;    0.430;    0.707;    0.000;-0.27750
 454.51;   11.550;    5.106;    0.000; 6.44375
 454.80;    4.110;    1.065;    0.000; 3.04500
 455.09;    9.530;    3.789;    0.000; 5.74125
 455.37;   15.820;    2.000;    0.000;13.82000
 455.66;    9.440;    0.929;    0.000; 8.51125
 455.95;   17.450;    2.487;    0.000;14.96250
 456.23;   15.020;    1.810;    0.000;13.21000
 456.52;    8.200;   -1.785;    0.000; 9.98500
 456.80;   12.150;    1.676;    0.000;10.47375
 457.09;   11.050;    0.610;    0.000;10.44000
 457.38;   26.430;    2.624;    0.000;23.80625
 457.66;   11.320;    2.954;    0.000; 8.36625
 457.95;   16.490;    2.106;    0.000;14.38375
 458.23;    8.620;   -0.848;    0.000; 9.46750
 458.52;   28.210;    3.451;    0.000;24.75875
 458.81;   -5.610;    4.972;    0.000;-10.58250
 459.09;   19.530;    4.175;    0.000;15.35500
 459.38;    3.530;    0.647;    0.000; 2.88250
 459.66;   11.240;    2.150;    0.000; 9.09000
 459.95;   13.580;    3.480;    0.000;10.10000
 460.23;   19.260;    1.835;    0.000;17.42500
 460.52;    7.540;   -0.050;    0.000; 7.59000
 460.81;    2.700;    3.735;    0.000;-1.03500
 461.09;   10.780;    2.649;    0.000; 8.13125
 461.38;   20.360;    0.196;    0.000;20.16375
 461.66;   -3.340;    2.040;    0.000;-5.38000
 461.95;    6.410;    2.691;    0.000; 3.71875
 462.23;    7.270;    2.905;    0.000; 4.36500
 462.52;   11.040;    1.970;    0.000; 9.07000
 462.81;    8.690;    1.775;    0.000; 6.91500
 463.09;   18.560;    2.996;    0.000;15.56375
 463.38;    2.460;    3.536;    0.000;-1.07625
 463.66;   15.370;    2.416;    0.000;12.95375
 463.95;   14.560;    0.976;    0.000;13.58375
 464.23;   20.940;    3.136;    0.000;17.80375
 464.52;   18.240;    0.415;    0.000;17.82500
 464.80;    6.890;    2.267;    0.000; 4.62250
 465.09;   14.730;    4.450;    0.000;10.28000
 465.38;   18.730;    2.135;    0.000;16.59500
 465.66;    9.690;    3.092;    0.000; 6.59750
 465.95;   13.530;    3.005;    0.000;10.52500
 466.23;    4.320;    1.654;    0.000; 2.66625
 466.52;   10.170;    2.730;    0.000; 7.44000
 466.80;   31.470;    4.429;    0.000;27.04125
 467.09;   12.500;    2.030;    0.000;10.47000
 467.37;    8.810;    2.378;    0.000; 6.43250
 467.66;   11.860;    4.521;    0.000; 7.33875
 467.94;   11.350;    1.929;    0.000; 9.42125
 468.23;    7.590;    1.577;    0.000; 6.01250
 468.51;   18.340;    3.882;    0.000;14.45750
 468.80;    2.720;    3.013;    0.000;-0.29250
 469.08;   12.150;    2.563;    0.000; 9.58750
 469.37;   25.630;    3.146;    0.000;22.48375
 469.66;   18.370;    1.077;    0.000;17.29250
 469.94;   11.100;    0.594;    0.000;10.50625
 470.23;   15.350;    0.586;    0.000;14.76375
 470.51;   16.620;    2.723;    0.000;13.89750
 470.80;   26.760;    2.582;    0.000;24.17750
 471.08;   15.930;    3.061;    0.000;12.86875
 471.37;   19.860;    2.378;    0.000;17.48250
 471.65;   28.190;    3.132;    0.000;25.05750
 471.94;   -3.670;    0.899;    0.000;-4.56875
 472.22;    5.280;    1.457;    0.000; 3.82250
 472.51;   11.340;    1.730;    0.000; 9.61000
 472.79;    7.480;    3.695;    0.000; 3.78500
 473.08;   12.030;    0.592;    0.000;11.43750
 473.36;   22.240;    3.221;    0.000;19.01875
 473.64;    5.570;    1.619;    0.000; 3.95125
 473.93;   15.750;    3.253;    0.000;12.49750
 474.21;   13.420;    2.713;    0.000;10.70750
 474.50;   15.060;    4.048;    0.000;11.01250
 474.78;   26.090;    2.095;    0.000;23.99500
 475.07;   17.490;    0.941;    0.000;16.54875
 475.35;   15.690;    3.199;    0.000;12.49125
 475.64;   14.010;    2.451;    0.000;11.55875
 475.92;   13.600;    1.299;    0.000;12.30125
 476.21;   20.410;    0.804;    0.000;19.60625
 476.49;    8.310;    2.276;    0.000; 6.03375
 476.78;   17.810;    2.287;    0.000;15.52250
 477.06;   20.250;    2.473;    0.000;17.77750
 477.35;   22.800;    3.790;    0.000;19.01000
 477.63;    9.030;    1.086;    0.000; 7.94375
 477.91;   11.650;    1.760;    0.000; 9.89000
 478.20;   12.290;    1.059;    0.000;11.23125
 478.48;   14.780;    0.538;    0.000;14.24250
 478.77;   18.760;    3.499;    0.000;15.26125
 479.05;   21.850;    3.216;    0.000;18.63375
 479.34;   24.420;    0.761;    0.000;23.65875
 479.62;   14.920;    3.401;    0.000;11.51875
 479.91;   20.000;   -0.785;    0.000;20.78500
 480.19;   30.920;    2.868;    0.000;28.05250
 480.47;    1.690;    0.215;    0.000; 1.47500
 480.76;   22.130;    5.134;    0.000;16.99625
 481.04;   14.330;    2.594;    0.000;11.73625
 481.33;   29.790;    5.226;    0.000;24.56375
 481.61;   13.540;    0.775;    0.000;12.76500
 481.90;   20.880;    3.454;    0.000;17.42625
 482.18;   20.000;    1.354;    0.000;18.64625
 482.46;   25.420;    2.395;    0.000;23.02500
 482.75;   20.350;    3.819;    0.000;16.53125
 483.03;   24.790;    1.339;    0.000;23.45125
 483.32;   16.810;   -0.608;    0.000;17.41750
 483.60;   25.190;    2.681;    0.000;22.50875
 483.88;   20.610;    3.960;    0.000;16.65000
 484.17;   23.560;    1.490;    0.000;22.07000
 484.45;   24.240;    0.410;    0.000;23.83000
 484.74;   38.270;    2.251;    0.000;36.01875
 485.02;   33.600;    2.283;    0.000;31.31750
 485.30;   37.860;    1.720;    0.000;36.14000
 485.59;   30.390;    0.525;    0.000;29.86500
 485.87;   47.100;    1.050;    0.000;46.05000
 486.16;   33.620;    1.403;    0.000;32.21750
 486.44;   36.820;    2.604;    0.000;34.21625
 486.72;   29.900;    1.150;    0.000;28.75000
 487.01;   34.570;    3.671;    0.000;30.89875
 487.29;   39.340;    0.510;    0.000;38.83000
 487.58;   55.000;    5.654;    0.000;49.34625
 487.86;   42.720;    3.342;    0.000;39.37750
 488.14;   49.330;    3.932;    0.000;45.39750
 488.43;   60.100;    0.979;    0.000;59.12125
 488.71;   60.360;    0.730;    0.000;59.63000
 488.99;   51.680;    1.616;    0.000;50.06375
 489.28;   60.710;    0.715;    0.000;59.99500
 489.56;   68.860;    1.239;    0.000;67.62125
 489.85;   69.280;    2.350;    0.000;66.93000
 490.13;   81.710;    2.057;    0.000;79.65250
 490.41;   85.390;    4.855;    0.000;80.53500
 490.70;   86.680;    2.358;    0.000;84.32250
 490.98;  102.240;    1.931;    0.000;100.30875
 491.26;  114.010;   -0.796;    0.000;114.80625
 491.55;  129.020;    2.747;    0.000;126.27250
 491.83;  151.150;    2.797;    0.000;148.35249
 492.11;  157.080;    0.218;    0.000;156.86250
 492.40;  170.630;    1.774;    0.000;168.85625
 492.68;  197.570;    3.876;    0.000;193.69376
 492.96;  209.710;    2.506;    0.000;207.20376
 493.25;  235.290;    3.009;    0.000;232.28124
 493.53;  255.590;    1.435;    0.000;254.15500
 493.81;  289.280;    3.051;    0.000;286.22875
 494.10;  312.140;    2.372;    0.000;309.76751
 494.38;  373.250;    0.340;    0.000;372.91000
 494.66;  384.670;   -0.239;    0.000;384.90876
 494.95;  434.620;    2.470;    0.000;432.15000
 495.23;  471.460;    3.210;    0.000;468.24999
 495.51;  515.350;    4.576;    0.000;510.77373
 495.80;  556.470;    2.500;    0.000;553.96997
 496.08;  614.200;    4.334;    0.000;609.86626
 496.36;  679.070;    2.381;    0.000;676.68876
 496.65;  729.170;    0.871;    0.000;728.29873
 496.93;  791.070;    2.741;    0.000;788.32876
 497.21;  866.370;    0.571;    0.000;865.79875
 497.50;  939.730;    3.068;    0.000;936.66248
 497.78; 1021.120;    1.405;    0.000;1019.71500
 498.06; 1082.400;    0.853;    0.000;1081.54752
 498.34; 1183.570;    2.364;    0.000;1181.20620
 498.63; 1262.440;    3.320;    0.000;1259.11994
 498.91; 1378.360;    4.931;    0.000;1373.42874
 499.19; 1465.820;    1.158;    0.000;1464.66245
 499.48; 1566.300;    2.360;    0.000;1563.94005
 499.76; 1682.690;    3.057;    0.000;1679.63244
 500.04; 1793.430;    4.120;    0.000;1789.31005
 500.32; 1925.940;    3.015;    0.000;1922.92494
 500.61; 2043.340;    2.210;    0.000;2041.12997
 500.89; 2164.000;    2.584;    0.000;2161.41625
 501.17; 2287.020;    1.663;    0.000;2285.35752
 501.46; 2449.560;    3.491;    0.000;2446.06881
 501.74; 2604.820;    4.365;    0.000;2600.45507
 502.02; 2762.420;    3.974;    0.000;2758.44617
 502.30; 2917.160;    3.686;    0.000;2913.47366
 502.59; 3062.910;    3.149;    0.000;3059.76116
 502.87; 3222.360;    2.419;    0.000;3219.94136
 503.15; 3398.580;    3.114;    0.000;3395.46633
 503.43; 3598.420;    1.428;    0.000;3596.99242
 503.72; 3792.250;    1.790;    0.000;3790.46000
 504.00; 3995.030;    1.394;    0.000;3993.63628
 504.28; 4169.060;    2.723;    0.000;4166.33756
 504.56; 4398.280;    3.711;    0.000;4394.56854
 504.85; 4606.590;    1.084;    0.000;4605.50609
 505.13; 4812.080;    3.199;    0.000;4808.88133
 505.41; 5028.700;    1.260;    0.000;5027.44020
 505.69; 5243.760;    4.202;    0.000;5239.55727
 505.98; 5472.940;    2.303;    0.000;5470.63744
 506.26; 5714.790;    2.465;    0.000;5712.32504
 506.54; 5940.230;    1.691;    0.000;5938.53873
 506.82; 6193.890;    1.630;    0.000;6192.26014
 507.11; 6446.540;    2.685;    0.000;6443.85504
 507.39; 6707.200;    2.963;    0.000;6704.23770
 507.67; 6953.470;    2.545;    0.000;6950.92521
 507.95; 7208.960;    4.004;    0.000;7204.95621
 508.23; 7483.970;    1.665;    0.000;7482.30521
 508.52; 7734.580;    4.427;    0.000;7730.15258
 508.80; 7992.540;    2.648;    0.000;7989.89254
 509.08; 8297.240;    3.473;    0.000;8293.76773
 509.36; 8601.850;    0.114;    0.000;8601.73586
 509.65; 8835.730;    2.144;    0.000;8833.58672
 509.93; 9134.180;    1.548;    0.000;9132.63219
 510.21; 9444.810;    1.577;    0.000;9443.23207
 510.49; 9682.890;    2.626;    0.000;9680.26340
 510.77;10010.610;    2.529;    0.000;10008.08160
 511.06;10330.310;    1.059;    0.000;10329.25082
 511.34;10605.660;    1.541;    0.000;10604.11891
 511.62;10930.970;   -1.497;    0.000;10932.46723
 511.90;11176.370;    3.204;    0.000;11173.16637
 512.18;11478.770;    1.067;    0.000;11477.70203
 512.47;11861.590;    5.470;    0.000;11856.11984
 512.75;12089.720;    1.100;    0.000;12088.61973
 513.03;12448.970;    4.050;    0.000;12444.91973
 513.31;12755.680;    1.416;    0.000;12754.26344
 513.59;13090.270;    3.094;    0.000;13087.17578
 513.87;13314.890;    1.499;    0.000;13313.39090
 514.16;13683.460;    3.134;    0.000;13680.32621
 514.44;13970.540;    1.394;    0.000;13969.14629
 514.72;14262.890;    3.402;    0.000;14259.48715
 515.00;14623.270;    2.842;    0.000;14620.42703
 515.28;14941.510;    3.527;    0.000;14937.98227
 515.56;15208.960;    2.730;    0.000;15206.22996
 515.85;15508.090;    0.644;    0.000;15507.44609
 516.13;15854.970;    2.204;    0.000;15852.76598
 516.41;16144.780;    1.971;    0.000;16142.80902
 516.69;16444.029;    3.354;    0.000;16440.67555
 516.97;16754.830;    4.766;    0.000;16750.06383
 517.25;17040.150;    2.075;    0.000;17038.07539
 517.54;17333.391;    4.198;    0.000;17329.19312
 517.82;17621.109;    2.642;    0.000;17618.46688
 518.10;17938.881;    1.928;    0.000;17936.95336
 518.38;18200.900;    3.320;    0.000;18197.58039
 518.66;18496.480;    3.017;    0.000;18493.46297
 518.94;18773.240;   -0.038;    0.000;18773.27773
 519.22;19090.580;    3.063;    0.000;19087.51758
 519.51;19370.699;    0.155;    0.000;19370.54422
 519.79;19597.891;   -0.216;    0.000;19598.10688
 520.07;19889.270;    3.670;    0.000;19885.59953
 520.35;20172.000;    3.328;    0.000;20168.67250
 520.63;20467.020;    2.414;    0.000;20464.60578
 520.91;20687.520;    0.201;    0.000;20687.31828
 521.19;20958.340;    3.025;    0.000;20955.31484
 521.47;21166.650;    1.909;    0.000;21164.74164
 521.75;21490.859;    2.081;    0.000;21488.77813
 522.04;21741.881;    2.229;    0.000;21739.65211
 522.32;21976.789;    0.170;    0.000;21976.61906
 522.60;22265.561;    3.899;    0.000;22261.66180
 522.88;22442.029;    3.216;    0.000;22438.81305
 523.16;22714.301;    2.065;    0.000;22712.23578
 523.44;22942.760;    2.495;    0.000;22940.26477
 523.72;23206.619;    3.304;    0.000;23203.31539
 524.00;23406.430;    2.655;    0.000;23403.77469
 524.28;23637.189;    2.943;    0.000;23634.24695
 524.57;23860.980;    2.586;    0.000;23858.39422
 524.85;24077.990;    4.845;    0.000;24073.14523
 525.13;24231.350;    4.231;    0.000;24227.11836
 525.41;24531.119;    1.692;    0.000;24529.42664
 525.69;24713.369;    1.334;    0.000;24712.03539
 525.97;24943.990;    4.061;    0.000;24939.92898
 526.25;25045.600;    0.954;    0.000;25044.64586
 526.53;25326.881;    4.273;    0.000;25322.60836
 526.81;25540.400;    0.319;    0.000;25540.08164
 527.09;25714.430;    1.679;    0.000;25712.75094
 527.37;25844.770;    0.134;    0.000;25844.63578
 527.65;26140.689;    3.938;    0.000;26136.75195
 527.93;26264.391;    1.886;    0.000;26262.50437
 528.22;26491.881;    3.976;    0.000;26487.90461
 528.50;26665.410;    1.497;    0.000;26663.91266
 528.78;26826.699;    4.605;    0.000;26822.09422
 529.06;27002.600;    3.001;    0.000;26999.59836
 529.34;27172.270;    3.697;    0.000;27168.57203
 529.62;27384.490;    2.995;    0.000;27381.49523
 529.90;27515.131;    2.693;    0.000;27512.43836
 530.18;27680.740;    0.646;    0.000;27680.09398
 530.46;27889.590;    3.618;    0.000;27885.97234
 530.74;27994.730;    4.294;    0.000;27990.43672
 531.02;28214.141;    2.640;    0.000;28211.50062
 531.30;28397.189;    0.880;    0.000;28396.30945
 531.58;28413.980;    3.714;    0.000;28410.26672
 531.86;28608.990;    2.035;    0.000;28606.95523
 532.14;28810.240;    4.215;    0.000;28806.02523
 532.42;28878.430;    2.910;    0.000;28875.51969
 532.70;29097.930;    3.036;    0.000;29094.89344
 532.98;29233.980;    0.534;    0.000;29233.44672
 533.26;29390.490;    2.263;    0.000;29388.22773
 533.54;29523.119;    1.962;    0.000;29521.15664
 533.82;29583.070;    4.854;    0.000;29578.21656
 534.10;29787.369;    3.501;    0.000;29783.86789
 534.38;29875.869;    0.683;    0.000;29875.18664
 534.66;29990.510;    4.026;    0.000;29986.48352
 534.94;30146.971;    2.694;    0.000;30144.27695
 535.22;30246.850;    2.501;    0.000;30244.34836
 535.50;30323.180;    1.347;    0.000;30321.83219
 535.78;30466.840;    4.506;    0.000;30462.33359
 536.06;30618.051;    5.009;    0.000;30613.04203
 536.34;30727.359;    2.092;    0.000;30725.26688
 536.62;30766.561;    3.473;    0.000;30763.08805
 536.90;30950.391;    4.017;    0.000;30946.37313
 537.18;31124.641;    2.636;    0.000;31122.00437
 537.46;31151.330;    0.501;    0.000;31150.82883
 537.74;31305.250;    3.977;    0.000;31301.27250
 538.02;31426.840;    5.509;    0.000;31421.33109
 538.30;31516.850;    5.718;    0.000;31511.13211
 538.58;31604.900;    2.925;    0.000;31601.97539
 538.86;31778.619;    4.149;    0.000;31774.47039
 539.14;31871.311;    3.205;    0.000;31868.10555
 539.42;31938.680;    5.500;    0.000;31933.17969
 539.70;32034.939;    1.393;    0.000;32033.54695
 539.98;32086.730;    2.892;    0.000;32083.83797
 540.26;32217.910;    1.592;    0.000;32216.31766
 540.54;32324.270;    4.443;    0.000;32319.82703
 540.82;32387.490;    1.806;    0.000;32385.68398
 541.10;32535.199;    4.010;    0.000;32531.18922
 541.38;32561.051;    2.525;    0.000;32558.52578
 541.66;32626.131;    4.036;    0.000;32622.09461
 541.94;32747.660;    5.741;    0.000;32741.91891
 542.22;32860.680;    6.370;    0.000;32854.30969
 542.50;32965.691;    2.181;    0.000;32963.51016
 542.78;33060.820;    3.706;    0.000;33057.11406
 543.06;33102.910;    1.092;    0.000;33101.81766
 543.34;33170.578;    4.554;    0.000;33166.02437
 543.62;33190.801;    1.795;    0.000;33189.00578
 543.90;33250.762;    2.027;    0.000;33248.73422
 544.17;33366.512;    2.539;    0.000;33363.97297
 544.45;33432.559;    5.716;    0.000;33426.84234
 544.73;33517.500;    3.084;    0.000;33514.41625
 545.01;33643.301;    3.473;    0.000;33639.82828
 545.29;33699.051;    4.139;    0.000;33694.91203
 545.57;33751.141;    5.057;    0.000;33746.08313
 545.85;33815.488;    3.080;    0.000;33812.40828
 546.13;33828.078;    3.045;    0.000;33825.03312
 546.41;33911.762;    5.004;    0.000;33906.75797
 546.69;33963.391;    5.885;    0.000;33957.50562
 546.97;33986.488;    3.510;    0.000;33982.97828
 547.25;34075.191;    5.443;    0.000;34069.74891
 547.52;34117.328;    6.606;    0.000;34110.72188
 547.80;34077.922;    4.670;    0.000;34073.25187
 548.08;34202.672;    2.263;    0.000;34200.40937
 548.36;34272.629;    4.355;    0.000;34268.27391
 548.64;34296.230;    4.756;    0.000;34291.47422
 548.92;34283.898;    3.705;    0.000;34280.19344
 549.20;34414.422;    3.259;    0.000;34411.16313
 549.48;34442.449;    4.170;    0.000;34438.27922
 549.76;34483.629;    4.735;    0.000;34478.89391
 550.04;34540.988;    5.597;    0.000;34535.39078
 550.31;34586.020;    1.956;    0.000;34584.06328
 550.59;34525.980;    3.471;    0.000;34522.50922
 550.87;34557.770;    2.305;    0.000;34555.46453
 551.15;34629.250;    5.196;    0.000;34624.05375
 551.43;34611.219;    2.901;    0.000;34608.31750
 551.71;34637.621;    4.271;    0.000;34633.34984
 551.99;34620.141;    2.554;    0.000;34617.58687
 552.27;34674.891;    4.544;    0.000;34670.34688
 552.54;34627.570;    3.098;    0.000;34624.47281
 552.82;34715.020;    2.580;    0.000;34712.43953
 553.10;34761.121;    3.609;    0.000;34757.51234
 553.38;34786.328;    5.986;    0.000;34780.34188
 553.66;34755.012;    4.290;    0.000;34750.72172
 553.94;34792.629;    0.865;    0.000;34791.76391
 554.22;34810.270;    4.026;    0.000;34806.24328
 554.49;34823.059;    1.909;    0.000;34821.14984
 554.77;34907.301;    3.175;    0.000;34904.12578
 555.05;34858.988;    4.770;    0.000;34854.21828
 555.33;34779.238;    3.230;    0.000;34776.00828
 555.61;34773.078;    3.481;    0.000;34769.59687
 555.89;34806.441;    0.751;    0.000;34805.69016
 556.16;34858.270;    1.086;    0.000;34857.18328
 556.44;34766.262;    1.997;    0.000;34764.26422
 556.72;34833.289;    5.874;    0.000;34827.41531
 557.00;34847.090;    2.216;    0.000;34844.87359
 557.28;34833.270;    2.520;    0.000;34830.74953
 557.56;34805.352;    1.341;    0.000;34804.01031
 557.83;34808.488;    6.726;    0.000;34801.76203
 558.11;34778.320;    6.404;    0.000;34771.91656
 558.39;34814.488;    2.997;    0.000;34811.49078
 558.67;34794.719;    1.645;    0.000;34793.07375
 558.95;34775.578;    1.871;    0.000;34773.70687
 559.23;34717.398;    3.966;    0.000;34713.43219
 559.50;34670.441;    3.114;    0.000;34667.32766
 559.78;34684.160;    2.484;    0.000;34681.67641
 560.06;34718.570;    3.674;    0.000;34714.89656
 560.34;34700.012;    4.381;    0.000;34695.63047
 560.62;34685.852;    5.099;    0.000;34680.75281
 560.89;34589.641;    3.236;    0.000;34586.40438
 561.17;34553.461;    3.039;    0.000;34550.42219
 561.45;34520.309;    6.720;    0.000;34513.58859
 561.73;34404.078;    3.614;    0.000;34400.46438
 562.00;34487.922;    1.837;    0.000;34486.08438
 562.28;34413.828;    4.736;    0.000;34409.09188
 562.56;34405.750;    3.688;    0.000;34402.06250
 562.84;34391.512;    5.670;    0.000;34385.84172
 563.12;34312.809;    1.199;    0.000;34311.60984
 563.39;34290.051;    2.850;    0.000;34287.20078
 563.67;34190.691;    4.331;    0.000;34186.36016
 563.95;34179.879;    3.725;    0.000;34176.15391
 564.23;34136.641;    0.817;    0.000;34135.82313
 564.50;34034.180;    3.756;    0.000;34030.42344
 564.78;34025.781;    4.778;    0.000;34021.00375
 565.06;33945.961;    4.095;    0.000;33941.86594
 565.34;33897.102;    3.490;    0.000;33893.61156
 565.61;33985.680;    3.579;    0.000;33982.10094
 565.89;33797.930;    4.356;    0.000;33793.57344
 566.17;33792.309;    1.107;    0.000;33791.20109
 566.45;33725.281;    3.446;    0.000;33721.83500
 566.73;33657.469;    4.733;    0.000;33652.73625
 567.00;33558.500;    2.011;    0.000;33556.48875
 567.28;33532.469;    4.403;    0.000;33528.06625
 567.56;33488.750;    4.230;    0.000;33484.52000
 567.83;33453.520;    4.820;    0.000;33448.69953
 568.11;33267.828;    4.360;    0.000;33263.46812
 568.39;33248.000;    3.311;    0.000;33244.68875
 568.67;33156.820;    4.975;    0.000;33151.84531
 568.94;33182.969;    4.472;    0.000;33178.49625
 569.22;33066.070;    2.889;    0.000;33063.18156
 569.50;33020.078;    2.293;    0.000;33017.78562
 569.78;32934.172;    0.215;    0.000;32933.95687
 570.05;32841.691;    2.606;    0.000;32839.08516
 570.33;32711.619;    2.001;    0.000;32709.61789
 570.61;32677.770;    5.050;    0.000;32672.71953
 570.88;32600.971;    1.764;    0.000;32599.20695
 571.16;32489.039;    2.787;    0.000;32486.25156
 571.44;32333.369;    0.548;    0.000;32332.82164
 571.72;32317.539;    2.101;    0.000;32315.43781
 571.99;32252.439;    2.487;    0.000;32249.95195
 572.27;32183.350;    2.940;    0.000;32180.40961
 572.55;32015.750;    2.769;    0.000;32012.98125
 572.82;31957.260;    3.071;    0.000;31954.18852
 573.10;31881.760;    4.463;    0.000;31877.29727
 573.38;31805.010;    4.084;    0.000;31800.92602
 573.65;31696.070;    4.691;    0.000;31691.37906
 573.93;31507.480;    2.601;    0.000;31504.87922
 574.21;31472.730;    2.024;    0.000;31470.70672
 574.48;31340.551;    4.831;    0.000;31335.71953
 574.76;31267.949;    4.536;    0.000;31263.41297
 575.04;31196.020;    5.972;    0.000;31190.04703
 575.32;31004.080;    0.036;    0.000;31004.04383
 575.59;30926.760;    5.807;    0.000;30920.95227
 575.87;30805.070;    3.089;    0.000;30801.98156
 576.15;30765.520;    4.832;    0.000;30760.68703
 576.42;30680.350;    1.260;    0.000;30679.08961
 576.70;30458.080;    2.868;    0.000;30455.21258
 576.98;30428.949;    4.479;    0.000;30424.47047
 577.25;30341.240;    3.994;    0.000;30337.24648
 577.53;30193.170;    2.311;    0.000;30190.85867
 577.80;30046.250;    4.555;    0.000;30041.69500
 578.08;29902.410;    1.016;    0.000;29901.39391
 578.36;29819.721;    3.935;    0.000;29815.78570
 578.63;29725.760;    2.959;    0.000;29722.80102
 578.91;29588.381;    3.149;    0.000;29585.23211
 579.19;29451.461;    3.899;    0.000;29447.56219
 579.46;29433.641;    3.882;    0.000;29429.75813
 579.74;29217.100;    0.826;    0.000;29216.27336
 580.02;29100.080;    0.681;    0.000;29099.39883
 580.29;29066.930;    3.734;    0.000;29063.19594
 580.57;28946.699;    2.340;    0.000;28944.35922
 580.84;28766.980;    1.306;    0.000;28765.67422
 581.12;28656.770;    4.154;    0.000;28652.61578
 581.40;28596.160;    2.944;    0.000;28593.21641
 581.67;28459.150;    4.294;    0.000;28454.85664
 581.95;28244.221;    1.742;    0.000;28242.47820
 582.23;28125.920;    2.881;    0.000;28123.03867
 582.50;27967.221;    4.459;    0.000;27962.76195
 582.78;27757.170;    2.859;    0.000;27754.31117
 583.05;27624.119;    3.785;    0.000;27620.33414
 583.33;27538.311;    2.399;    0.000;27535.91180
 583.61;27415.740;    6.227;    0.000;27409.51273
 583.88;27286.240;    3.654;    0.000;27282.58648
 584.16;27123.141;    1.746;    0.000;27121.39437
 584.43;27018.789;    3.211;    0.000;27015.57781
 584.71;26940.760;    2.947;    0.000;26937.81227
 584.99;26828.250;    3.717;    0.000;26824.53250
 585.26;26617.430;    2.017;    0.000;26615.41219
 585.54;26505.359;    1.204;    0.000;26504.15562
 585.81;26365.189;    4.169;    0.000;26361.02070
 586.09;26258.221;    3.445;    0.000;26254.77570
 586.37;26138.561;    1.883;    0.000;26136.67805
 586.64;25962.180;    4.314;    0.000;25957.86594
 586.92;25817.189;    1.679;    0.000;25815.51070
 587.19;25693.439;    3.080;    0.000;25690.35945
 587.47;25485.430;    2.747;    0.000;25482.68219
 587.74;25421.131;    4.613;    0.000;25416.51836
 588.02;25335.939;    4.313;    0.000;25331.62695
 588.30;25187.500;    3.340;    0.000;25184.16000
 588.57;25018.881;    3.376;    0.000;25015.50461
 588.85;24899.189;    4.094;    0.000;24895.09570
 589.12;24722.211;    4.117;    0.000;24718.09344
 589.40;24626.449;    2.787;    0.000;24623.66172
 589.67;24501.461;    2.685;    0.000;24498.77594
 589.95;24407.920;    7.534;    0.000;24400.38617
 590.22;24275.801;    2.001;    0.000;24273.79953
 590.50;24096.449;    3.696;    0.000;24092.75297
 590.77;24012.150;    1.840;    0.000;24010.31039
 591.05;23816.990;    4.359;    0.000;23812.63148
 591.33;23601.750;    1.175;    0.000;23600.57500
 591.60;23514.500;    1.119;    0.000;23513.38125
 591.88;23416.990;    4.168;    0.000;23412.82273
 592.15;23261.670;    3.402;    0.000;23258.26742
 592.43;23116.711;    2.320;    0.000;23114.39094
 592.70;22929.369;    3.095;    0.000;22926.27414
 592.98;22841.141;    3.245;    0.000;22837.89563
 593.25;22658.561;    3.697;    0.000;22654.86305
 593.53;22513.381;    2.335;    0.000;22511.04586
 593.80;22412.199;    3.291;    0.000;22408.90797
 594.08;22235.971;    1.874;    0.000;22234.09695
 594.35;22095.930;    4.060;    0.000;22091.86969
 594.63;21987.080;    2.872;    0.000;21984.20758
 594.90;21792.090;    2.609;    0.000;21789.48109
 595.18;21650.439;    3.821;    0.000;21646.61820
 595.45;21515.789;    4.101;    0.000;21511.68781
 595.73;21316.539;    3.088;    0.000;21313.45156
 596.00;21206.230;    5.176;    0.000;21201.05422
 596.28;21054.760;    2.150;    0.000;21052.60977
 596.55;20859.590;    4.939;    0.000;20854.65109
 596.83;20777.900;    1.852;    0.000;20776.04789
 597.10;20633.750;    4.657;    0.000;20629.09250
 597.38;20505.971;    3.055;    0.000;20502.91570
 597.65;20348.230;    2.369;    0.000;20345.86172
 597.93;20197.131;    0.613;    0.000;20196.51836
 598.20;20035.340;    3.918;    0.000;20031.42234
 598.48;19869.561;    1.860;    0.000;19867.70055
 598.75;19782.539;    3.500;    0.000;19779.03906
 599.03;19575.439;    4.341;    0.000;19571.09820
 599.30;19506.109;    1.952;    0.000;19504.15688
 599.58;19344.920;    3.211;    0.000;19341.70867
 599.85;19188.400;    5.479;    0.000;19182.92164
 600.12;19035.381;    2.605;    0.000;19032.77586
 600.40;18911.789;    4.610;    0.000;18907.17906
 600.67;18785.770;    3.875;    0.000;18781.89453
 600.95;18632.320;    3.932;    0.000;18628.38781
 601.22;18498.439;    4.343;    0.000;18494.09695
 601.50;18380.170;    3.861;    0.000;18376.30867
 601.77;18260.961;    2.813;    0.000;18258.14844
 602.05;18087.711;    3.898;    0.000;18083.81344
 602.32;17982.500;    2.983;    0.000;17979.51750
 602.59;17867.369;    2.529;    0.000;17864.84039
 602.87;17704.561;    4.855;    0.000;17699.70555
 603.14;17582.311;    3.612;    0.000;17578.69805
 603.42;17475.410;    2.557;    0.000;17472.85266
 603.69;17379.410;    1.731;    0.000;17377.67891
 603.97;17186.990;    4.331;    0.000;17182.65898
 604.24;17106.051;    3.800;    0.000;17102.25078
 604.51;16995.039;    3.688;    0.000;16991.35156
 604.79;16824.631;    3.882;    0.000;16820.74836
 605.06;16707.730;    3.945;    0.000;16703.78547
 605.34;16593.830;    4.537;    0.000;16589.29258
 605.61;16521.471;    2.057;    0.000;16519.41320
 605.89;16386.721;    3.287;    0.000;16383.43320
 606.16;16253.300;    4.349;    0.000;16248.95105
 606.43;16190.570;    5.481;    0.000;16185.08906
 606.71;16073.100;    2.475;    0.000;16070.62461
 606.98;15964.500;    2.328;    0.000;15962.17250
 607.26;15793.600;    3.761;    0.000;15789.83836
 607.53;15735.060;    2.716;    0.000;15732.34332
 607.80;15621.490;    2.881;    0.000;15618.60898
 608.08;15530.790;    3.045;    0.000;15527.74504
 608.35;15380.080;    3.132;    0.000;15376.94758
 608.62;15362.970;    2.546;    0.000;15360.42348
 608.90;15193.520;    1.881;    0.000;15191.63828
 609.17;15135.390;    1.808;    0.000;15133.58215
 609.45;15012.330;    3.072;    0.000;15009.25758
 609.72;14914.030;    4.076;    0.000;14909.95402
 609.99;14870.210;    1.740;    0.000;14868.46996
 610.27;14692.980;    3.930;    0.000;14689.05047
 610.54;14630.820;   -0.248;    0.000;14631.06781
 610.81;14518.700;    3.979;    0.000;14514.72145
 611.09;14459.010;    2.641;    0.000;14456.36852
 611.36;14322.030;    0.728;    0.000;14321.30277
 611.64;14242.610;    3.644;    0.000;14238.96660
 611.91;14191.170;    2.205;    0.000;14188.96492
 612.18;14080.980;    3.130;    0.000;14077.85047
 612.46;14007.600;    4.631;    0.000;14002.96836
 612.73;13857.350;    1.941;    0.000;13855.40836
 613.00;13803.020;    3.451;    0.000;13799.56828
 613.28;13678.500;    2.829;    0.000;13675.67125
 613.55;13544.640;    5.354;    0.000;13539.28590
 613.82;13432.860;    2.598;    0.000;13430.26285
 614.10;13288.690;    2.566;    0.000;13286.12418
 614.37;13161.650;    0.998;    0.000;13160.65289
 614.64;13014.900;    1.727;    0.000;13013.17289
 614.92;12904.280;    1.755;    0.000;12902.52527
 615.19;12776.730;    3.310;    0.000;12773.42047
 615.46;12568.110;    3.815;    0.000;12564.29535
 615.74;12424.950;    3.493;    0.000;12421.45770
 616.01;12238.350;   -0.661;    0.000;12239.01086
 616.28;12048.470;    3.483;    0.000;12044.98723
 616.56;11804.660;    1.890;    0.000;11802.77016
 616.83;11624.090;    2.476;    0.000;11621.61359
 617.10;11533.840;    4.282;    0.000;11529.55734
 617.37;11489.970;    2.747;    0.000;11487.22223
 617.65;11590.360;    1.979;    0.000;11588.38160
 617.92;11685.240;    3.259;    0.000;11681.98148
 618.19;11618.260;    3.304;    0.000;11614.95602
 618.47;11539.270;    2.418;    0.000;11536.85203
 618.74;11460.070;    2.545;    0.000;11457.52531
 619.01;11420.020;    5.466;    0.000;11414.55328
 619.28;11384.670;    6.039;    0.000;11378.63117
 619.56;11308.130;    4.155;    0.000;11303.97488
 619.83;11195.710;    3.957;    0.000;11191.75246
 620.10;11126.250;    3.467;    0.000;11122.78250
 620.38;11100.660;    2.330;    0.000;11098.33016
 620.65;11035.420;    3.352;    0.000;11032.06742
 620.92;10980.680;    2.168;    0.000;10978.51219
 621.19;10988.100;    4.168;    0.000;10983.93211
 621.47;11001.620;    0.951;    0.000;11000.66887
 621.74;11007.190;    4.323;    0.000;11002.86793
 622.01;11032.990;    1.462;    0.000;11031.52773
 622.28;10977.500;    4.025;    0.000;10973.47500
 622.56;10995.640;    2.351;    0.000;10993.28840
 622.83;10949.420;    1.730;    0.000;10947.68992
 623.10;10890.440;    2.729;    0.000;10887.71168
 623.38;10861.130;    2.005;    0.000;10859.12488
 623.65;10801.760;    4.239;    0.000;10797.52102
 623.92;10743.140;    1.536;    0.000;10741.60340
 624.19;10708.500;   -0.880;    0.000;10709.38000
 624.46;10654.570;    3.061;    0.000;10651.50906
 624.74;10645.100;    3.045;    0.000;10642.05461
 625.01;10563.080;    5.025;    0.000;10558.05508
 625.28;10510.870;    1.938;    0.000;10508.93262
 625.55;10485.700;    1.933;    0.000;10483.76770
 625.83;10392.600;    3.122;    0.000;10389.47711
 626.10;10393.400;    3.759;    0.000;10389.64164
 626.37;10369.640;    1.891;    0.000;10367.74840
 626.64;10276.490;    2.188;    0.000;10274.30273
 626.92;10258.860;    1.146;    0.000;10257.71410
 627.19;10232.220;    3.395;    0.000;10228.82473
 627.46;10129.590;    1.855;    0.000;10127.73484
 627.73;10142.390;   -0.625;    0.000;10143.01465
 628.00;10058.720;    4.034;    0.000;10054.68598
 628.28;10000.600;    2.981;    0.000;9997.61836
 628.55;10006.180;    0.068;    0.000;10006.11219
 628.82; 9964.590;    1.947;    0.000;9962.64234
 629.09; 9921.750;    4.360;    0.000;9917.39000
 629.36; 9898.290;    5.664;    0.000;9892.62629
 629.64; 9803.430;    0.757;    0.000;9802.67219
 629.91; 9772.600;    6.573;    0.000;9766.02711
 630.18; 9735.980;    3.014;    0.000;9732.96672
 630.45; 9696.510;    0.545;    0.000;9695.96477
 630.72; 9612.730;   -1.060;    0.000;9613.79047
 631.00; 9584.260;    1.430;    0.000;9582.82977
 631.27; 9528.790;    2.735;    0.000;9526.05504
 631.54; 9491.740;    1.822;    0.000;9489.91773
 631.81; 9464.470;    3.679;    0.000;9460.79098
 632.08; 9423.210;    3.724;    0.000;9419.48621
 632.35; 9375.010;    2.265;    0.000;9372.74477
 632.63; 9305.970;    4.170;    0.000;9301.79973
 632.90; 9299.210;    2.181;    0.000;9297.02871
 633.17; 9256.100;    1.319;    0.000;9254.78086
 633.44; 9200.190;    3.421;    0.000;9196.76918
 633.71; 9232.150;    3.719;    0.000;9228.43164
 633.98; 9195.990;    0.863;    0.000;9195.12773
 634.25; 9160.090;    4.139;    0.000;9155.95109
 634.53; 9152.160;    3.731;    0.000;9148.42891
 634.80; 9094.450;    2.301;    0.000;9092.14895
 635.07; 9127.940;    2.280;    0.000;9125.66043
 635.34; 9143.630;    4.559;    0.000;9139.07113
 635.61; 9107.790;    4.886;    0.000;9102.90379
 635.88; 9100.970;    2.765;    0.000;9098.20473
 636.15; 9104.320;    3.779;    0.000;9100.54156
 636.43; 9130.400;    3.138;    0.000;9127.26289
 636.70; 9120.100;    0.309;    0.000;9119.79086
 636.97; 9076.980;    0.026;    0.000;9076.95422
 637.24; 9010.610;    2.896;    0.000;9007.71410
 637.51; 8822.350;    4.227;    0.000;8818.12211
 637.78; 8737.320;    1.205;    0.000;8736.11531
 638.05; 8653.380;   -0.521;    0.000;8653.90113
 638.32; 8633.820;    4.594;    0.000;8629.22656
 638.60; 8560.300;    1.989;    0.000;8558.31105
 638.87; 8523.310;    0.371;    0.000;8522.93832
 639.14; 8464.930;    4.139;    0.000;8460.79094
 639.41; 8380.290;    0.873;    0.000;8379.41754
 639.68; 8370.100;    3.072;    0.000;8367.02711
 639.95; 8255.640;    1.040;    0.000;8254.59965
 640.22; 8227.440;    3.735;    0.000;8223.70543
 640.49; 8145.580;    2.639;    0.000;8142.94133
 640.76; 8142.340;    5.461;    0.000;8136.87859
 641.03; 8031.940;    0.767;    0.000;8031.17244
 641.30; 7937.870;    4.760;    0.000;7933.11012
 641.58; 7806.430;    0.679;    0.000;7805.75143
 641.85; 7753.030;    3.010;    0.000;7750.01979
 642.12; 7699.940;    1.204;    0.000;7698.73619
 642.39; 7668.530;    4.154;    0.000;7664.37604
 642.66; 7588.320;    1.847;    0.000;7586.47232
 642.93; 7530.300;    1.470;    0.000;7528.82980
 643.20; 7437.740;    1.317;    0.000;7436.42273
 643.47; 7402.950;    3.454;    0.000;7399.49645
 643.74; 7328.530;    0.748;    0.000;7327.78229
 644.01; 7319.730;    3.763;    0.000;7315.96748
 644.28; 7262.100;    0.605;    0.000;7261.49510
 644.55; 7187.720;    2.486;    0.000;7185.23396
 644.82; 7160.240;    2.384;    0.000;7157.85648
 645.09; 7121.830;    0.360;    0.000;7121.47008
 645.36; 7039.660;    3.155;    0.000;7036.50516
 645.63; 7063.790;    2.894;    0.000;7060.89629
 645.91; 6942.920;    3.947;    0.000;6938.97242
 646.18; 6964.550;    3.690;    0.000;6960.85980
 646.45; 6926.610;    0.995;    0.000;6925.61486
 646.72; 6851.840;    1.101;    0.000;6850.73859
 646.99; 6794.190;    1.396;    0.000;6792.79369
 647.26; 6781.110;    1.024;    0.000;6780.08611
 647.53; 6671.040;    1.119;    0.000;6669.92129
 647.80; 6701.370;    1.765;    0.000;6699.60512
 648.07; 6624.120;    0.945;    0.000;6623.17512
 648.34; 6597.000;    1.820;    0.000;6595.18000
 648.61; 6560.700;    1.154;    0.000;6559.54645
 648.88; 6480.920;    2.699;    0.000;6478.22117
 649.15; 6479.900;    1.045;    0.000;6478.85490
 649.42; 6410.690;    2.971;    0.000;6407.71869
 649.69; 6388.180;   -1.864;    0.000;6390.04393
 649.96; 6351.210;    0.123;    0.000;6351.08746
 650.23; 6300.760;   -1.247;    0.000;6302.00727
 650.50; 6274.550;    2.479;    0.000;6272.07105
 650.77; 6219.140;   -0.845;    0.000;6219.98514
 651.04; 6188.810;    4.423;    0.000;6184.38756
 651.31; 6147.870;    1.202;    0.000;6146.66762
 651.58; 6105.710;    1.992;    0.000;6103.71746
 651.85; 6058.840;    0.651;    0.000;6058.18859
 652.12; 6021.890;    1.250;    0.000;6020.64014
 652.39; 5998.710;    2.362;    0.000;5996.34746
 652.66; 5955.180;    3.281;    0.000;5951.89893
 652.93; 5908.150;    2.255;    0.000;5905.89490
 653.20; 5888.640;    2.949;    0.000;5885.69139
 653.47; 5826.350;    0.469;    0.000;5825.88135
 653.74; 5798.160;    4.386;    0.000;5793.77391
 654.01; 5764.480;    2.973;    0.000;5761.50748
 654.28; 5729.840;    1.301;    0.000;5728.53859
 654.55; 5679.360;   -1.832;    0.000;5681.19236
 654.81; 5641.400;    3.639;    0.000;5637.76115
 655.08; 5595.210;    0.624;    0.000;5594.58621
 655.35; 5594.510;    4.320;    0.000;5590.18977
 655.62; 5541.870;   -1.529;    0.000;5543.39887
 655.89; 5498.630;    2.852;    0.000;5495.77738
 656.16; 5454.480;    0.510;    0.000;5453.96998
 656.43; 5431.490;    3.440;    0.000;5428.05023
 656.70; 5379.480;    1.716;    0.000;5377.76373
 656.97; 5347.350;    2.947;    0.000;5344.40260
 657.24; 5317.570;    2.443;    0.000;5315.12732
 657.51; 5249.310;    5.190;    0.000;5244.12006
 657.78; 5233.360;    2.088;    0.000;5231.27236
 658.05; 5205.600;    2.378;    0.000;5203.22260
 658.32; 5150.530;    2.024;    0.000;5148.50604
 658.59; 5138.900;    2.130;    0.000;5136.76990
 658.86; 5126.190;    1.824;    0.000;5124.36619
 659.12; 5088.010;    2.666;    0.000;5085.34352
 659.39; 5037.740;    1.124;    0.000;5036.61648
 659.66; 5014.970;    3.401;    0.000;5011.56896
 659.93; 4992.110;    1.985;    0.000;4990.12486
 660.20; 4933.930;    3.110;    0.000;4930.82018
 660.47; 4909.510;    2.070;    0.000;4907.43977
 660.74; 4863.780;    1.519;    0.000;4862.26104
 661.01; 4834.600;    5.176;    0.000;4829.42385
 661.28; 4795.130;    1.305;    0.000;4793.82488
 661.55; 4789.100;    3.871;    0.000;4785.22885
 661.81; 4741.360;    0.349;    0.000;4741.01111
 662.08; 4680.720;   -1.056;    0.000;4681.77646
 662.35; 4653.800;    0.981;    0.000;4652.81855
 662.62; 4645.420;    0.535;    0.000;4644.88492
 662.89; 4594.970;    3.275;    0.000;4591.69521
 663.16; 4566.930;   -0.139;    0.000;4567.06893
 663.43; 4510.710;    1.344;    0.000;4509.36621
 663.70; 4493.080;    3.266;    0.000;4489.81383
 663.96; 4494.570;    1.253;    0.000;4493.31732
 664.23; 4412.150;    0.530;    0.000;4411.61990
 664.50; 4407.660;    2.487;    0.000;4405.17266
 664.77; 4370.660;   -0.877;    0.000;4371.53766
 665.04; 4331.840;    3.953;    0.000;4327.88734
 665.31; 4285.970;    0.842;    0.000;4285.12771
 665.58; 4277.380;    2.457;    0.000;4274.92238
 665.84; 4245.170;    0.780;    0.000;4244.38992
 666.11; 4203.310;    4.791;    0.000;4198.51881
 666.38; 4163.330;   -0.827;    0.000;4164.15758
 666.65; 4144.070;    2.049;    0.000;4142.02107
 666.92; 4101.440;   -1.602;    0.000;4103.04244
 667.19; 4097.620;    2.217;    0.000;4095.40262
 667.46; 4050.310;    0.044;    0.000;4050.26631
 667.72; 4024.940;    2.615;    0.000;4022.32494
 667.99; 4018.480;    1.617;    0.000;4016.86248
 668.26; 4002.300;    4.448;    0.000;3997.85255
 668.53; 3929.090;    1.530;    0.000;3927.56009
 668.80; 3921.830;    1.789;    0.000;3920.04133
 669.06; 3877.960;    3.941;    0.000;3874.01871
 669.33; 3862.550;    4.309;    0.000;3858.24130
 669.60; 3823.060;    0.438;    0.000;3822.62256
 669.87; 3812.620;    1.599;    0.000;3811.02137
 670.14; 3791.810;   -0.375;    0.000;3792.18506
 670.41; 3780.440;    1.401;    0.000;3779.03869
 670.67; 3693.200;    2.004;    0.000;3691.19620
 670.94; 3697.950;    0.808;    0.000;3697.14245
 671.21; 3668.580;    2.151;    0.000;3666.42883
 671.48; 3615.960;   -0.835;    0.000;3616.79496
 671.75; 3594.220;    2.424;    0.000;3591.79622
 672.01; 3567.480;    3.504;    0.000;3563.97623
 672.28; 3553.120;    1.559;    0.000;3551.56137
 672.55; 3536.700;    3.671;    0.000;3533.02870
 672.82; 3489.540;    1.102;    0.000;3488.43754
 673.08; 3452.970;    2.175;    0.000;3450.79497
 673.35; 3420.570;   -0.296;    0.000;3420.86632
 673.62; 3413.360;    0.715;    0.000;3412.64511
 673.89; 3356.810;   -1.376;    0.000;3358.18631
 674.16; 3356.610;    2.699;    0.000;3353.91136
 674.42; 3343.180;    3.569;    0.000;3339.61118
 674.69; 3293.590;    0.779;    0.000;3292.81134
 674.96; 3256.250;    1.980;    0.000;3254.27000
 675.23; 3252.700;    2.409;    0.000;3250.29120
 675.49; 3219.480;    1.455;    0.000;3218.02498
 675.76; 3205.180;    3.918;    0.000;3201.26243
 676.03; 3161.710;    2.640;    0.000;3159.06996
 676.30; 3163.440;    3.191;    0.000;3160.24869
 676.56; 3109.850;    1.544;    0.000;3108.30635
 676.83; 3087.300;    2.005;    0.000;3085.29505
 677.10; 3059.850;    0.876;    0.000;3058.97385
 677.37; 3062.280;    5.404;    0.000;3056.87628
 677.63; 3025.500;   -0.745;    0.000;3026.24500
 677.90; 2988.980;    4.010;    0.000;2984.96998
 678.17; 2967.950;    1.760;    0.000;2966.18995
 678.44; 2944.120;    2.400;    0.000;2941.72012
 678.70; 2920.670;    1.548;    0.000;2919.12242
 678.97; 2899.830;    1.459;    0.000;2898.37133
 679.24; 2899.320;    0.824;    0.000;2898.49632
 679.50; 2849.400;    2.297;    0.000;2847.10240
 679.77; 2846.830;    0.320;    0.000;2846.51008
 680.04; 2825.420;    0.405;    0.000;2825.01492
 680.31; 2790.410;   -0.887;    0.000;2791.29741
 680.57; 2780.280;    2.870;    0.000;2777.41003
 680.84; 2751.710;    1.740;    0.000;2749.96996
 681.11; 2725.040;    1.115;    0.000;2723.92504
 681.37; 2697.880;   -1.815;    0.000;2699.69488
 681.64; 2671.830;   -0.892;    0.000;2672.72258
 681.91; 2650.980;    4.430;    0.000;2646.54998
 682.17; 2644.620;    3.001;    0.000;2641.61887
 682.44; 2619.180;   -1.503;    0.000;2620.68243
 682.71; 2600.230;    3.140;    0.000;2597.08998
 682.98; 2572.580;    1.636;    0.000;2570.94383
 683.24; 2552.130;   -0.827;    0.000;2552.95738
 683.51; 2520.930;    0.954;    0.000;2519.97618
 683.78; 2504.670;    1.344;    0.000;2503.32617
 684.04; 2511.180;    1.450;    0.000;2509.72993
 684.31; 2457.460;    0.043;    0.000;2457.41746
 684.58; 2438.060;    1.136;    0.000;2436.92381
 684.84; 2427.520;    2.069;    0.000;2425.45127
 685.11; 2403.810;    3.858;    0.000;2399.95256
 685.38; 2385.570;    4.713;    0.000;2380.85757
 685.64; 2374.030;    0.870;    0.000;2373.16003
 685.91; 2375.720;   -0.069;    0.000;2375.78872
 686.17; 2349.360;    2.316;    0.000;2347.04386
 686.44; 2317.110;   -0.858;    0.000;2317.96761
 686.71; 2298.080;    1.816;    0.000;2296.26383
 686.97; 2275.070;   -1.670;    0.000;2276.74007
 687.24; 2240.810;    0.944;    0.000;2239.86631
 687.51; 2246.480;    0.550;    0.000;2245.92998
 687.77; 2246.210;    1.104;    0.000;2245.10621
 688.04; 2216.260;    1.634;    0.000;2214.62626
 688.31; 2176.380;    2.836;    0.000;2173.54363
 688.57; 2191.870;    1.955;    0.000;2189.91512
 688.84; 2160.610;    1.581;    0.000;2159.02886
 689.10; 2129.410;    3.057;    0.000;2126.35241
 689.37; 2106.530;    1.930;    0.000;2104.60003
 689.64; 2111.670;    0.310;    0.000;2111.35992
 689.90; 2090.240;    1.576;    0.000;2088.66374
 690.17; 2077.630;    3.089;    0.000;2074.54113
 690.44; 2045.380;   -0.029;    0.000;2045.40875
 690.70; 2022.980;    2.069;    0.000;2020.91123
 690.97; 2004.000;    0.464;    0.000;2003.53625
 691.23; 1993.610;    2.264;    0.000;1991.34624
 691.50; 1977.320;    0.368;    0.000;1976.95245
 691.77; 1960.750;    3.309;    0.000;1957.44125
 692.03; 1937.380;   -0.905;    0.000;1938.28500
 692.30; 1929.000;    1.190;    0.000;1927.81000
 692.56; 1897.630;    0.126;    0.000;1897.50375
 692.83; 1888.150;    0.384;    0.000;1887.76627
 693.10; 1851.790;    3.125;    0.000;1848.66504
 693.36; 1830.520;    2.911;    0.000;1827.60877
 693.63; 1822.950;    0.608;    0.000;1822.34245
 693.89; 1801.330;   -0.538;    0.000;1801.86746
 694.16; 1791.250;    0.642;    0.000;1790.60750
 694.42; 1780.960;    0.609;    0.000;1780.35121
 694.69; 1770.640;    3.661;    0.000;1766.97876
 694.96; 1765.150;    3.156;    0.000;1761.99377
 695.22; 1722.710;    2.274;    0.000;1720.43621
 695.49; 1715.500;    3.946;    0.000;1711.55375
 695.75; 1670.060;    2.188;    0.000;1667.87256
 696.02; 1663.180;    2.641;    0.000;1660.53880
 696.28; 1648.020;    2.575;    0.000;1645.44502
 696.55; 1629.440;    1.420;    0.000;1628.01994
 696.81; 1595.580;    1.639;    0.000;1593.94121
 697.08; 1617.750;    0.668;    0.000;1617.08250
 697.34; 1567.130;    0.815;    0.000;1566.31500
 697.61; 1563.710;    1.273;    0.000;1562.43746
 697.88; 1534.720;    0.400;    0.000;1534.31997
 698.14; 1514.920;    0.565;    0.000;1514.35504
 698.41; 1495.290;    2.316;    0.000;1492.97379
 698.67; 1475.170;    0.394;    0.000;1474.77629
 698.94; 1471.360;   -0.249;    0.000;1471.60874
 699.20; 1454.430;   -1.043;    0.000;1455.47255
 699.47; 1416.090;    3.237;    0.000;1412.85247
 699.73; 1418.300;    2.318;    0.000;1415.98255
 700.00; 1390.560;   -2.205;    0.000;1392.76506
 700.26; 1375.990;    1.921;    0.000;1374.06874
 700.53; 1373.520;   -0.345;    0.000;1373.86502
 700.79; 1353.640;    2.044;    0.000;1351.59626
 701.06; 1320.280;    1.224;    0.000;1319.05628
 701.32; 1311.960;    3.382;    0.000;1308.57746
 701.59; 1293.320;    0.240;    0.000;1293.07995
 701.85; 1277.670;   -1.337;    0.000;1279.00754
 702.12; 1260.910;   -0.553;    0.000;1261.46253
 702.38; 1264.740;    0.720;    0.000;1264.01999
 702.65; 1229.530;    2.704;    0.000;1226.82628
 702.91; 1209.830;    3.130;    0.000;1206.69996
 703.18; 1180.480;    0.159;    0.000;1180.32123
 703.44; 1178.770;    2.589;    0.000;1176.18127
 703.71; 1153.920;    0.451;    0.000;1153.46879
 703.97; 1140.330;    1.933;    0.000;1138.39746
 704.24; 1126.050;    2.733;    0.000;1123.31755
 704.50; 1097.850;   -1.066;    0.000;1098.91623
 704.76; 1081.570;    0.973;    0.000;1080.59745
 705.03; 1077.740;    3.154;    0.000;1074.58624
 705.29; 1044.790;   -1.855;    0.000;1046.64504
 705.56; 1034.380;    0.824;    0.000;1033.55625
 705.82; 1015.620;    1.599;    0.000;1014.02125
 706.09; 1029.960;    3.196;    0.000;1026.76371
 706.35;  976.250;   -0.994;    0.000;977.24375
 706.62;  979.940;    3.101;    0.000;976.83875
 706.88;  946.000;    0.259;    0.000;945.74125
 707.15;  943.800;    2.235;    0.000;941.56499
 707.41;  931.910;    1.023;    0.000;930.88747
 707.67;  903.550;    2.314;    0.000;901.23624
 707.94;  906.480;    0.341;    0.000;906.13873
 708.20;  887.900;    2.445;    0.000;885.45502
 708.47;  860.750;    0.235;    0.000;860.51500
 708.73;  861.020;    1.543;    0.000;859.47752
 709.00;  841.730;    1.543;    0.000;840.18748
 709.26;  846.380;    3.355;    0.000;843.02500
 709.52;  817.000;    1.150;    0.000;815.85000
 709.79;  810.690;    2.364;    0.000;808.32625
 710.05;  796.650;    1.482;    0.000;795.16752
 710.32;  797.290;    2.600;    0.000;794.68998
 710.58;  776.670;   -0.961;    0.000;777.63123
 710.84;  759.010;    3.686;    0.000;755.32376
 711.11;  752.170;    0.292;    0.000;751.87748
 711.37;  741.610;    3.571;    0.000;738.03874
 711.64;  719.410;    1.284;    0.000;718.12622
 711.90;  725.370;    3.639;    0.000;721.73125
 712.16;  714.600;    3.284;    0.000;711.31623
 712.43;  706.840;    1.572;    0.000;705.26753
 712.69;  688.010;    3.364;    0.000;684.64626
 712.96;  687.910;    2.591;    0.000;685.31872
 713.22;  660.380;    1.612;    0.000;658.76750
 713.48;  674.830;    0.123;    0.000;674.70752
 713.75;  660.310;   -1.460;    0.000;661.77000
 714.01;  653.410;    5.713;    0.000;647.69747
 714.27;  648.390;    1.730;    0.000;646.66001
 714.54;  635.120;    2.946;    0.000;632.17375
 714.80;  636.440;    1.184;    0.000;635.25625
 715.06;  626.610;    2.250;    0.000;624.35999
 715.33;  619.570;    1.124;    0.000;618.44626
 715.59;  617.500;    1.466;    0.000;616.03375
 715.86;  615.600;    3.069;    0.000;612.53123
 716.12;  615.750;    1.867;    0.000;613.88250
 716.38;  595.290;    2.986;    0.000;592.30373
 716.65;  595.540;    3.819;    0.000;591.72123
 716.91;  584.170;    0.629;    0.000;583.54123
 717.17;  596.740;    3.425;    0.000;593.31499
 717.44;  585.710;    2.554;    0.000;583.15627
 717.70;  583.720;    3.246;    0.000;580.47372
 717.96;  568.920;    0.561;    0.000;568.35873
 718.23;  564.890;   -0.406;    0.000;565.29626
 718.49;  563.030;    1.106;    0.000;561.92378
 718.75;  566.090;    4.903;    0.000;561.18753
 719.02;  552.170;    0.034;    0.000;552.13623
 719.28;  562.080;    0.564;    0.000;561.51627
 719.54;  537.530;    0.788;    0.000;536.74253
 719.80;  538.730;    2.293;    0.000;536.43748
 720.07;  537.110;   -0.094;    0.000;537.20374
 720.33;  540.850;    1.286;    0.000;539.56373
 720.59;  530.840;    1.628;    0.000;529.21253
 720.86;  534.060;   -1.405;    0.000;535.46500
 721.12;  537.100;    1.731;    0.000;535.36873
 721.38;  536.520;    4.088;    0.000;532.43252
 721.65;  526.460;   -0.108;    0.000;526.56752
 721.91;  532.280;   -0.026;    0.000;532.30628
 722.17;  516.560;   -0.304;    0.000;516.86375
 722.43;  518.080;    3.338;    0.000;514.74252
 722.70;  514.050;    0.495;    0.000;513.55499
 722.96;  530.390;    4.814;    0.000;525.57626
 723.22;  515.820;    2.186;    0.000;513.63376
 723.48;  522.610;    3.430;    0.000;519.17999
 723.75;  499.050;    2.215;    0.000;496.83499
 724.01;  512.120;    1.500;    0.000;510.62000
 724.27;  514.120;   -0.826;    0.000;514.94625
 724.54;  521.150;    2.814;    0.000;518.33627
 724.80;  505.710;   -1.109;    0.000;506.81874
 725.06;  497.110;    3.160;    0.000;493.94999
 725.32;  509.810;    2.344;    0.000;507.46625
 725.59;  502.980;    1.226;    0.000;501.75376
 725.85;  485.520;    2.034;    0.000;483.48624
 726.11;  506.000;    2.994;    0.000;503.00625
 726.37;  495.020;    3.204;    0.000;491.81624
 726.64;  499.630;    2.474;    0.000;497.15625
 726.90;  506.600;    3.596;    0.000;503.00376
 727.16;  491.860;    0.375;    0.000;491.48499
 727.42;  487.470;    0.449;    0.000;487.02125
 727.68;  493.120;    0.172;    0.000;492.94750
 727.95;  483.650;    2.132;    0.000;481.51749
 728.21;  492.900;    3.517;    0.000;489.38249
 728.47;  488.540;   -0.545;    0.000;489.08501
 728.73;  490.770;    3.100;    0.000;487.66999
 729.00;  486.690;    0.755;    0.000;485.93500
 729.26;  483.880;    0.587;    0.000;483.29250
 729.52;  465.770;   -0.405;    0.000;466.17499
 729.78;  474.000;   -2.089;    0.000;476.08875
 730.04;  477.740;    4.343;    0.000;473.39749
 730.31;  466.160;    3.566;    0.000;462.59375
 730.57;  465.100;    4.318;    0.000;460.78251
 730.83;  466.550;    2.994;    0.000;463.55624
 731.09;  476.530;   -0.604;    0.000;477.13375
 731.35;  454.650;    2.505;    0.000;452.14499
 731.62;  444.760;    0.100;    0.000;444.66001
 731.88;  462.170;    1.690;    0.000;460.48001
 732.14;  453.570;   -1.254;    0.000;454.82376
 732.40;  460.570;    3.940;    0.000;456.63001
 732.66;  441.890;    1.069;    0.000;440.82126
 732.92;  442.140;    2.316;    0.000;439.82376
 733.19;  448.270;    1.539;    0.000;446.73124
 733.45;  447.560;    5.839;    0.000;441.72125
 733.71;  442.280;    1.001;    0.000;441.27875
 733.97;  469.030;    3.849;    0.000;465.18125
 734.23;  419.090;   -2.451;    0.000;421.54125
 734.49;  433.820;    3.328;    0.000;430.49251
 734.76;  427.060;    1.984;    0.000;425.07625
 735.02;  430.700;    1.000;    0.000;429.70001
 735.28;  430.550;    1.494;    0.000;429.05624
 735.54;  417.410;    2.599;    0.000;414.81125
 735.80;  416.750;    3.059;    0.000;413.69125
 736.06;  428.210;    1.774;    0.000;426.43624
 736.32;  400.270;   -0.745;    0.000;401.01499
 736.59;  410.590;    1.776;    0.000;408.81375
 736.85;  407.880;    2.046;    0.000;405.83375
 737.11;  400.670;    1.040;    0.000;399.63001
 737.37;  388.880;   -0.538;    0.000;389.41750
 737.63;  397.400;    2.409;    0.000;394.99124
 737.89;  396.550;   -0.147;    0.000;396.69749
 738.15;  392.310;    2.342;    0.000;389.96750
 738.41;  380.230;   -1.143;    0.000;381.37251
 738.67;  388.350;    0.023;    0.000;388.32751
 738.94;  364.610;   -1.278;    0.000;365.88749
 739.20;  365.050;   -0.135;    0.000;365.18499
 739.46;  375.610;    1.821;    0.000;373.78874
 739.72;  368.920;    2.342;    0.000;366.57751
 739.98;  358.040;   -0.039;    0.000;358.07876
 740.24;  354.160;    1.996;    0.000;352.16375
 740.50;  355.020;    2.144;    0.000;352.87624
 740.76;  355.810;    4.496;    0.000;351.31375
 741.02;  346.100;    2.037;    0.000;344.06251
 741.28;  348.970;    4.015;    0.000;344.95500
 741.54;  345.960;    2.483;    0.000;343.47749
 741.81;  348.220;    3.010;    0.000;345.21000
 742.07;  324.470;    1.163;    0.000;323.30750
 742.33;  330.960;    2.645;    0.000;328.31499
 742.59;  327.940;    1.821;    0.000;326.11875
 742.85;  325.460;    0.298;    0.000;325.16249
 743.11;  313.440;    1.705;    0.000;311.73500
 743.37;  322.340;    0.685;    0.000;321.65500
 743.63;  316.270;    4.071;    0.000;312.19874
 743.89;  318.690;    4.113;    0.000;314.57750
 744.15;  304.460;    0.405;    0.000;304.05499
 744.41;  302.100;   -1.540;    0.000;303.64001
 744.67;  287.150;    1.661;    0.000;285.48874
 744.93;  296.580;    0.085;    0.000;296.49499
 745.19;  285.730;    2.245;    0.000;283.48501
 745.45;  296.750;    0.485;    0.000;296.26500
 745.71;  279.600;    1.388;    0.000;278.21251
 745.97;  290.010;    1.060;    0.000;288.95001
 746.23;  266.910;    1.283;    0.000;265.62750
 746.49;  277.910;    3.820;    0.000;274.09000
 746.75;  263.790;    3.335;    0.000;260.45501
 747.02;  258.990;    1.569;    0.000;257.42124
 747.28;  255.300;   -0.540;    0.000;255.84000
 747.54;  270.640;    2.818;    0.000;267.82251
 747.80;  242.250;   -1.074;    0.000;243.32375
 748.06;  255.520;   -5.407;    0.000;260.92750
 748.32;  233.890;    3.335;    0.000;230.55500
 748.58;  251.710;    4.275;    0.000;247.43501
 748.84;  248.350;    1.499;    0.000;246.85126
 749.10;  323.260;    9.339;    0.000;313.92126
 749.36;  243.000;    2.190;    0.000;240.81000
 749.62;  238.290;    2.432;    0.000;235.85749
 749.88;  218.850;    1.871;    0.000;216.97876
 750.14;  222.010;    3.449;    0.000;218.56124
 750.40;  221.030;   -1.523;    0.000;222.55250
 750.66;  224.260;    5.100;    0.000;219.15999
 750.91;  220.320;    1.121;    0.000;219.19876
 751.17;  200.020;    4.999;    0.000;195.02125
 751.43;  204.730;   -1.806;    0.000;206.53625
 751.69;  210.980;    4.175;    0.000;206.80500
 751.95;  206.170;    1.244;    0.000;204.92625
 752.21;  205.710;    2.675;    0.000;203.03501
 752.47;  200.850;    1.139;    0.000;199.71126
 752.73;  190.500;    3.609;    0.000;186.89125
 752.99;  181.840;   -0.211;    0.000;182.05125
 753.25;  180.010;    2.358;    0.000;177.65249
 753.51;  186.170;    1.201;    0.000;184.96875
 753.77;  182.560;    1.548;    0.000;181.01250
 754.03;  180.780;    0.859;    0.000;179.92125
 754.29;  180.700;    1.796;    0.000;178.90375
 754.55;  158.480;    3.635;    0.000;154.84500
 754.81;  174.970;    2.146;    0.000;172.82375
 755.07;  163.900;    0.389;    0.000;163.51124
 755.33;  174.560;    2.674;    0.000;171.88625
 755.59;  159.840;    1.291;    0.000;158.54875
 755.85;  160.450;    1.286;    0.000;159.16375
 756.10;  151.710;    2.474;    0.000;149.23626
 756.36;  155.710;    1.336;    0.000;154.37376
 756.62;  152.760;    1.236;    0.000;151.52374
 756.88;  162.010;    1.444;    0.000;160.56624
 757.14;  149.220;    1.900;    0.000;147.32000
 757.40;  157.480;    3.004;    0.000;154.47625
 757.66;  156.400;    2.839;    0.000;153.56124
 757.92;  149.480;    2.434;    0.000;147.04625
 758.18;  135.020;    1.880;    0.000;133.14000
 758.44;  149.630;    1.215;    0.000;148.41500
 758.70;  130.020;    1.508;    0.000;128.51250
 758.95;  143.120;   -0.256;    0.000;143.37625
 759.21;  121.680;    0.169;    0.000;121.51125
 759.47;  145.040;    4.939;    0.000;140.10124
 759.73;  121.160;    0.292;    0.000;120.86750
 759.99;  129.730;    3.420;    0.000;126.31000
 760.25;  112.890;    0.416;    0.000;112.47375
 760.51;  127.250;   -0.933;    0.000;128.18250
 760.77;  119.110;    3.746;    0.000;115.36375
 761.02;  134.260;    3.771;    0.000;130.48874
 761.28;  111.460;    1.756;    0.000;109.70375
 761.54;  122.850;    3.152;    0.000;119.69750
 761.80;  105.580;    2.394;    0.000;103.18625
 762.06;  122.410;    2.415;    0.000;119.99500
 762.32;   92.740;   -0.226;    0.000;92.96625
 762.58;  113.020;    0.177;    0.000;112.84250
 762.83;  113.580;    2.280;    0.000;111.30000
 763.09;  110.160;    4.425;    0.000;105.73500
 763.35;  100.900;    2.086;    0.000;98.81375
 763.61;  118.120;    3.421;    0.000;114.69875
 763.87;  117.330;    2.898;    0.000;114.43250
 764.13;  108.670;    2.771;    0.000;105.89875
 764.38;  102.570;    0.603;    0.000;101.96750
 764.64;  102.060;    0.809;    0.000;101.25125
 764.90;   99.920;    2.140;    0.000;97.78000
 765.16;  107.220;    2.909;    0.000;104.31125
 765.42;   92.610;    1.378;    0.000;91.23250
 765.68;   93.350;    1.506;    0.000;91.84375
 765.93;   86.260;    0.826;    0.000;85.43375
 766.19;  106.350;    1.595;    0.000;104.75500
 766.45;   74.710;    3.033;    0.000;71.67750
 766.71;   94.770;    1.970;    0.000;92.80000
 766.97;   85.420;    1.930;    0.000;83.49000
 767.22;   84.520;    0.001;    0.000;84.51875
 767.48;   86.310;    2.169;    0.000;84.14125
 767.74;   88.750;    3.239;    0.000;85.51125
 768.00;   79.760;    0.127;    0.000;79.63250
 768.26;   73.020;    2.041;    0.000;70.97875
 768.51;   75.600;    1.921;    0.000;73.67875
 768.77;   89.380;    2.866;    0.000;86.51375
 769.03;   72.550;    1.215;    0.000;71.33500
 769.29;   74.460;    3.609;    0.000;70.85125
 769.54;   72.640;   -1.861;    0.000;74.50125
 769.80;   80.230;    1.023;    0.000;79.20750
 770.06;   67.560;   -2.848;    0.000;70.40750
 770.32;   72.730;    3.336;    0.000;69.39375
 770.57;   62.360;    3.290;    0.000;59.07000
 770.83;   78.210;    2.001;    0.000;76.20875
 771.09;   65.620;    0.305;    0.000;65.31500
 771.35;   63.530;   -0.986;    0.000;64.51625
 771.61;   67.610;    3.224;    0.000;64.38625
 771.86;   75.980;    2.035;    0.000;73.94500
 772.12;   62.130;    2.678;    0.000;59.45250
 772.38;   59.250;    2.819;    0.000;56.43125
 772.63;   53.580;    2.169;    0.000;51.41125
 772.89;   65.410;    1.089;    0.000;64.32125
 773.15;   54.590;    3.095;    0.000;51.49500
 773.41;   58.110;    2.499;    0.000;55.61125
 773.66;   64.770;    2.453;    0.000;62.31750
 773.92;   59.630;    2.392;    0.000;57.23750
 774.18;   64.220;    0.616;    0.000;63.60375
 774.44;   52.980;    2.901;    0.000;50.07875
 774.69;   56.480;    2.365;    0.000;54.11500
 774.95;   60.620;    1.592;    0.000;59.02750
 775.21;   61.730;    3.401;    0.000;58.32875
 775.46;   50.860;    2.118;    0.000;48.74250
 775.72;   45.630;   -0.757;    0.000;46.38750
 775.98;   55.930;    2.870;    0.000;53.06000
 776.24;   44.620;    0.654;    0.000;43.96625
 776.49;   44.550;    0.461;    0.000;44.08875
 776.75;   49.360;   -0.097;    0.000;49.45750
 777.01;   52.010;    2.346;    0.000;49.66375
 777.26;   55.730;   -0.501;    0.000;56.23125
 777.52;   52.260;    3.513;    0.000;48.74750
 777.78;   38.310;    2.825;    0.000;35.48500
 778.03;   56.960;    4.813;    0.000;52.14750
 778.29;   48.390;   -1.135;    0.000;49.52500
 778.55;   46.540;    4.461;    0.000;42.07875
 778.80;   35.970;    4.707;    0.000;31.26250
 779.06;   34.990;    1.582;    0.000;33.40750
 779.32;   31.410;   -1.487;    0.000;32.89750
 779.57;   22.820;    5.735;    0.000;17.08500
 779.83;   35.580;    0.904;    0.000;34.67625
 780.09;   40.810;    4.139;    0.000;36.67125
 780.34;   34.860;    2.516;    0.000;32.34375
 780.60;   56.100;    5.276;    0.000;50.82375
 780.86;   35.220;    1.526;    0.000;33.69375
 781.11;   44.460;    2.318;    0.000;42.14250
 781.37;   21.940;    0.714;    0.000;21.22625
 781.63;   46.960;    0.601;    0.000;46.35875
 781.88;   30.670;    0.507;    0.000;30.16250
 782.14;   30.000;    2.296;    0.000;27.70375
 782.39;   38.540;    1.691;    0.000;36.84875
 782.65;   39.310;    0.065;    0.000;39.24500
 782.91;   37.870;    2.026;    0.000;35.84375
 783.16;   28.260;    1.395;    0.000;26.86500
 783.42;   19.230;    0.733;    0.000;18.49750
 783.67;   38.630;    2.081;    0.000;36.54875
 783.93;   22.560;    0.939;    0.000;21.62125
 784.19;   28.150;    1.356;    0.000;26.79375
 784.44;   34.100;    2.641;    0.000;31.45875
 784.70;   36.080;    3.922;    0.000;32.15750
 784.96;   17.860;   -0.010;    0.000;17.87000
 785.21;   28.350;    0.863;    0.000;27.48750
 785.47;   35.120;    1.643;    0.000;33.47750
 785.72;   16.180;    0.114;    0.000;16.06625
 785.98;   11.230;   -0.705;    0.000;11.93500
 786.23;   14.660;    1.793;    0.000;12.86750
 786.49;   16.540;    0.989;    0.000;15.55125
 786.75;   19.380;    3.019;    0.000;16.36125
 787.00;   10.770;    0.529;    0.000;10.24125
 787.26;   16.300;    1.590;    0.000;14.71000
 787.51;   22.540;    0.141;    0.000;22.39875
 787.77;   30.360;    1.200;    0.000;29.16000
 788.02;   21.430;    1.789;    0.000;19.64125
 788.28;   15.180;    0.800;    0.000;14.38000
 788.54;   17.640;   -0.199;    0.000;17.83875
 788.79;   27.860;    0.516;    0.000;27.34375
 789.05;    7.870;    3.386;    0.000; 4.48375
 789.30;   14.300;    5.298;    0.000; 9.00250
 789.56;    6.990;    1.327;    0.000; 5.66250
 789.81;   12.720;    2.234;    0.000;10.48625
 790.07;   -3.640;   -0.301;    0.000;-3.33875
 790.32;   12.400;    1.149;    0.000;11.25125
 790.58;    0.360;    1.655;    0.000;-1.29500
 790.83;    8.050;    5.036;    0.000; 3.01375
 791.09;    1.030;    0.239;    0.000; 0.79125
 791.35;    2.100;    0.884;    0.000; 1.21625
 791.60;   -1.690;    1.294;    0.000;-2.98375
 791.86;    8.000;    3.580;    0.000; 4.42000
 792.11;   13.750;    0.661;    0.000;13.08875
 792.37;    4.190;    2.549;    0.000; 1.64125
 792.62;    6.595;    2.610;    0.000; 3.98500
 792.88;    9.000;    2.671;    0.000; 6.32875
 793.13;    4.810;    1.554;    0.000; 3.25625
 793.39;    1.110;    2.964;    0.000;-1.85375
 793.64;   -8.660;    1.725;    0.000;-10.38500
 793.90;   12.320;    0.824;    0.000;11.49625
 794.15;   -2.670;    4.068;    0.000;-6.73750
 794.41;   10.670;    2.352;    0.000; 8.31750
 794.66;    9.040;    1.508;    0.000; 7.53250
 794.92;   -1.160;    4.101;    0.000;-5.26125
 795.17;  -11.440;   -0.748;    0.000;-10.69250
 795.43;   -4.010;    2.310;    0.000;-6.32000
 795.68;   -3.250;    1.050;    0.000;-4.30000
 795.94;    6.010;    2.206;    0.000; 3.80375
 796.19;    1.490;    2.890;    0.000;-1.40000
 796.44;   -1.510;    2.810;    0.000;-4.32000
 796.70;   -2.880;   -0.166;    0.000;-2.71375
 796.95;    1.860;    4.159;    0.000;-2.29875
 797.21;   -5.650;    0.479;    0.000;-6.12875
 797.46;   -2.290;   -2.271;    0.000;-0.01875
 797.72;  -10.900;   -0.439;    0.000;-10.46125
 797.97;  -10.860;    0.895;    0.000;-11.75500
 798.23;   -3.990;    5.259;    0.000;-9.24875
 798.48;   -3.030;    0.045;    0.000;-3.07500
 798.74;   -9.770;    0.639;    0.000;-10.40875
 798.99;  -13.870;    2.686;    0.000;-16.55625
 799.24;  -14.770;    3.122;    0.000;-17.89250
 799.50;   -9.850;    1.000;    0.000;-10.85000
 799.75;   -8.190;   -0.770;    0.000;-7.42000
 800.01;  -12.190;   -0.245;    0.000;-11.94500
 800.26;  -18.910;   -0.215;    0.000;-18.69500
 800.52;  -17.610;    2.511;    0.000;-20.12125
 800.77;  -23.640;    2.716;    0.000;-26.35625
 801.02;  -16.010;    1.580;    0.000;-17.59000
 801.28;  -22.080;   -0.673;    0.000;-21.40750
 801.53;   -5.710;    0.356;    0.000;-6.06625
 801.79;  -14.530;    3.321;    0.000;-17.85125
 802.04;   -7.520;    1.775;    0.000;-9.29500
 802.29;  -14.800;    1.541;    0.000;-16.34125
 802.55;  -12.510;   -0.161;    0.000;-12.34875
 802.80;   -7.310;    1.750;    0.000;-9.06000
 803.06;   -8.010;    1.202;    0.000;-9.21250
 803.31;  -24.150;    2.051;    0.000;-26.20125
 803.56;  -13.070;    1.589;    0.000;-14.65875
 803.82;  -20.330;    1.819;    0.000;-22.14875
 804.07;  -19.210;    1.121;    0.000;-20.33125
 804.32;  -21.260;    2.470;    0.000;-23.73000
 804.58;  -19.180;    0.745;    0.000;-19.92500
 804.83;  -21.270;    2.861;    0.000;-24.13125
 805.09;  -10.120;    2.116;    0.000;-12.23625
 805.34;  -15.370;    2.130;    0.000;-17.50000
 805.59;   -9.580;    1.832;    0.000;-11.41250
 805.85;  -19.370;    2.691;    0.000;-22.06125
 806.10;   -7.660;    4.224;    0.000;-11.88375
 806.35;  -12.500;    1.335;    0.000;-13.83500
 806.61;  -11.820;    3.255;    0.000;-15.07500
 806.86;  -31.480;    2.753;    0.000;-34.23250
 807.11;  -15.910;    2.922;    0.000;-18.83250
 807.37;  -15.770;    2.905;    0.000;-18.67500
 807.62;  -20.740;    1.607;    0.000;-22.34750
 807.87;  -24.780;    6.104;    0.000;-30.88375
 808.13;  -24.820;    0.795;    0.000;-25.61500
 808.38;  -24.000;   -0.554;    0.000;-23.44625
 808.63;  -16.030;    4.699;    0.000;-20.72875
 808.89;  -29.190;   -1.511;    0.000;-27.67875
 809.14;  -30.560;    1.401;    0.000;-31.96125
 809.39;  -25.730;   -2.053;    0.000;-23.67750
 809.65;  -29.520;    1.450;    0.000;-30.97000
 809.90;  -23.240;    3.850;    0.000;-27.09000
 810.15;  -28.110;    2.366;    0.000;-30.47625
 810.41;  -25.090;    0.111;    0.000;-25.20125
 810.66;  -16.780;    1.721;    0.000;-18.50125
 810.91;  -22.920;    0.284;    0.000;-23.20375
 811.16;  -24.070;    3.254;    0.000;-27.32375
 811.42;  -25.440;    1.806;    0.000;-27.24625
 811.67;  -22.590;    5.146;    0.000;-27.73625
 811.92;  -40.530;    1.339;    0.000;-41.86875
 812.18;  -21.510;    3.764;    0.000;-25.27375
 812.43;  -39.610;    0.262;    0.000;-39.87250
 812.68;  -26.970;   -0.415;    0.000;-26.55500
 812.93;  -35.860;   -0.444;    0.000;-35.41625
 813.19;  -16.780;    3.415;    0.000;-20.19500
 813.44;  -37.700;   -0.468;    0.000;-37.23250
 813.69;  -27.950;    3.735;    0.000;-31.68500
 813.95;  -25.010;    0.120;    0.000;-25.13000
 814.20;  -32.490;    1.482;    0.000;-33.97250
 814.45;  -37.800;    1.362;    0.000;-39.16250
 814.70;  -24.920;    2.450;    0.000;-27.37000
 814.96;  -36.370;    1.610;    0.000;-37.98000
 815.21;  -25.410;    0.421;    0.000;-25.83125
 815.46;  -38.290;    3.360;    0.000;-41.65000
 815.71;  -27.460;    1.746;    0.000;-29.20625
 815.96;  -34.980;    1.210;    0.000;-36.19000
 816.22;  -26.660;    3.869;    0.000;-30.52875
 816.47;  -32.600;    1.704;    0.000;-34.30375
 816.72;  -23.040;    2.375;    0.000;-25.41500
 816.97;  -23.710;    0.006;    0.000;-23.71625
 817.23;  -26.470;    2.188;    0.000;-28.65750
 817.48;  -32.610;    0.579;    0.000;-33.18875
 817.73;  -33.050;    1.298;    0.000;-34.34750
 817.98;  -24.990;    4.060;    0.000;-29.05000
 818.23;  -30.900;    2.849;    0.000;-33.74875
 818.49;  -37.000;    2.114;    0.000;-39.11375
 818.74;  -18.150;    3.495;    0.000;-21.64500
 818.99;  -34.180;    3.039;    0.000;-37.21875
 819.24;  -19.350;    4.864;    0.000;-24.21375
 819.50;  -44.440;   -0.814;    0.000;-43.62625
 819.75;  -27.310;    1.827;    0.000;-29.13750
 820.00;  -15.760;    2.721;    0.000;-18.48125
 820.25;  -31.990;    2.957;    0.000;-34.94750
 820.50;  -38.030;    0.806;    0.000;-38.83625
 820.75;  -29.610;    2.321;    0.000;-31.93125
 821.01;  -37.200;   -0.526;    0.000;-36.67375
 821.26;  -31.050;    2.589;    0.000;-33.63875
 821.51;  -28.400;    1.920;    0.000;-30.32000
 821.76;  -37.950;    2.214;    0.000;-40.16375
 822.01;  -30.670;    2.021;    0.000;-32.69125
 822.26;  -26.080;    2.135;    0.000;-28.21500
 822.52;  -35.320;    0.341;    0.000;-35.66125
 822.77;  -33.410;    2.754;    0.000;-36.16375
 823.02;  -40.100;    3.078;    0.000;-43.17750
 823.27;  -32.520;    2.414;    0.000;-34.93375
 823.52;  -33.690;   -1.496;    0.000;-32.19375
 823.77;  -32.430;    2.965;    0.000;-35.39500
 824.03;  -30.340;   -1.638;    0.000;-28.70250
 824.28;  -39.700;    1.317;    0.000;-41.01750
 824.53;  -41.830;    1.336;    0.000;-43.16625
 824.78;  -33.390;    0.855;    0.000;-34.24500
 825.03;  -43.180;    2.570;    0.000;-45.75000
 825.28;  -35.390;    2.166;    0.000;-37.55625
 825.53;  -35.960;    2.836;    0.000;-38.79625
 825.78;  -24.750;    2.856;    0.000;-27.60625
 826.04;  -33.670;   -0.415;    0.000;-33.25500
 826.29;  -42.010;    0.965;    0.000;-42.97500
 826.54;  -34.600;    0.800;    0.000;-35.40000
 826.79;  -37.380;    0.228;    0.000;-37.60750
 827.04;  -39.460;    2.715;    0.000;-42.17500
 827.29;  -33.490;    2.820;    0.000;-36.31000
 827.54;  -42.670;    1.196;    0.000;-43.86625
 827.79;  -39.240;    0.577;    0.000;-39.81750
 828.04;  -32.300;    1.154;    0.000;-33.45375
 828.29;  -36.760;    2.582;    0.000;-39.34250
 828.55;  -43.490;    0.469;    0.000;-43.95875
 828.80;  -36.460;    3.072;    0.000;-39.53250
 829.05;  -43.690;    0.731;    0.000;-44.42125
 829.30;  -40.190;    2.580;    0.000;-42.77000
 829.55;  -47.890;    0.910;    0.000;-48.80000
 829.80;  -31.390;    4.061;    0.000;-35.45125
 830.05;  -48.110;   -0.123;    0.000;-47.98750
 830.30;  -47.270;    2.500;    0.000;-49.77000
 830.55;  -49.130;    1.209;    0.000;-50.33875
 830.80;  -45.720;    0.980;    0.000;-46.70000
 831.05;  -45.560;    1.500;    0.000;-47.06000
 831.30;  -33.370;    2.391;    0.000;-35.76125
 831.55;  -38.810;    2.223;    0.000;-41.03250
 831.80;  -39.150;    2.836;    0.000;-41.98625
 832.05;  -30.460;    1.240;    0.000;-31.70000
 832.30;  -25.550;    2.408;    0.000;-27.95750
 832.56;  -44.880;    2.081;    0.000;-46.96125
 832.81;  -44.030;    1.378;    0.000;-45.40750
 833.06;  -39.300;    4.117;    0.000;-43.41750
 833.31;  -45.880;    2.487;    0.000;-48.36750
 833.56;  -42.700;    0.243;    0.000;-42.94250
 833.81;  -40.530;    2.466;    0.000;-42.99625
 834.06;  -45.080;    1.622;    0.000;-46.70250
 834.31;  -41.760;    3.581;    0.000;-45.34125
 834.56;  -41.540;    4.500;    0.000;-46.04000
 834.81;  -49.080;    1.409;    0.000;-50.48875
 835.06;  -46.780;    0.406;    0.000;-47.18625
 835.31;  -33.380;    3.463;    0.000;-36.84250
 835.56;  -39.810;   -0.016;    0.000;-39.79375
 835.81;  -37.380;    2.260;    0.000;-39.64000
 836.06;  -39.110;    1.614;    0.000;-40.72375
 836.31;  -46.190;    2.148;    0.000;-48.33750
 836.56;  -57.060;    3.629;    0.000;-60.68875
 836.81;  -53.080;    2.047;    0.000;-55.12750
 837.06;  -35.940;    0.816;    0.000;-36.75625
 837.31;  -48.150;    1.456;    0.000;-49.60625
 837.56;  -48.280;    1.783;    0.000;-50.06250
 837.81;  -45.620;    2.975;    0.000;-48.59500
 838.06;  -41.440;    4.039;    0.000;-45.47875
 838.31;  -42.770;    0.147;    0.000;-42.91750
 838.56;  -58.360;    1.841;    0.000;-60.20125
 838.80;  -41.240;    2.314;    0.000;-43.55375
 839.05;  -46.820;    1.386;    0.000;-48.20625
 839.30;  -48.870;    0.001;    0.000;-48.87125
 839.55;  -49.530;    0.301;    0.000;-49.83125
 839.80;  -40.040;    3.539;    0.000;-43.57875
 840.05;  -49.720;    1.010;    0.000;-50.73000
 840.30;  -37.580;    4.226;    0.000;-41.80625
 840.55;  -46.790;    1.514;    0.000;-48.30375
 840.80;  -36.640;    4.875;    0.000;-41.51500
 841.05;  -47.540;    0.784;    0.000;-48.32375
 841.30;  -40.920;    3.494;    0.000;-44.41375
 841.55;  -59.620;   -0.995;    0.000;-58.62500
 841.80;  -49.920;    1.559;    0.000;-51.47875
 842.05;  -56.350;   -1.285;    0.000;-55.06500
 842.30;  -44.850;    2.414;    0.000;-47.26375
 842.55;  -45.360;    1.058;    0.000;-46.41750
 842.79;  -48.550;    1.925;    0.000;-50.47500
 843.04;  -36.050;    0.854;    0.000;-36.90375
 843.29;  -39.440;    2.419;    0.000;-41.85875
 843.54;  -48.480;    4.284;    0.000;-52.76375
 843.79;  -52.050;    1.813;    0.000;-53.86250
 844.04;  -56.090;    4.705;    0.000;-60.79500
 844.29;  -47.000;    2.770;    0.000;-49.77000
 844.54;  -57.800;    1.173;    0.000;-58.97250
 844.79;  -44.350;    3.172;    0.000;-47.52250
 845.04;  -46.620;   -1.031;    0.000;-45.58875
 845.28;  -47.440;    3.310;    0.000;-50.75000
 845.53;  -50.560;    1.750;    0.000;-52.31000
 845.78;  -44.490;    1.957;    0.000;-46.44750
 846.03;  -56.980;    1.346;    0.000;-58.32625
 846.28;  -45.600;    2.110;    0.000;-47.71000
 846.53;  -40.350;    0.154;    0.000;-40.50375
 846.78;  -33.990;    4.660;    0.000;-38.65000
 847.02;  -39.490;    2.714;    0.000;-42.20375
 847.27;  -45.260;    1.837;    0.000;-47.09750
 847.52;  -59.040;    3.047;    0.000;-62.08750
 847.77;  -47.150;    3.314;    0.000;-50.46375
 848.02;  -55.650;   -0.440;    0.000;-55.21000
 848.27;  -47.560;    3.787;    0.000;-51.34750
 848.52;  -58.090;    2.264;    0.000;-60.35375
 848.76;  -44.420;    0.844;    0.000;-45.26375
 849.01;  -52.280;    2.570;    0.000;-54.85000
 849.26;  -60.040;    0.859;    0.000;-60.89875
 849.51;  -53.940;    3.328;    0.000;-57.26750
 849.76;  -43.620;    1.469;    0.000;-45.08875
 850.01;  -57.180;    0.701;    0.000;-57.88125
 850.25;  -53.940;    0.585;    0.000;-54.52500
 850.50;  -60.750;    0.848;    0.000;-61.59750
 850.75;  -51.240;    1.875;    0.000;-53.11500
 851.00;  -55.820;   -0.499;    0.000;-55.32125
 851.25;  -45.210;    3.796;    0.000;-49.00625
 851.49;  -63.210;    3.533;    0.000;-66.74250
 851.74;  -59.340;   -0.102;    0.000;-59.23750
 851.99;  -47.630;    2.578;    0.000;-50.20750
 852.24;  -58.410;    0.231;    0.000;-58.64125
 852.49;  -64.760;    0.465;    0.000;-65.22500
 852.73;  -58.230;    2.121;    0.000;-60.35125
 852.98;  -63.120;    0.601;    0.000;-63.72125
 853.23;  -44.740;    4.595;    0.000;-49.33500
 853.48;  -65.220;   -0.339;    0.000;-64.88125
 853.73;  -51.620;    1.725;    0.000;-53.34500
 853.97;  -51.690;    1.999;    0.000;-53.68875
 854.22;  -56.050;    2.446;    0.000;-58.49625
 854.47;  -57.410;    2.151;    0.000;-59.56125
 854.72;  -50.910;    1.765;    0.000;-52.67500
 854.96;  -58.410;    2.703;    0.000;-61.11250
 855.21;  -48.780;    1.244;    0.000;-50.02375
 855.46;  -46.710;    0.944;    0.000;-47.65375
 855.71;  -68.240;    0.262;    0.000;-68.50250
 855.95;  -59.800;    2.922;    0.000;-62.72250
 856.20;  -57.840;    2.591;    0.000;-60.43125
 856.45;  -57.970;    1.355;    0.000;-59.32500
 856.70;  -50.880;    4.641;    0.000;-55.52125
 856.94;  -59.940;    1.589;    0.000;-61.52875
 857.19;  -50.820;    2.404;    0.000;-53.22375
 857.44;  -57.730;    1.933;    0.000;-59.66250
 857.69;  -61.180;    5.104;    0.000;-66.28375
 857.93;  -57.910;    3.511;    0.000;-61.42125
 858.18;  -48.180;    1.986;    0.000;-50.16625
 858.43;  -57.560;   -0.159;    0.000;-57.40125
 858.67;  -53.080;    5.415;    0.000;-58.49500
 858.92;  -62.960;    1.999;    0.000;-64.95875
 859.17;  -26.600;    4.201;    0.000;-30.80125
 859.42;  -64.380;    0.545;    0.000;-64.92500
 859.66;  -55.690;    3.158;    0.000;-58.84750
 859.91;  -59.840;   -0.270;    0.000;-59.57000
 860.16;  -61.540;    1.684;    0.000;-63.22375
 860.40;  -58.050;    1.197;    0.000;-59.24750
 860.65;  -55.970;    1.515;    0.000;-57.48500
 860.90;  -65.790;   -0.985;    0.000;-64.80500
 861.14;  -57.710;    0.160;    0.000;-57.87000
 861.39;  -61.750;    0.465;    0.000;-62.21500
 861.64;  -59.230;    3.563;    0.000;-62.79250
 861.88;  -67.620;    3.859;    0.000;-71.47875
 862.13;  -56.540;    2.254;    0.000;-58.79375
 862.38;  -71.370;    0.489;    0.000;-71.85875
 862.62;  -57.950;    1.619;    0.000;-59.56875
 862.87;  -59.540;    0.080;    0.000;-59.62000
 863.12;  -57.320;    0.527;    0.000;-57.84750
 863.36;  -65.480;    3.011;    0.000;-68.49125
 863.61;  -47.650;    2.111;    0.000;-49.76125
 863.86;  -63.270;    0.804;    0.000;-64.07375
 864.10;  -60.010;    2.416;    0.000;-62.42625
 864.35;  -60.570;    1.164;    0.000;-61.73375
 864.60;  -55.760;    0.605;    0.000;-56.36500
 864.84;  -65.030;    1.896;    0.000;-66.92625
 865.09;  -59.310;    2.196;    0.000;-61.50625
 865.33;  -64.750;    3.348;    0.000;-68.09750
 865.58;  -54.060;    3.236;    0.000;-57.29625
 865.83;  -68.210;    2.321;    0.000;-70.53125
 866.07;  -61.690;    2.855;    0.000;-64.54500
 866.32;  -42.480;    2.915;    0.000;-45.39500
 866.57;  -51.040;   -1.800;    0.000;-49.24000
 866.81;  -60.830;    1.764;    0.000;-62.59375
 867.06;  -62.580;   -0.352;    0.000;-62.22750
 867.30;  -67.580;   -0.220;    0.000;-67.36000
 867.55;  -57.350;    1.786;    0.000;-59.13625
 867.80;  -59.530;    2.810;    0.000;-62.34000
 868.04;  -58.350;    4.080;    0.000;-62.43000
 868.29;  -63.230;    3.003;    0.000;-66.23250
 868.53;  -59.630;    3.311;    0.000;-62.94125
 868.78;  -64.660;   -0.996;    0.000;-63.66375
 869.03;  -59.230;    2.876;    0.000;-62.10625
 869.27;  -65.880;    2.398;    0.000;-68.27750
 869.52;  -58.010;    3.370;    0.000;-61.38000
 869.76;  -52.550;    2.531;    0.000;-55.08125
 870.01;  -52.210;    3.679;    0.000;-55.88875
 870.25;  -55.610;    3.981;    0.000;-59.59125
 870.50;  -55.620;    2.935;    0.000;-58.55500
 870.75;  -66.380;    0.636;    0.000;-67.01625
 870.99;  -56.170;    0.940;    0.000;-57.11000
 871.24;  -66.150;    0.904;    0.000;-67.05375
 871.48;  -52.020;    5.313;    0.000;-57.33250
 871.73;  -64.470;    2.930;    0.000;-67.40000
 871.97;  -59.910;    2.589;    0.000;-62.49875
 872.22;  -71.310;    3.342;    0.000;-74.65250
 872.46;  -55.760;    2.088;    0.000;-57.84750
 872.71;  -71.650;    0.244;    0.000;-71.89375
 872.95;  -55.480;    2.320;    0.000;-57.80000
 873.20;  -59.140;    2.894;    0.000;-62.03375
 873.44;  -53.070;    4.470;    0.000;-57.54000
 873.69;  -61.930;    2.315;    0.000;-64.24500
 873.94;  -50.620;    3.934;    0.000;-54.55375
 874.18;  -62.940;    1.847;    0.000;-64.78750
 874.43;  -58.380;    2.386;    0.000;-60.76625
 874.67;  -56.980;   -0.515;    0.000;-56.46500
 874.92;  -46.410;    1.961;    0.000;-48.37125
 875.16;  -65.010;    4.129;    0.000;-69.13875
 875.41;  -63.790;    0.016;    0.000;-63.80625
 875.65;  -60.150;   -0.228;    0.000;-59.92250
 875.90;  -51.130;    5.189;    0.000;-56.31875
 876.14;  -70.680;    2.056;    0.000;-72.73625
 876.39;  -58.520;    3.029;    0.000;-61.54875
 876.63;  -71.800;    2.815;    0.000;-74.61500
 876.88;  -60.380;    1.354;    0.000;-61.73375
 877.12;  -58.130;    1.954;    0.000;-60.08375
 877.36;  -59.060;    1.592;    0.000;-60.65250
 877.61;  -70.680;    1.324;    0.000;-72.00375
 877.85;  -48.550;    3.668;    0.000;-52.21750
 878.10;  -62.790;    1.811;    0.000;-64.60125
 878.34;  -54.590;    4.662;    0.000;-59.25250
 878.59;  -54.770;    3.560;    0.000;-58.33000
 878.83;  -60.980;    3.334;    0.000;-64.31375
 879.08;  -59.220;    4.274;    0.000;-63.49375
 879.32;  -57.280;    3.205;    0.000;-60.48500
 879.57;  -48.260;    3.221;    0.000;-51.48125
 879.81;  -60.230;    0.571;    0.000;-60.80125
 880.05;  -57.630;    2.775;    0.000;-60.40500
 880.30;  -54.850;    1.899;    0.000;-56.74875
 880.54;  -60.280;    2.659;    0.000;-62.93875
 880.79;  -55.510;    1.919;    0.000;-57.42875
 881.03;  -60.970;    1.780;    0.000;-62.75000
 881.28;  -44.900;    4.125;    0.000;-49.02500
 881.52;  -65.880;    4.539;    0.000;-70.41875
 881.76;  -55.950;    2.729;    0.000;-58.67875
 882.01;  -65.440;    1.770;    0.000;-67.21000
 882.25;  -56.500;    5.285;    0.000;-61.78500
 882.50;  -63.640;    1.586;    0.000;-65.22625
 882.74;  -54.020;    1.505;    0.000;-55.52500
 882.98;  -59.790;    2.839;    0.000;-62.62875
 883.23;  -56.960;    1.059;    0.000;-58.01875
 883.47;  -59.220;    4.950;    0.000;-64.17000
 883.72;  -51.330;    4.606;    0.000;-55.93625
 883.96;  -53.950;    4.194;    0.000;-58.14375
 884.20;  -60.810;    1.607;    0.000;-62.41750
 884.45;  -54.680;    3.172;    0.000;-57.85250
 884.69;  -46.310;    5.045;    0.000;-51.35500
 884.94;  -44.910;    3.589;    0.000;-48.49875
 885.18;  -59.190;    2.435;    0.000;-61.62500
 885.42;  -62.000;    2.079;    0.000;-64.07875
 885.67;  -45.590;    3.995;    0.000;-49.58500
 885.91;  -63.700;    1.904;    0.000;-65.60375
 886.15;  -48.880;    1.859;    0.000;-50.73875
 886.40;  -58.630;    1.438;    0.000;-60.06750
 886.64;  -54.320;    3.661;    0.000;-57.98125
 886.88;  -55.400;    2.609;    0.000;-58.00875
 887.13;  -42.200;    3.316;    0.000;-45.51625
 887.37;  -61.330;    2.561;    0.000;-63.89125
 887.62;  -43.980;    4.399;    0.000;-48.37875
 887.86;  -55.640;    3.491;    0.000;-59.13125
 888.10;  -50.420;    5.320;    0.000;-55.74000
 888.35;  -54.760;    4.015;    0.000;-58.77500
 888.59;  -52.980;    5.435;    0.000;-58.41500
 888.83;  -53.130;    3.104;    0.000;-56.23375
 889.07;  -51.680;    3.310;    0.000;-54.99000
 889.32;  -52.640;    5.429;    0.000;-58.06875
 889.56;  -52.030;    3.888;    0.000;-55.91750
 889.80;  -51.760;    2.438;    0.000;-54.19750
 890.05;  -44.580;    2.096;    0.000;-46.67625
 890.29;  -60.910;    3.392;    0.000;-64.30250
 890.53;  -46.510;    4.108;    0.000;-50.61750
 890.78;  -55.080;    3.010;    0.000;-58.09000
 891.02;  -45.920;    3.884;    0.000;-49.80375
 891.26;  -53.620;    4.090;    0.000;-57.71000
 891.51;  -39.220;    3.727;    0.000;-42.94750
 891.75;  -47.390;    1.636;    0.000;-49.02625
 891.99;  -48.640;    4.133;    0.000;-52.77250
 892.23;  -54.190;    1.094;    0.000;-55.28375
 892.48;  -44.310;    6.174;    0.000;-50.48375
 892.72;  -50.300;    4.309;    0.000;-54.60875
 892.96;  -37.560;    6.463;    0.000;-44.02250
 893.20;  -53.170;    3.534;    0.000;-56.70375
 893.45;  -53.790;    4.674;    0.000;-58.46375
 893.69;  -51.150;    4.350;    0.000;-55.50000
 893.93;  -38.720;    3.811;    0.000;-42.53125
 894.17;  -49.200;    3.632;    0.000;-52.83250
 894.42;  -46.700;    3.563;    0.000;-50.26250
 894.66;  -42.470;    3.575;    0.000;-46.04500
 894.90;  -40.220;    4.434;    0.000;-44.65375
 895.14;  -44.610;    5.156;    0.000;-49.76625
 895.39;  -44.200;    2.453;    0.000;-46.65250
 895.63;  -42.010;    3.581;    0.000;-45.59125
 895.87;  -40.530;    2.703;    0.000;-43.23250
 896.11;  -39.470;    3.902;    0.000;-43.37250
 896.36;  -35.350;    4.361;    0.000;-39.71125
 896.60;  -46.360;    4.684;    0.000;-51.04375
 896.84;  -29.780;    7.503;    0.000;-37.28250
 897.08;  -33.100;    7.704;    0.000;-40.80375
 897.32;  -25.140;    6.090;    0.000;-31.23000
 897.57;  -36.960;    5.235;    0.000;-42.19500
 897.81;  -30.660;    6.305;    0.000;-36.96500
 898.05;  -35.870;    6.220;    0.000;-42.09000
 898.29;  -28.150;    6.834;    0.000;-34.98375
 898.53;  -23.590;    5.426;    0.000;-29.01625
 898.78;  -19.790;    7.475;    0.000;-27.26500
 899.02;  -24.120;    5.856;    0.000;-29.97625
 899.26;  -19.470;    8.570;    0.000;-28.04000
 899.50;   -3.140;    7.455;    0.000;-10.59500
 899.74;   -6.630;    5.930;    0.000;-12.56000
 899.99;  -12.140;    9.002;    0.000;-21.14250
 900.23;   -4.760;    9.759;    0.000;-14.51875
 900.47;  -12.220;    9.193;    0.000;-21.41250
 900.71;    7.090;    9.520;    0.000;-2.43000
 900.95;    7.620;    9.591;    0.000;-1.97125
 901.19;   21.340;    9.936;    0.000;11.40375
 901.44;   20.760;   11.654;    0.000; 9.10625
 901.68;   36.460;   11.363;    0.000;25.09750
 901.92;   40.340;   12.930;    0.000;27.41000
 902.16;   54.270;   12.275;    0.000;41.99500
 902.40;   52.440;   15.089;    0.000;37.35125
 902.64;   77.540;   18.999;    0.000;58.54125
 902.88;   97.650;   18.346;    0.000;79.30375
 903.13;  120.120;   19.689;    0.000;100.43125

