p2
Integration time [ms]:  20.000
Averaging Nr. [scans]: 50
Smoothing Nr. [pixels]: 0
Data measured with spectrometer [name]: 1307077U2
Wave   ;Sample   ;Dark     ;Reference;Scope Corrected for Dark
[nm]   ;[counts] ;[counts] ;[counts] 

 350.80;   20.200;   -3.950;    0.000;24.15000
 351.10;    1.300;    2.790;    0.000;-1.49000
 351.39;    6.360;   -5.780;    0.000;12.14000
 351.69;   10.180;   -6.710;    0.000;16.89000
 351.99;   11.220;  -10.760;    0.000;21.98000
 352.28;   -9.020;  -11.870;    0.000; 2.85000
 352.58;    5.700;    2.640;    0.000; 3.06000
 352.88;   -2.860;   -3.560;    0.000; 0.70000
 353.17;   20.380;   -1.460;    0.000;21.84000
 353.47;   -1.820;   -7.300;    0.000; 5.48000
 353.76;   12.820;    3.730;    0.000; 9.09000
 354.06;   12.120;    1.480;    0.000;10.64000
 354.36;   13.280;    2.120;    0.000;11.16000
 354.65;   26.860;   12.260;    0.000;14.60000
 354.95;    9.520;    1.380;    0.000; 8.14000
 355.24;   15.100;   -7.520;    0.000;22.62000
 355.54;    9.700;   -6.140;    0.000;15.84000
 355.84;    3.000;    1.010;    0.000; 1.99000
 356.13;   28.340;    1.060;    0.000;27.28000
 356.43;    1.220;   -3.280;    0.000; 4.50000
 356.72;    0.200;   -7.820;    0.000; 8.02000
 357.02;   18.800;    1.340;    0.000;17.46000
 357.31;   33.440;    4.400;    0.000;29.04000
 357.61;   11.940;    0.390;    0.000;11.55000
 357.91;   -0.080;   -9.460;    0.000; 9.38000
 358.20;   -5.660;   -6.210;    0.000; 0.55000
 358.50;    0.360;   -0.320;    0.000; 0.68000
 358.79;    3.260;   -0.240;    0.000; 3.50000
 359.09;   21.600;    4.600;    0.000;17.00000
 359.38;   -3.920;   -4.910;    0.000; 0.99000
 359.68;  -16.200;   -6.920;    0.000;-9.28000
 359.98;   14.680;   -3.210;    0.000;17.89000
 360.27;    7.360;   -5.880;    0.000;13.24000
 360.57;    1.780;   -6.850;    0.000; 8.63000
 360.86;   17.460;   -3.030;    0.000;20.49000
 361.16;   -3.160;  -10.940;    0.000; 7.78000
 361.45;   15.200;   -3.610;    0.000;18.81000
 361.75;   -3.420;   -6.330;    0.000; 2.91000
 362.04;   40.520;    7.330;    0.000;33.19000
 362.34;    0.880;   -8.080;    0.000; 8.96000
 362.64;   13.600;   -4.150;    0.000;17.75000
 362.93;    6.960;  -11.650;    0.000;18.61000
 363.23;    3.600;   -3.380;    0.000; 6.98000
 363.52;   -3.700;   -7.930;    0.000; 4.23000
 363.82;   -9.900;   -3.630;    0.000;-6.27000
 364.11;   11.780;   -3.640;    0.000;15.42000
 364.41;   -8.200;   -7.090;    0.000;-1.11000
 364.70;   -7.420;   -9.000;    0.000; 1.58000
 365.00;   16.620;    0.260;    0.000;16.36000
 365.29;    3.260;   -7.370;    0.000;10.63000
 365.59;   -1.420;   -3.180;    0.000; 1.76000
 365.88;  -11.640;  -15.140;    0.000; 3.50000
 366.18;   13.820;   -3.430;    0.000;17.25000
 366.47;   -3.280;   -8.280;    0.000; 5.00000
 366.77;    9.000;   -6.540;    0.000;15.54000
 367.06;   -5.700;   -3.040;    0.000;-2.66000
 367.36;   12.380;   -6.830;    0.000;19.21000
 367.65;   16.720;   -1.150;    0.000;17.87000
 367.95;    0.980;   -6.850;    0.000; 7.83000
 368.24;   -0.520;   -4.930;    0.000; 4.41000
 368.54;    3.040;  -13.980;    0.000;17.02000
 368.83;   11.640;   -1.360;    0.000;13.00000
 369.13;   20.860;   -2.650;    0.000;23.51000
 369.42;   -1.200;   -5.530;    0.000; 4.33000
 369.72;    9.520;   -9.410;    0.000;18.93000
 370.01;   -0.260;   -1.870;    0.000; 1.61000
 370.31;   22.780;    2.490;    0.000;20.29000
 370.60;   41.500;   -0.490;    0.000;41.99000
 370.90;    9.100;   -4.910;    0.000;14.01000
 371.19;   -9.040;   -8.640;    0.000;-0.40000
 371.49;   -3.360;  -15.270;    0.000;11.91000
 371.78;   -1.620;  -12.190;    0.000;10.57000
 372.08;    3.240;   -4.150;    0.000; 7.39000
 372.37;   -0.860;   -7.430;    0.000; 6.57000
 372.67;   19.320;   -1.910;    0.000;21.23000
 372.96;   -2.340;   -4.090;    0.000; 1.75000
 373.26;    4.600;  -11.210;    0.000;15.81000
 373.55;    0.480;   -3.340;    0.000; 3.82000
 373.85;    2.660;  -14.000;    0.000;16.66000
 374.14;    9.800;   -0.440;    0.000;10.24000
 374.43;    7.280;   -4.860;    0.000;12.14000
 374.73;   -1.140;   -5.870;    0.000; 4.73000
 375.02;   15.720;   -6.640;    0.000;22.36000
 375.32;  -13.380;   -8.860;    0.000;-4.52000
 375.61;    7.420;   -4.690;    0.000;12.11000
 375.91;   -1.160;   -6.400;    0.000; 5.24000
 376.20;  -15.880;   -8.800;    0.000;-7.08000
 376.50;   -3.880;   -2.750;    0.000;-1.13000
 376.79;   -7.580;  -12.990;    0.000; 5.41000
 377.08;   -7.260;   -9.810;    0.000; 2.55000
 377.38;    1.720;   -9.410;    0.000;11.13000
 377.67;    5.060;  -15.820;    0.000;20.88000
 377.97;    5.780;  -12.430;    0.000;18.21000
 378.26;   10.520;   -3.550;    0.000;14.07000
 378.56;   -9.720;  -11.760;    0.000; 2.04000
 378.85;   14.260;   -6.770;    0.000;21.03000
 379.14;    0.100;  -10.870;    0.000;10.97000
 379.44;   -6.020;   -7.950;    0.000; 1.93000
 379.73;    4.860;  -12.070;    0.000;16.93000
 380.03;    0.760;  -10.640;    0.000;11.40000
 380.32;    0.040;  -10.740;    0.000;10.78000
 380.62;   -1.280;  -11.160;    0.000; 9.88000
 380.91;   11.720;   -2.790;    0.000;14.51000
 381.20;    7.080;   -6.380;    0.000;13.46000
 381.50;   -0.280;   -6.110;    0.000; 5.83000
 381.79;   -5.340;   -7.870;    0.000; 2.53000
 382.09;    8.760;   -7.030;    0.000;15.79000
 382.38;    1.160;  -10.330;    0.000;11.49000
 382.67;    0.460;  -10.730;    0.000;11.19000
 382.97;   -3.100;   -5.370;    0.000; 2.27000
 383.26;    0.500;   -3.260;    0.000; 3.76000
 383.56;    9.580;   -3.260;    0.000;12.84000
 383.85;    1.040;  -12.650;    0.000;13.69000
 384.14;    4.000;    0.820;    0.000; 3.18000
 384.44;    5.000;   -6.530;    0.000;11.53000
 384.73;    2.120;   -5.430;    0.000; 7.55000
 385.02;    6.180;   -6.450;    0.000;12.63000
 385.32;    9.920;   -4.570;    0.000;14.49000
 385.61;  -18.620;  -16.270;    0.000;-2.35000
 385.91;   13.780;   -9.440;    0.000;23.22000
 386.20;    6.440;  -10.110;    0.000;16.55000
 386.49;  -21.180;  -14.900;    0.000;-6.28000
 386.79;    5.740;   -7.340;    0.000;13.08000
 387.08;   -6.220;   -6.300;    0.000; 0.08000
 387.37;   16.040;   -8.420;    0.000;24.46000
 387.67;   -4.520;   -6.130;    0.000; 1.61000
 387.96;   -0.040;   -9.280;    0.000; 9.24000
 388.25;    0.220;   -1.410;    0.000; 1.63000
 388.55;  -10.040;  -10.080;    0.000; 0.04000
 388.84;   -3.120;  -12.690;    0.000; 9.57000
 389.14;    4.640;  -11.090;    0.000;15.73000
 389.43;   -1.740;   -9.030;    0.000; 7.29000
 389.72;   -8.540;  -13.300;    0.000; 4.76000
 390.02;  -12.680;   -9.420;    0.000;-3.26000
 390.31;    8.900;   -2.070;    0.000;10.97000
 390.60;    1.380;   -4.250;    0.000; 5.63000
 390.90;    0.580;  -15.000;    0.000;15.58000
 391.19;  -10.320;   -8.270;    0.000;-2.05000
 391.48;    6.500;  -13.200;    0.000;19.70000
 391.78;    1.880;   -9.570;    0.000;11.45000
 392.07;   71.660;   16.810;    0.000;54.85000
 392.36;    8.880;   -1.800;    0.000;10.68000
 392.66;   -0.840;  -11.850;    0.000;11.01000
 392.95;  -12.040;  -10.380;    0.000;-1.66000
 393.24;  -13.840;  -20.110;    0.000; 6.27000
 393.53;    3.060;   -8.500;    0.000;11.56000
 393.83;    0.300;  -10.870;    0.000;11.17000
 394.12;   -5.100;  -16.700;    0.000;11.60000
 394.41;    0.860;  -13.050;    0.000;13.91000
 394.71;    7.300;   -7.960;    0.000;15.26000
 395.00;   -0.880;  -12.500;    0.000;11.62000
 395.29;   -2.080;   -8.400;    0.000; 6.32000
 395.59;  -12.740;  -20.950;    0.000; 8.21000
 395.88;   -9.900;  -16.060;    0.000; 6.16000
 396.17;   -7.300;   -8.460;    0.000; 1.16000
 396.46;    4.000;   -3.560;    0.000; 7.56000
 396.76;   -5.760;  -13.050;    0.000; 7.29000
 397.05;   20.040;    2.180;    0.000;17.86000
 397.34;   -5.460;  -20.090;    0.000;14.63000
 397.64;    2.500;   -9.050;    0.000;11.55000
 397.93;    3.400;  -18.420;    0.000;21.82000
 398.22;  -15.540;  -12.920;    0.000;-2.62000
 398.51;    2.380;   -9.770;    0.000;12.15000
 398.81;   -2.580;  -12.510;    0.000; 9.93000
 399.10;   12.320;   -2.690;    0.000;15.01000
 399.39;   -0.300;  -11.900;    0.000;11.60000
 399.69;   -1.400;  -13.740;    0.000;12.34000
 399.98;   10.060;   -4.100;    0.000;14.16000
 400.27;  -10.940;  -13.520;    0.000; 2.58000
 400.56;    2.380;  -16.060;    0.000;18.44000
 400.86;    3.000;  -13.820;    0.000;16.82000
 401.15;   11.720;   -4.180;    0.000;15.90000
 401.44;  -14.660;  -15.730;    0.000; 1.07000
 401.73;   14.340;   -2.540;    0.000;16.88000
 402.03;   12.480;  -10.300;    0.000;22.78000
 402.32;  -17.660;  -17.030;    0.000;-0.63000
 402.61;   -7.060;   -9.950;    0.000; 2.89000
 402.90;  -18.860;  -11.420;    0.000;-7.44000
 403.20;    7.140;   -6.220;    0.000;13.36000
 403.49;   -0.100;   -6.030;    0.000; 5.93000
 403.78;    2.380;  -11.040;    0.000;13.42000
 404.07;  -13.860;  -18.650;    0.000; 4.79000
 404.37;    4.400;  -10.470;    0.000;14.87000
 404.66;   -3.000;  -14.960;    0.000;11.96000
 404.95;    0.400;   -0.330;    0.000; 0.73000
 405.24;   -9.420;  -15.620;    0.000; 6.20000
 405.53;   -9.220;  -15.660;    0.000; 6.44000
 405.83;   11.120;   -4.700;    0.000;15.82000
 406.12;   -8.940;  -10.900;    0.000; 1.96000
 406.41;   20.100;   -6.740;    0.000;26.84000
 406.70;   -7.200;  -12.650;    0.000; 5.45000
 407.00;    3.620;   -5.150;    0.000; 8.77000
 407.29;    8.460;  -10.150;    0.000;18.61000
 407.58;  -13.700;  -15.850;    0.000; 2.15000
 407.87;   -3.080;  -15.280;    0.000;12.20000
 408.16;  -17.940;  -17.930;    0.000;-0.01000
 408.46;   -8.800;  -11.550;    0.000; 2.75000
 408.75;   -0.200;  -11.910;    0.000;11.71000
 409.04;   -0.720;   -9.380;    0.000; 8.66000
 409.33;    2.860;   -5.530;    0.000; 8.39000
 409.62;    5.840;   -9.060;    0.000;14.90000
 409.92;    3.080;   -7.890;    0.000;10.97000
 410.21;    1.720;  -11.510;    0.000;13.23000
 410.50;  -15.040;  -15.240;    0.000; 0.20000
 410.79;   11.940;   -3.910;    0.000;15.85000
 411.08;    5.580;  -18.230;    0.000;23.81000
 411.37;   -0.180;  -12.950;    0.000;12.77000
 411.67;   -7.620;  -15.120;    0.000; 7.50000
 411.96;    1.580;  -13.530;    0.000;15.11000
 412.25;    2.760;  -11.720;    0.000;14.48000
 412.54;   -0.200;  -14.570;    0.000;14.37000
 412.83;  -10.960;  -15.690;    0.000; 4.73000
 413.13;    6.120;  -12.520;    0.000;18.64000
 413.42;    8.400;  -11.540;    0.000;19.94000
 413.71;    4.480;  -16.160;    0.000;20.64000
 414.00;  -12.100;  -15.050;    0.000; 2.95000
 414.29;   -2.740;  -10.400;    0.000; 7.66000
 414.58;    0.720;  -20.050;    0.000;20.77000
 414.87;   -6.420;  -11.570;    0.000; 5.15000
 415.17;   -9.960;  -14.460;    0.000; 4.50000
 415.46;   -4.460;  -14.740;    0.000;10.28000
 415.75;   -2.860;  -15.050;    0.000;12.19000
 416.04;    1.000;  -19.580;    0.000;20.58000
 416.33;   20.760;  -10.240;    0.000;31.00000
 416.62;  -10.540;  -16.750;    0.000; 6.21000
 416.91;    0.960;   -9.630;    0.000;10.59000
 417.21;   -9.740;   -9.770;    0.000; 0.03000
 417.50;  -14.860;  -22.390;    0.000; 7.53000
 417.79;  -10.140;  -14.440;    0.000; 4.30000
 418.08;   -4.240;  -16.260;    0.000;12.02000
 418.37;   -0.320;  -12.710;    0.000;12.39000
 418.66;  -14.300;  -14.780;    0.000; 0.48000
 418.95;   11.100;  -12.220;    0.000;23.32000
 419.24;    1.940;  -16.910;    0.000;18.85000
 419.54;    1.840;  -14.290;    0.000;16.13000
 419.83;   -4.280;   -7.000;    0.000; 2.72000
 420.12;   -5.080;  -17.080;    0.000;12.00000
 420.41;   17.100;   -6.120;    0.000;23.22000
 420.70;   -3.580;  -15.970;    0.000;12.39000
 420.99;   -1.720;   -7.860;    0.000; 6.14000
 421.28;    0.280;  -14.590;    0.000;14.87000
 421.57;    0.940;  -13.670;    0.000;14.61000
 421.86;   21.540;   -3.720;    0.000;25.26000
 422.16;    5.000;   -4.790;    0.000; 9.79000
 422.45;   -2.640;   -7.870;    0.000; 5.23000
 422.74;    4.860;  -11.510;    0.000;16.37000
 423.03;    8.880;   -8.230;    0.000;17.11000
 423.32;   -1.160;  -16.280;    0.000;15.12000
 423.61;   27.300;  -10.700;    0.000;38.00000
 423.90;    3.480;  -18.810;    0.000;22.29000
 424.19;   48.180;    3.040;    0.000;45.14000
 424.48;   -3.940;  -13.640;    0.000; 9.70000
 424.77;    7.100;  -15.110;    0.000;22.21000
 425.06;   -1.080;   -8.550;    0.000; 7.47000
 425.35;   10.340;  -12.070;    0.000;22.41000
 425.65;  -14.420;  -12.850;    0.000;-1.57000
 425.94;   -0.020;  -13.500;    0.000;13.48000
 426.23;   -5.940;  -18.630;    0.000;12.69000
 426.52;    0.020;  -18.760;    0.000;18.78000
 426.81;   24.340;   -4.960;    0.000;29.30000
 427.10;   -8.420;  -18.640;    0.000;10.22000
 427.39;    6.040;  -17.730;    0.000;23.77000
 427.68;    4.780;   -6.060;    0.000;10.84000
 427.97;    8.400;   -9.970;    0.000;18.37000
 428.26;   -7.500;  -21.550;    0.000;14.05000
 428.55;   16.840;   -7.010;    0.000;23.85000
 428.84;    1.100;  -15.510;    0.000;16.61000
 429.13;   -5.360;  -21.800;    0.000;16.44000
 429.42;    4.960;   -6.430;    0.000;11.39000
 429.71;    8.520;  -12.900;    0.000;21.42000
 430.00;   -0.360;  -27.260;    0.000;26.90000
 430.29;  -12.880;  -18.790;    0.000; 5.91000
 430.58;    4.300;  -19.950;    0.000;24.25000
 430.87;   -8.520;  -18.710;    0.000;10.19000
 431.16;   -5.620;  -27.130;    0.000;21.51000
 431.46;   13.020;  -12.580;    0.000;25.60000
 431.75;  -14.400;  -16.460;    0.000; 2.06000
 432.04;    5.880;  -12.750;    0.000;18.63000
 432.33;  -16.900;  -15.960;    0.000;-0.94000
 432.62;    0.600;  -16.610;    0.000;17.21000
 432.91;  -10.240;  -15.280;    0.000; 5.04000
 433.20;   -9.800;  -14.090;    0.000; 4.29000
 433.49;   -4.920;  -21.180;    0.000;16.26000
 433.78;   -4.660;  -15.380;    0.000;10.72000
 434.07;   -1.160;  -18.570;    0.000;17.41000
 434.36;   -9.780;  -18.360;    0.000; 8.58000
 434.65;  -20.980;  -19.110;    0.000;-1.87000
 434.94;   -1.740;  -16.660;    0.000;14.92000
 435.23;    4.980;  -14.870;    0.000;19.85000
 435.52;   -0.460;  -15.280;    0.000;14.82000
 435.81;   -6.320;  -19.590;    0.000;13.27000
 436.10;    8.100;   -8.920;    0.000;17.02000
 436.39;   16.080;   -9.090;    0.000;25.17000
 436.68;    1.400;   -9.150;    0.000;10.55000
 436.97;  -11.420;  -17.940;    0.000; 6.52000
 437.26;   -4.240;  -11.060;    0.000; 6.82000
 437.55;   10.940;  -14.150;    0.000;25.09000
 437.83;  -12.160;  -20.360;    0.000; 8.20000
 438.12;  -14.640;  -19.980;    0.000; 5.34000
 438.41;   -9.020;  -18.690;    0.000; 9.67000
 438.70;   32.560;   -6.450;    0.000;39.01000
 438.99;   16.760;   -3.000;    0.000;19.76000
 439.28;    4.560;  -13.960;    0.000;18.52000
 439.57;   -4.380;   -8.660;    0.000; 4.28000
 439.86;   -8.240;  -20.460;    0.000;12.22000
 440.15;    4.180;  -10.490;    0.000;14.67000
 440.44;   -0.040;  -14.790;    0.000;14.75000
 440.73;   -5.980;  -19.990;    0.000;14.01000
 441.02;   -3.640;  -18.940;    0.000;15.30000
 441.31;   10.060;  -17.020;    0.000;27.08000
 441.60;    0.120;  -10.820;    0.000;10.94000
 441.89;   -6.800;  -18.180;    0.000;11.38000
 442.18;    6.180;  -11.380;    0.000;17.56000
 442.47;  -11.360;  -20.660;    0.000; 9.30000
 442.76;   -5.580;  -17.440;    0.000;11.86000
 443.05;   16.520;   -6.670;    0.000;23.19000
 443.34;    6.360;  -21.050;    0.000;27.41000
 443.63;  -13.760;  -21.060;    0.000; 7.30000
 443.91;    7.620;  -24.010;    0.000;31.63000
 444.20;  -10.380;  -15.210;    0.000; 4.83000
 444.49;   -5.400;  -17.150;    0.000;11.75000
 444.78;    4.640;  -10.890;    0.000;15.53000
 445.07;   14.440;  -13.040;    0.000;27.48000
 445.36;  -28.480;  -25.850;    0.000;-2.63000
 445.65;   -7.700;  -13.460;    0.000; 5.76000
 445.94;  -12.500;  -17.420;    0.000; 4.92000
 446.23;   14.600;  -14.150;    0.000;28.75000
 446.52;    8.300;  -19.520;    0.000;27.82000
 446.81;   13.220;  -16.560;    0.000;29.78000
 447.10;   -0.420;  -13.040;    0.000;12.62000
 447.38;   -3.300;  -16.320;    0.000;13.02000
 447.67;    8.020;  -14.960;    0.000;22.98000
 447.96;   -4.660;  -20.220;    0.000;15.56000
 448.25;   -1.800;  -17.610;    0.000;15.81000
 448.54;    7.680;  -20.490;    0.000;28.17000
 448.83;   -6.920;  -21.650;    0.000;14.73000
 449.12;   -9.340;  -24.330;    0.000;14.99000
 449.41;    7.980;  -17.380;    0.000;25.36000
 449.70;  -10.240;  -19.200;    0.000; 8.96000
 449.98;  -12.900;  -18.990;    0.000; 6.09000
 450.27;    2.500;  -10.630;    0.000;13.13000
 450.56;  -13.780;  -19.350;    0.000; 5.57000
 450.85;   -7.040;  -18.980;    0.000;11.94000
 451.14;   -6.860;  -18.310;    0.000;11.45000
 451.43;  -11.580;  -19.640;    0.000; 8.06000
 451.72;    4.480;  -20.630;    0.000;25.11000
 452.01;    8.660;  -12.200;    0.000;20.86000
 452.29;  -13.420;  -18.350;    0.000; 4.93000
 452.58;  -15.200;  -25.270;    0.000;10.07000
 452.87;   -5.160;  -19.090;    0.000;13.93000
 453.16;    2.960;  -11.330;    0.000;14.29000
 453.45;    9.140;  -14.720;    0.000;23.86000
 453.74;    5.320;  -10.690;    0.000;16.01000
 454.03;   -0.920;  -21.930;    0.000;21.01000
 454.31;   -2.400;  -22.490;    0.000;20.09000
 454.60;  -15.420;  -21.160;    0.000; 5.74000
 454.89;    6.500;  -12.560;    0.000;19.06000
 455.18;  -13.180;  -24.060;    0.000;10.88000
 455.47;  -15.140;  -26.150;    0.000;11.01000
 455.76;   -9.380;  -27.400;    0.000;18.02000
 456.04;    0.280;  -25.580;    0.000;25.86000
 456.33;   -7.360;  -25.270;    0.000;17.91000
 456.62;   -7.560;  -18.480;    0.000;10.92000
 456.91;  -15.860;  -23.960;    0.000; 8.10000
 457.20;   10.980;  -15.140;    0.000;26.12000
 457.49;   -1.120;  -14.830;    0.000;13.71000
 457.77;   -5.320;  -20.000;    0.000;14.68000
 458.06;    2.880;  -12.460;    0.000;15.34000
 458.35;   -6.560;  -24.180;    0.000;17.62000
 458.64;   -4.240;  -11.000;    0.000; 6.76000
 458.93;   -9.960;  -15.890;    0.000; 5.93000
 459.21;  -17.140;  -21.440;    0.000; 4.30000
 459.50;    3.380;  -22.030;    0.000;25.41000
 459.79;   -8.020;  -19.740;    0.000;11.72000
 460.08;   -5.800;  -20.210;    0.000;14.41000
 460.37;    7.560;  -17.330;    0.000;24.89000
 460.65;   -3.660;  -20.980;    0.000;17.32000
 460.94;   -8.300;  -24.100;    0.000;15.80000
 461.23;   -4.340;  -16.720;    0.000;12.38000
 461.52;   23.380;  -10.800;    0.000;34.18000
 461.81;    5.400;  -18.200;    0.000;23.60000
 462.09;   -1.560;  -16.530;    0.000;14.97000
 462.38;  -16.220;  -21.390;    0.000; 5.17000
 462.67;  -19.740;  -25.110;    0.000; 5.37000
 462.96;    0.980;  -24.230;    0.000;25.21000
 463.24;   -6.500;  -23.650;    0.000;17.15000
 463.53;   17.380;  -17.480;    0.000;34.86000
 463.82;  -10.720;  -19.800;    0.000; 9.08000
 464.11;   -7.460;  -21.730;    0.000;14.27000
 464.40;   -6.180;  -22.130;    0.000;15.95000
 464.68;  -19.040;  -21.480;    0.000; 2.44000
 464.97;   -7.520;  -19.470;    0.000;11.95000
 465.26;    0.880;  -17.460;    0.000;18.34000
 465.55;  -12.780;  -20.890;    0.000; 8.11000
 465.83;   -0.580;  -20.920;    0.000;20.34000
 466.12;  -16.540;  -22.340;    0.000; 5.80000
 466.41;   15.340;  -21.380;    0.000;36.72000
 466.70;  -12.580;  -23.610;    0.000;11.03000
 466.98;   -5.960;  -20.090;    0.000;14.13000
 467.27;   17.540;  -18.760;    0.000;36.30000
 467.56;   20.260;  -20.980;    0.000;41.24000
 467.85;    3.120;  -15.930;    0.000;19.05000
 468.13;    5.420;  -14.330;    0.000;19.75000
 468.42;    3.860;  -17.700;    0.000;21.56000
 468.71;    3.240;  -20.100;    0.000;23.34000
 468.99;    2.060;  -17.320;    0.000;19.38000
 469.28;   -0.460;  -22.330;    0.000;21.87000
 469.57;    4.000;  -21.170;    0.000;25.17000
 469.86;    4.720;  -18.660;    0.000;23.38000
 470.14;  -14.180;  -24.400;    0.000;10.22000
 470.43;   10.160;  -16.250;    0.000;26.41000
 470.72;  -12.080;  -27.700;    0.000;15.62000
 471.00;   -4.120;  -21.470;    0.000;17.35000
 471.29;   23.460;  -12.190;    0.000;35.65000
 471.58;   37.380;  -14.440;    0.000;51.82000
 471.87;   -6.540;  -20.260;    0.000;13.72000
 472.15;   -5.580;  -27.280;    0.000;21.70000
 472.44;   28.940;  -13.550;    0.000;42.49000
 472.73;   -5.440;  -28.340;    0.000;22.90000
 473.01;   -3.160;  -26.320;    0.000;23.16000
 473.30;    1.060;  -23.100;    0.000;24.16000
 473.59;   -0.240;  -19.590;    0.000;19.35000
 473.87;    5.040;  -19.240;    0.000;24.28000
 474.16;  -10.400;  -20.110;    0.000; 9.71000
 474.45;    7.080;  -30.440;    0.000;37.52000
 474.74;   -7.720;  -22.750;    0.000;15.03000
 475.02;   -1.160;  -15.460;    0.000;14.30000
 475.31;   -7.240;  -20.200;    0.000;12.96000
 475.60;    5.720;  -27.200;    0.000;32.92000
 475.88;    1.480;  -25.920;    0.000;27.40000
 476.17;   15.780;  -16.890;    0.000;32.67000
 476.46;   10.240;  -20.900;    0.000;31.14000
 476.74;    4.840;  -23.070;    0.000;27.91000
 477.03;  -13.480;  -22.890;    0.000; 9.41000
 477.32;   13.260;  -21.040;    0.000;34.30000
 477.60;    7.900;  -24.890;    0.000;32.79000
 477.89;   22.300;  -14.910;    0.000;37.21000
 478.18;   11.740;  -15.900;    0.000;27.64000
 478.46;   13.120;  -19.520;    0.000;32.64000
 478.75;   10.120;  -18.520;    0.000;28.64000
 479.03;   10.020;  -17.330;    0.000;27.35000
 479.32;    9.020;  -26.670;    0.000;35.69000
 479.61;    7.480;  -32.440;    0.000;39.92000
 479.89;    7.560;  -24.740;    0.000;32.30000
 480.18;   21.760;  -21.450;    0.000;43.21000
 480.47;   25.620;  -18.220;    0.000;43.84000
 480.75;   20.040;  -29.820;    0.000;49.86000
 481.04;   25.920;  -20.400;    0.000;46.32000
 481.33;   26.720;  -16.240;    0.000;42.96000
 481.61;   18.400;  -20.830;    0.000;39.23000
 481.90;   12.120;  -33.240;    0.000;45.36000
 482.18;   38.880;  -23.490;    0.000;62.37000
 482.47;   39.180;  -18.580;    0.000;57.76000
 482.76;   43.240;  -24.650;    0.000;67.89000
 483.04;   50.640;  -22.560;    0.000;73.20000
 483.33;   39.620;  -27.450;    0.000;67.07000
 483.61;   55.300;  -18.390;    0.000;73.69000
 483.90;   60.460;  -22.630;    0.000;83.09000
 484.19;   57.100;  -31.890;    0.000;88.99000
 484.47;   72.920;  -27.650;    0.000;100.57000
 484.76;   87.100;  -22.480;    0.000;109.58000
 485.05;   89.940;  -15.900;    0.000;105.84000
 485.33;  102.800;  -20.520;    0.000;123.32000
 485.62;  100.580;  -23.220;    0.000;123.80000
 485.90;  131.920;  -19.330;    0.000;151.25000
 486.19;  127.620;  -21.960;    0.000;149.58000
 486.47;  174.860;  -17.750;    0.000;192.61000
 486.76;  178.860;  -32.110;    0.000;210.97000
 487.05;  204.160;  -21.590;    0.000;225.75000
 487.33;  190.360;  -24.120;    0.000;214.48000
 487.62;  202.940;  -27.370;    0.000;230.31000
 487.90;  240.440;  -24.640;    0.000;265.08000
 488.19;  277.560;  -17.250;    0.000;294.81000
 488.47;  292.840;  -20.280;    0.000;313.12000
 488.76;  320.700;  -22.200;    0.000;342.90001
 489.05;  349.800;  -13.720;    0.000;363.51999
 489.33;  366.200;  -24.060;    0.000;390.26001
 489.62;  400.440;  -27.760;    0.000;428.20000
 489.90;  419.500;  -29.230;    0.000;448.73000
 490.19;  473.140;  -20.080;    0.000;493.22001
 490.47;  496.920;  -27.170;    0.000;524.09001
 490.76;  542.740;  -30.390;    0.000;573.12999
 491.05;  602.600;  -18.700;    0.000;621.29998
 491.33;  623.800;  -19.160;    0.000;642.95999
 491.62;  652.120;  -30.080;    0.000;682.20000
 491.90;  710.640;  -24.970;    0.000;735.61001
 492.19;  760.220;  -29.880;    0.000;790.09997
 492.47;  794.900;  -26.010;    0.000;820.91002
 492.76;  845.840;  -25.800;    0.000;871.64003
 493.04;  908.540;  -23.090;    0.000;931.62998
 493.33;  955.140;  -29.680;    0.000;984.82001
 493.61; 1042.180;  -28.280;    0.000;1070.46005
 493.90; 1094.640;  -25.470;    0.000;1120.11001
 494.18; 1173.680;  -21.360;    0.000;1195.04005
 494.47; 1236.360;  -21.500;    0.000;1257.85999
 494.75; 1299.940;  -25.740;    0.000;1325.67994
 495.04; 1377.660;  -25.010;    0.000;1402.67003
 495.32; 1447.520;  -24.280;    0.000;1471.80002
 495.61; 1530.440;  -26.390;    0.000;1556.82994
 495.89; 1608.380;  -25.210;    0.000;1633.59000
 496.18; 1683.140;  -24.900;    0.000;1708.04001
 496.46; 1793.660;  -25.570;    0.000;1819.23003
 496.75; 1866.720;  -19.200;    0.000;1885.91997
 497.03; 1952.320;  -21.850;    0.000;1974.16995
 497.32; 2078.100;  -28.930;    0.000;2107.03010
 497.60; 2155.760;  -27.460;    0.000;2183.22001
 497.89; 2255.100;  -26.060;    0.000;2281.16010
 498.17; 2359.760;  -23.200;    0.000;2382.96001
 498.46; 2454.260;  -31.150;    0.000;2485.41001
 498.74; 2585.620;  -21.420;    0.000;2607.04012
 499.03; 2700.720;  -27.500;    0.000;2728.21997
 499.31; 2806.400;  -33.980;    0.000;2840.37990
 499.60; 2905.400;  -26.560;    0.000;2931.95990
 499.88; 3068.740;  -13.310;    0.000;3082.04999
 500.17; 3145.580;  -32.950;    0.000;3178.53008
 500.45; 3250.660;  -26.850;    0.000;3277.50991
 500.74; 3405.460;  -32.110;    0.000;3437.56996
 501.02; 3531.340;  -28.340;    0.000;3559.68009
 501.31; 3659.260;  -30.740;    0.000;3690.00001
 501.59; 3786.560;  -22.990;    0.000;3809.55006
 501.88; 3955.100;  -24.540;    0.000;3979.64010
 502.16; 4065.360;  -33.190;    0.000;4098.55011
 502.45; 4222.620;  -27.850;    0.000;4250.47012
 502.73; 4313.060;  -30.030;    0.000;4343.09006
 503.01; 4472.380;  -26.800;    0.000;4499.17988
 503.30; 4634.740;  -26.540;    0.000;4661.28024
 503.58; 4782.880;  -37.970;    0.000;4820.84988
 503.87; 4904.680;  -21.070;    0.000;4925.75018
 504.15; 5045.300;  -31.700;    0.000;5076.99981
 504.44; 5262.540;  -22.380;    0.000;5284.92004
 504.72; 5419.740;  -16.240;    0.000;5435.98023
 505.00; 5543.600;  -31.090;    0.000;5574.69010
 505.29; 5742.920;  -18.750;    0.000;5761.66992
 505.57; 5846.380;  -26.120;    0.000;5872.49988
 505.86; 6015.300;  -30.130;    0.000;6045.42980
 506.14; 6161.100;  -40.580;    0.000;6201.68010
 506.43; 6322.020;  -16.980;    0.000;6339.00002
 506.71; 6478.500;  -26.380;    0.000;6504.88000
 506.99; 6623.160;  -33.030;    0.000;6656.19016
 507.28; 6849.360;  -27.620;    0.000;6876.97986
 507.56; 7015.120;  -28.400;    0.000;7043.52012
 507.85; 7132.580;  -26.630;    0.000;7159.21008
 508.13; 7297.840;  -23.390;    0.000;7321.22984
 508.41; 7512.220;  -13.300;    0.000;7525.52022
 508.70; 7663.180;  -30.090;    0.000;7693.27018
 508.98; 7769.480;  -29.260;    0.000;7798.73998
 509.27; 7962.700;  -34.820;    0.000;7997.52020
 509.55; 8146.920;  -20.900;    0.000;8167.81992
 509.83; 8360.020;  -32.250;    0.000;8392.26953
 510.12; 8511.980;  -25.080;    0.000;8537.06047
 510.40; 8679.040;  -26.530;    0.000;8705.57004
 510.69; 8796.820;  -26.360;    0.000;8823.18031
 510.97; 8998.020;  -25.960;    0.000;9023.97953
 511.25; 9170.660;  -25.560;    0.000;9196.22016
 511.54; 9321.460;  -32.180;    0.000;9353.63996
 511.82; 9475.600;  -23.410;    0.000;9499.00961
 512.11; 9621.380;  -28.130;    0.000;9649.50988
 512.39; 9812.100;  -32.100;    0.000;9844.19961
 512.67;10017.200;  -23.390;    0.000;10040.59019
 512.96;10133.000;  -27.360;    0.000;10160.36000
 513.24;10339.100;  -25.540;    0.000;10364.63961
 513.52;10475.860;  -20.710;    0.000;10496.57035
 513.81;10607.100;  -27.450;    0.000;10634.54961
 514.09;10740.740;  -31.630;    0.000;10772.37023
 514.37;10877.960;  -28.900;    0.000;10906.85996
 514.66;11046.060;  -26.830;    0.000;11072.88957
 514.94;11218.280;  -30.930;    0.000;11249.21027
 515.22;11407.000;  -20.740;    0.000;11427.74000
 515.51;11572.920;  -28.110;    0.000;11601.02992
 515.79;11741.500;  -30.680;    0.000;11772.18000
 516.07;11925.060;  -21.420;    0.000;11946.47957
 516.36;11987.560;  -30.450;    0.000;12018.00957
 516.64;12170.560;  -27.560;    0.000;12198.11957
 516.92;12386.520;  -28.140;    0.000;12414.65953
 517.21;12531.800;  -33.670;    0.000;12565.46980
 517.49;12805.140;  -21.660;    0.000;12826.79965
 517.77;12979.760;  -23.850;    0.000;13003.60977
 518.06;13140.020;  -35.280;    0.000;13175.29953
 518.34;13259.360;  -22.260;    0.000;13281.62035
 518.62;13384.920;  -18.090;    0.000;13403.00992
 518.91;13562.880;  -25.090;    0.000;13587.96988
 519.19;13685.420;  -29.320;    0.000;13714.73992
 519.47;13887.280;  -25.890;    0.000;13913.17027
 519.76;14034.180;  -20.890;    0.000;14055.06969
 520.04;14155.460;  -27.100;    0.000;14182.55996
 520.32;14354.880;  -24.040;    0.000;14378.91988
 520.61;14518.660;  -17.280;    0.000;14535.94016
 520.89;14653.840;  -26.150;    0.000;14679.98984
 521.17;14768.340;  -27.250;    0.000;14795.58984
 521.45;14877.080;  -26.190;    0.000;14903.27008
 521.74;14998.980;  -27.770;    0.000;15026.75047
 522.02;15142.060;  -32.340;    0.000;15174.39957
 522.30;15331.540;  -30.190;    0.000;15361.73004
 522.59;15483.080;  -17.950;    0.000;15501.03008
 522.87;15560.940;  -35.830;    0.000;15596.77043
 523.15;15811.340;  -22.330;    0.000;15833.66984
 523.43;15881.600;  -36.850;    0.000;15918.44961
 523.72;16036.980;  -22.470;    0.000;16059.45047
 524.00;16121.160;  -26.840;    0.000;16148.00016
 524.28;16281.180;  -30.100;    0.000;16311.27969
 524.57;16403.260;  -28.250;    0.000;16431.50977
 524.85;16462.680;  -33.210;    0.000;16495.88969
 525.13;16671.859;  -28.900;    0.000;16700.75937
 525.41;16740.740;  -26.930;    0.000;16767.67023
 525.70;16881.000;  -39.770;    0.000;16920.77000
 525.98;17014.980;  -28.770;    0.000;17043.75047
 526.26;17139.279;  -28.530;    0.000;17167.80930
 526.54;17179.039;  -37.240;    0.000;17216.27906
 526.83;17321.561;  -31.260;    0.000;17352.82055
 527.11;17440.900;  -29.840;    0.000;17470.74039
 527.39;17524.180;  -27.920;    0.000;17552.09969
 527.67;17783.619;  -33.060;    0.000;17816.67914
 527.96;17764.859;  -33.590;    0.000;17798.44938
 528.24;17964.881;  -30.660;    0.000;17995.54086
 528.52;18040.020;  -24.870;    0.000;18064.88953
 528.80;18222.619;  -28.750;    0.000;18251.36914
 529.08;18224.881;  -34.880;    0.000;18259.76086
 529.37;18423.680;  -25.970;    0.000;18449.64969
 529.65;18495.600;  -21.850;    0.000;18517.44961
 529.93;18689.039;  -27.970;    0.000;18717.00906
 530.21;18679.580;  -33.080;    0.000;18712.66008
 530.50;18860.859;  -30.560;    0.000;18891.41937
 530.78;18952.000;  -27.290;    0.000;18979.29000
 531.06;18958.199;  -32.640;    0.000;18990.83922
 531.34;19096.160;  -31.410;    0.000;19127.57016
 531.62;19211.359;  -29.810;    0.000;19241.16937
 531.91;19337.600;  -33.270;    0.000;19370.86961
 532.19;19428.119;  -28.780;    0.000;19456.89914
 532.47;19503.699;  -30.330;    0.000;19534.02922
 532.75;19589.561;  -25.280;    0.000;19614.84055
 533.03;19688.340;  -26.860;    0.000;19715.19984
 533.32;19754.699;  -23.280;    0.000;19777.97922
 533.60;19867.020;  -34.090;    0.000;19901.10953
 533.88;19904.939;  -20.750;    0.000;19925.68945
 534.16;20049.000;  -30.960;    0.000;20079.96000
 534.44;20164.061;  -26.490;    0.000;20190.55055
 534.72;20215.641;  -32.560;    0.000;20248.20063
 535.01;20287.359;  -25.270;    0.000;20312.62938
 535.29;20428.480;  -23.350;    0.000;20451.83047
 535.57;20391.779;  -25.910;    0.000;20417.68930
 535.85;20451.420;  -23.170;    0.000;20474.58992
 536.13;20527.721;  -28.940;    0.000;20556.66070
 536.42;20644.301;  -27.660;    0.000;20671.96078
 536.70;20847.100;  -35.120;    0.000;20882.21961
 536.98;20891.561;  -22.910;    0.000;20914.47055
 537.26;20934.859;  -19.290;    0.000;20954.14938
 537.54;21027.500;  -26.340;    0.000;21053.84000
 537.82;21036.561;  -21.930;    0.000;21058.49055
 538.10;21177.119;  -27.700;    0.000;21204.81914
 538.39;21198.600;  -28.600;    0.000;21227.19961
 538.67;21256.221;  -27.310;    0.000;21283.53070
 538.95;21399.760;  -30.120;    0.000;21429.87977
 539.23;21470.939;  -22.970;    0.000;21493.90945
 539.51;21534.961;  -22.060;    0.000;21557.02094
 539.79;21524.580;  -26.640;    0.000;21551.22008
 540.07;21605.480;  -22.100;    0.000;21627.58047
 540.36;21665.461;  -30.750;    0.000;21696.21094
 540.64;21758.920;  -22.510;    0.000;21781.42992
 540.92;21841.260;  -30.820;    0.000;21872.07977
 541.20;21894.561;  -29.640;    0.000;21924.20055
 541.48;21990.699;  -12.470;    0.000;22003.16922
 541.76;21989.939;  -26.780;    0.000;22016.71945
 542.04;22161.859;  -23.270;    0.000;22185.12938
 542.32;22152.480;  -24.220;    0.000;22176.70047
 542.61;22257.801;  -33.520;    0.000;22291.32078
 542.89;22244.160;  -17.240;    0.000;22261.40016
 543.17;22377.680;  -25.240;    0.000;22402.91969
 543.45;22414.920;  -24.660;    0.000;22439.57992
 543.73;22489.039;  -28.070;    0.000;22517.10906
 544.01;22537.000;  -29.250;    0.000;22566.25000
 544.29;22588.340;  -19.640;    0.000;22607.97984
 544.57;22605.900;  -34.410;    0.000;22640.31039
 544.85;22633.141;  -23.490;    0.000;22656.63062
 545.13;22698.439;  -25.150;    0.000;22723.58945
 545.42;22742.061;  -24.120;    0.000;22766.18055
 545.70;22706.260;  -20.880;    0.000;22727.13976
 545.98;22847.939;  -22.690;    0.000;22870.62945
 546.26;22843.061;  -22.680;    0.000;22865.74055
 546.54;22905.619;  -26.680;    0.000;22932.29914
 546.82;22971.461;  -22.560;    0.000;22994.02094
 547.10;23003.619;  -25.490;    0.000;23029.10914
 547.38;23008.500;  -18.460;    0.000;23026.96000
 547.66;23052.301;  -24.450;    0.000;23076.75078
 547.94;23080.600;  -22.110;    0.000;23102.70961
 548.22;23147.820;  -28.020;    0.000;23175.84031
 548.50;23158.340;  -35.840;    0.000;23194.17984
 548.78;23197.779;  -28.210;    0.000;23225.98930
 549.06;23189.779;  -25.700;    0.000;23215.47930
 549.34;23183.561;  -30.930;    0.000;23214.49055
 549.63;23247.881;  -17.470;    0.000;23265.35086
 549.91;23265.240;  -26.020;    0.000;23291.26023
 550.19;23299.160;  -30.840;    0.000;23330.00016
 550.47;23267.340;  -33.570;    0.000;23300.90984
 550.75;23276.779;  -29.150;    0.000;23305.92930
 551.03;23310.740;  -31.230;    0.000;23341.97023
 551.31;23362.221;  -27.700;    0.000;23389.92070
 551.59;23392.680;  -27.320;    0.000;23419.99969
 551.87;23465.080;  -25.060;    0.000;23490.14008
 552.15;23392.980;  -29.650;    0.000;23422.63047
 552.43;23435.680;  -17.690;    0.000;23453.36969
 552.71;23518.840;  -26.730;    0.000;23545.56984
 552.99;23499.199;  -27.320;    0.000;23526.51922
 553.27;23521.721;  -33.900;    0.000;23555.62070
 553.55;23581.439;  -29.130;    0.000;23610.56945
 553.83;23469.439;  -34.100;    0.000;23503.53945
 554.11;23553.740;  -29.070;    0.000;23582.81023
 554.39;23587.561;  -17.350;    0.000;23604.91055
 554.67;23620.680;  -31.140;    0.000;23651.81969
 554.95;23581.420;  -15.790;    0.000;23597.20992
 555.23;23613.199;  -19.190;    0.000;23632.38922
 555.51;23532.539;  -23.860;    0.000;23556.39906
 555.79;23559.539;  -26.610;    0.000;23586.14906
 556.07;23460.381;  -33.750;    0.000;23494.13086
 556.35;23478.881;  -33.080;    0.000;23511.96086
 556.63;23599.779;  -23.190;    0.000;23622.96930
 556.91;23578.180;  -20.140;    0.000;23598.31969
 557.19;23550.740;  -33.420;    0.000;23584.16023
 557.47;23599.160;  -26.860;    0.000;23626.02016
 557.75;23579.020;  -27.600;    0.000;23606.61953
 558.03;23531.461;  -23.720;    0.000;23555.18094
 558.31;23553.760;  -32.820;    0.000;23586.57977
 558.59;23577.480;  -28.200;    0.000;23605.68047
 558.87;23626.760;  -31.300;    0.000;23658.05976
 559.15;23561.061;  -29.920;    0.000;23590.98055
 559.43;23564.119;  -31.700;    0.000;23595.81914
 559.71;23586.520;  -29.390;    0.000;23615.90953
 559.99;23544.840;  -29.950;    0.000;23574.78984
 560.27;23610.939;  -31.860;    0.000;23642.79945
 560.55;23507.480;  -27.330;    0.000;23534.81047
 560.82;23519.721;  -30.590;    0.000;23550.31070
 561.10;23536.840;  -35.810;    0.000;23572.64985
 561.38;23429.439;  -27.550;    0.000;23456.98945
 561.66;23537.221;  -27.770;    0.000;23564.99070
 561.94;23434.920;  -36.790;    0.000;23471.70992
 562.22;23477.461;  -29.270;    0.000;23506.73094
 562.50;23407.980;  -25.730;    0.000;23433.71047
 562.78;23381.760;  -28.210;    0.000;23409.96976
 563.06;23360.400;  -32.200;    0.000;23392.60039
 563.34;23272.221;  -32.310;    0.000;23304.53070
 563.62;23294.420;  -26.420;    0.000;23320.83992
 563.90;23222.760;  -33.310;    0.000;23256.06977
 564.18;23180.359;  -30.050;    0.000;23210.40937
 564.46;23242.920;  -33.070;    0.000;23275.98992
 564.74;23184.900;  -26.370;    0.000;23211.27039
 565.01;23063.180;  -34.630;    0.000;23097.80969
 565.29;23116.461;  -30.890;    0.000;23147.35094
 565.57;22979.840;  -27.770;    0.000;23007.60984
 565.85;22969.561;  -26.540;    0.000;22996.10055
 566.13;22920.420;  -35.020;    0.000;22955.43992
 566.41;22930.859;  -27.970;    0.000;22958.82937
 566.69;22872.480;  -26.850;    0.000;22899.33047
 566.97;22788.119;  -35.710;    0.000;22823.82914
 567.25;22806.740;  -26.920;    0.000;22833.66023
 567.53;22748.840;  -31.550;    0.000;22780.38984
 567.80;22777.340;  -29.830;    0.000;22807.16984
 568.08;22654.480;  -23.950;    0.000;22678.43047
 568.36;22561.939;  -39.610;    0.000;22601.54945
 568.64;22634.080;  -31.690;    0.000;22665.77008
 568.92;22498.240;  -24.250;    0.000;22522.49023
 569.20;22454.859;  -32.220;    0.000;22487.07938
 569.48;22418.801;  -33.550;    0.000;22452.35078
 569.76;22381.301;  -41.820;    0.000;22423.12078
 570.03;22304.480;  -26.520;    0.000;22331.00047
 570.31;22210.461;  -33.390;    0.000;22243.85094
 570.59;22243.740;  -29.380;    0.000;22273.12023
 570.87;22211.180;  -30.810;    0.000;22241.98969
 571.15;22157.500;  -35.650;    0.000;22193.15000
 571.43;22064.461;  -28.530;    0.000;22092.99094
 571.71;22030.900;  -40.130;    0.000;22071.03039
 571.98;21902.980;  -30.700;    0.000;21933.68047
 572.26;21937.920;  -33.520;    0.000;21971.43992
 572.54;21861.301;  -36.750;    0.000;21898.05078
 572.82;21752.000;  -35.020;    0.000;21787.02000
 573.10;21759.020;  -32.420;    0.000;21791.43953
 573.38;21722.000;  -33.880;    0.000;21755.88000
 573.66;21615.840;  -34.190;    0.000;21650.02984
 573.93;21524.539;  -33.870;    0.000;21558.40906
 574.21;21490.539;  -31.820;    0.000;21522.35906
 574.49;21428.461;  -31.910;    0.000;21460.37094
 574.77;21379.180;  -29.890;    0.000;21409.06969
 575.05;21235.439;  -22.870;    0.000;21258.30945
 575.33;21266.561;  -31.620;    0.000;21298.18055
 575.60;21166.160;  -29.990;    0.000;21196.15016
 575.88;21027.340;  -30.640;    0.000;21057.97984
 576.16;21059.660;  -31.370;    0.000;21091.03016
 576.44;20971.340;  -30.170;    0.000;21001.50984
 576.72;20807.199;  -30.330;    0.000;20837.52922
 576.99;20703.500;  -35.380;    0.000;20738.88000
 577.27;20693.199;  -32.010;    0.000;20725.20922
 577.55;20651.600;  -20.740;    0.000;20672.33961
 577.83;20525.840;  -38.350;    0.000;20564.18984
 578.11;20561.561;  -30.600;    0.000;20592.16055
 578.38;20437.859;  -33.300;    0.000;20471.15937
 578.66;20350.480;  -33.190;    0.000;20383.67047
 578.94;20318.980;  -34.250;    0.000;20353.23047
 579.22;20254.660;  -36.890;    0.000;20291.55016
 579.50;20134.859;  -16.500;    0.000;20151.35938
 579.77;20057.000;  -27.820;    0.000;20084.82000
 580.05;20013.760;  -33.860;    0.000;20047.61977
 580.33;19885.580;  -36.230;    0.000;19921.81008
 580.61;19846.301;  -31.810;    0.000;19878.11078
 580.88;19746.320;  -31.550;    0.000;19777.87031
 581.16;19647.340;  -30.380;    0.000;19677.71984
 581.44;19614.500;  -26.740;    0.000;19641.24000
 581.72;19431.461;  -36.870;    0.000;19468.33094
 581.99;19481.461;  -28.000;    0.000;19509.46094
 582.27;19343.900;  -32.620;    0.000;19376.52039
 582.55;19188.779;  -39.650;    0.000;19228.42930
 582.83;19126.859;  -31.420;    0.000;19158.27938
 583.10;19082.320;  -34.040;    0.000;19116.36031
 583.38;18954.100;  -33.790;    0.000;18987.88961
 583.66;18949.641;  -23.360;    0.000;18973.00063
 583.94;18691.301;  -37.120;    0.000;18728.42078
 584.21;18666.961;  -36.200;    0.000;18703.16094
 584.49;18583.779;  -31.210;    0.000;18614.98930
 584.77;18531.080;  -41.490;    0.000;18572.57008
 585.05;18383.699;  -41.880;    0.000;18425.57922
 585.32;18323.160;  -40.900;    0.000;18364.06016
 585.60;18276.779;  -35.320;    0.000;18312.09930
 585.88;18135.939;  -36.100;    0.000;18172.03945
 586.16;18068.980;  -33.460;    0.000;18102.44047
 586.43;18010.881;  -23.040;    0.000;18033.92086
 586.71;17806.939;  -33.020;    0.000;17839.95945
 586.99;17753.279;  -38.700;    0.000;17791.97930
 587.26;17753.119;  -39.100;    0.000;17792.21914
 587.54;17615.439;  -29.820;    0.000;17645.25945
 587.82;17492.500;  -31.730;    0.000;17524.23000
 588.10;17392.240;  -35.850;    0.000;17428.09023
 588.37;17313.160;  -41.630;    0.000;17354.79016
 588.65;17211.240;  -32.470;    0.000;17243.71024
 588.93;17167.721;  -32.150;    0.000;17199.87070
 589.20;17003.141;  -34.030;    0.000;17037.17062
 589.48;16885.641;  -34.930;    0.000;16920.57063
 589.76;16789.939;  -15.830;    0.000;16805.76945
 590.03;16677.820;  -40.290;    0.000;16718.11031
 590.31;16595.340;  -33.480;    0.000;16628.81984
 590.59;16583.381;  -33.000;    0.000;16616.38086
 590.86;16418.141;  -31.500;    0.000;16449.64063
 591.14;16296.820;  -37.450;    0.000;16334.27031
 591.42;16172.180;  -37.920;    0.000;16210.09969
 591.70;16175.660;  -32.300;    0.000;16207.96016
 591.97;16057.720;  -26.470;    0.000;16084.18973
 592.25;15891.700;  -31.490;    0.000;15923.19020
 592.53;15827.340;  -39.370;    0.000;15866.70984
 592.80;15711.160;  -30.970;    0.000;15742.13016
 593.08;15694.300;  -28.190;    0.000;15722.48981
 593.36;15589.000;  -33.690;    0.000;15622.69000
 593.63;15457.820;  -28.510;    0.000;15486.33031
 593.91;15292.580;  -39.300;    0.000;15331.88008
 594.18;15251.280;  -30.740;    0.000;15282.02027
 594.46;15174.480;  -37.200;    0.000;15211.68047
 594.74;15037.820;  -35.270;    0.000;15073.09031
 595.01;14948.840;  -39.910;    0.000;14988.74984
 595.29;14816.140;  -37.830;    0.000;14853.96965
 595.57;14763.480;  -30.310;    0.000;14793.79047
 595.84;14685.020;  -34.070;    0.000;14719.08953
 596.12;14588.200;  -35.950;    0.000;14624.15020
 596.40;14457.060;  -47.400;    0.000;14504.45957
 596.67;14408.680;  -33.240;    0.000;14441.91969
 596.95;14262.360;  -31.840;    0.000;14294.20035
 597.22;14126.840;  -42.200;    0.000;14169.03984
 597.50;14027.400;  -33.310;    0.000;14060.71039
 597.78;13962.800;  -35.870;    0.000;13998.66980
 598.05;13842.380;  -42.370;    0.000;13884.74988
 598.33;13757.000;  -31.360;    0.000;13788.36000
 598.61;13624.600;  -34.100;    0.000;13658.69961
 598.88;13650.200;  -43.010;    0.000;13693.21019
 599.16;13472.720;  -38.270;    0.000;13510.98973
 599.43;13414.940;  -44.250;    0.000;13459.19043
 599.71;13271.060;  -31.350;    0.000;13302.40957
 599.99;13224.960;  -40.440;    0.000;13265.39996
 600.26;13092.040;  -34.480;    0.000;13126.52004
 600.54;13016.300;  -35.880;    0.000;13052.17981
 600.81;12954.760;  -30.800;    0.000;12985.55976
 601.09;12822.320;  -38.420;    0.000;12860.74031
 601.36;12663.220;  -43.640;    0.000;12706.85973
 601.64;12647.980;  -36.270;    0.000;12684.25047
 601.92;12518.900;  -40.290;    0.000;12559.19039
 602.19;12456.580;  -43.490;    0.000;12500.07008
 602.47;12349.820;  -41.720;    0.000;12391.54031
 602.74;12250.380;  -33.580;    0.000;12283.95988
 603.02;12183.120;  -30.880;    0.000;12214.00012
 603.29;12072.220;  -30.150;    0.000;12102.36973
 603.57;12024.160;  -38.680;    0.000;12062.84016
 603.85;11900.960;  -36.240;    0.000;11937.19996
 604.12;11897.380;  -25.740;    0.000;11923.11988
 604.40;11759.600;  -37.040;    0.000;11796.63961
 604.67;11612.800;  -31.720;    0.000;11644.51980
 604.95;11567.660;  -36.850;    0.000;11604.51015
 605.22;11511.200;  -36.400;    0.000;11547.60020
 605.50;11441.780;  -42.480;    0.000;11484.26027
 605.77;11282.580;  -37.250;    0.000;11319.83008
 606.05;11269.520;  -39.640;    0.000;11309.15953
 606.33;11191.020;  -35.100;    0.000;11226.11953
 606.60;11096.560;  -44.280;    0.000;11140.83957
 606.88;11000.400;  -33.550;    0.000;11033.95039
 607.15;10964.640;  -35.810;    0.000;11000.44965
 607.43;10941.840;  -38.570;    0.000;10980.40984
 607.70;10834.420;  -33.540;    0.000;10867.95992
 607.98;10780.180;  -38.040;    0.000;10818.21969
 608.25;10592.440;  -39.360;    0.000;10631.80043
 608.53;10608.440;  -46.700;    0.000;10655.14043
 608.80;10509.520;  -39.200;    0.000;10548.71953
 609.08;10463.180;  -41.820;    0.000;10504.99969
 609.35;10392.000;  -35.520;    0.000;10427.52000
 609.63;10363.540;  -44.390;    0.000;10407.93004
 609.90;10329.480;  -36.930;    0.000;10366.41047
 610.18;10220.320;  -28.100;    0.000;10248.42031
 610.45;10113.400;  -47.230;    0.000;10160.63039
 610.73;10048.240;  -40.590;    0.000;10088.83023
 611.00;10035.920;  -28.940;    0.000;10064.85992
 611.28; 9982.840;  -41.770;    0.000;10024.60984
 611.55; 9852.340;  -47.150;    0.000;9899.48985
 611.83; 9818.840;  -42.410;    0.000;9861.24984
 612.10; 9779.640;  -47.870;    0.000;9827.50965
 612.38; 9697.320;  -43.330;    0.000;9740.65031
 612.65; 9622.620;  -38.760;    0.000;9661.38012
 612.93; 9554.200;  -46.440;    0.000;9600.64019
 613.20; 9561.500;  -40.520;    0.000;9602.02000
 613.48; 9394.720;  -42.680;    0.000;9437.39973
 613.75; 9447.980;  -49.140;    0.000;9497.12047
 614.03; 9407.820;  -35.760;    0.000;9443.58031
 614.30; 9270.720;  -49.280;    0.000;9319.99973
 614.57; 9281.580;  -47.070;    0.000;9328.65008
 614.85; 9184.580;  -40.710;    0.000;9225.29008
 615.12; 9172.780;  -40.130;    0.000;9212.91027
 615.40; 9164.560;  -45.350;    0.000;9209.90957
 615.67; 9048.100;  -41.120;    0.000;9089.21961
 615.95; 9016.860;  -42.780;    0.000;9059.64035
 616.22; 8939.760;  -39.310;    0.000;8979.06977
 616.50; 8955.740;  -36.190;    0.000;8991.93023
 616.77; 8850.960;  -39.210;    0.000;8890.16996
 617.05; 8765.240;  -40.130;    0.000;8805.37024
 617.32; 8685.240;  -41.510;    0.000;8726.75023
 617.59; 8578.140;  -39.270;    0.000;8617.40965
 617.87; 8466.880;  -46.440;    0.000;8513.31988
 618.14; 8447.960;  -39.430;    0.000;8487.38996
 618.42; 8324.700;  -48.270;    0.000;8372.97020
 618.69; 8228.220;  -42.280;    0.000;8270.49973
 618.97; 8176.640;  -50.160;    0.000;8226.80014
 619.24; 8079.020;  -46.580;    0.000;8125.60002
 619.51; 7952.980;  -37.650;    0.000;7990.62998
 619.79; 7862.220;  -40.650;    0.000;7902.87022
 620.06; 7671.640;  -36.470;    0.000;7708.11014
 620.34; 7511.080;  -42.190;    0.000;7553.27008
 620.61; 7413.840;  -36.840;    0.000;7450.67984
 620.88; 7362.360;  -52.820;    0.000;7415.17986
 621.16; 7490.780;  -38.520;    0.000;7529.29979
 621.43; 7566.660;  -40.070;    0.000;7606.73016
 621.71; 7549.320;  -40.440;    0.000;7589.75982
 621.98; 7467.320;  -42.920;    0.000;7510.23982
 622.25; 7369.560;  -42.110;    0.000;7411.67006
 622.53; 7360.560;  -43.900;    0.000;7404.46006
 622.80; 7305.020;  -48.280;    0.000;7353.30002
 623.08; 7252.640;  -48.410;    0.000;7301.05014
 623.35; 7241.260;  -42.130;    0.000;7283.38977
 623.62; 7155.060;  -41.870;    0.000;7196.93006
 623.90; 7153.200;  -44.400;    0.000;7197.60020
 624.17; 7072.480;  -45.690;    0.000;7118.16998
 624.44; 7026.640;  -37.610;    0.000;7064.25014
 624.72; 6995.380;  -46.110;    0.000;7041.48988
 624.99; 6982.280;  -46.780;    0.000;7029.05978
 625.26; 6978.440;  -48.840;    0.000;7027.27994
 625.54; 7008.440;  -34.500;    0.000;7042.93994
 625.81; 7050.620;  -39.400;    0.000;7090.02012
 626.09; 7023.620;  -42.260;    0.000;7065.88012
 626.36; 7028.780;  -45.970;    0.000;7074.74979
 626.63; 7016.260;  -41.260;    0.000;7057.51976
 626.91; 6963.920;  -45.500;    0.000;7009.41992
 627.18; 6983.340;  -36.360;    0.000;7019.69984
 627.45; 6917.540;  -44.240;    0.000;6961.78004
 627.73; 6910.200;  -37.730;    0.000;6947.93019
 628.00; 6875.820;  -50.130;    0.000;6925.94983
 628.27; 6861.700;  -40.330;    0.000;6902.03020
 628.55; 6820.160;  -44.630;    0.000;6864.79016
 628.82; 6754.460;  -48.870;    0.000;6803.32996
 629.09; 6744.600;  -49.850;    0.000;6794.45010
 629.37; 6768.500;  -48.480;    0.000;6816.98000
 629.64; 6748.360;  -48.280;    0.000;6796.63986
 629.91; 6718.000;  -45.620;    0.000;6763.62000
 630.18; 6735.580;  -51.830;    0.000;6787.41008
 630.46; 6709.620;  -36.850;    0.000;6746.47012
 630.73; 6666.980;  -39.860;    0.000;6706.83998
 631.00; 6594.920;  -47.900;    0.000;6642.81992
 631.28; 6575.360;  -49.040;    0.000;6624.39986
 631.55; 6601.180;  -43.760;    0.000;6644.94017
 631.82; 6561.500;  -44.290;    0.000;6605.79000
 632.10; 6508.460;  -39.890;    0.000;6548.34996
 632.37; 6497.380;  -43.540;    0.000;6540.91988
 632.64; 6527.280;  -40.290;    0.000;6567.56979
 632.91; 6479.180;  -40.250;    0.000;6519.43018
 633.19; 6420.800;  -41.720;    0.000;6462.51981
 633.46; 6388.560;  -51.730;    0.000;6440.29006
 633.73; 6375.400;  -38.000;    0.000;6413.39990
 634.01; 6374.440;  -45.300;    0.000;6419.73994
 634.28; 6345.960;  -41.280;    0.000;6387.23996
 634.55; 6343.280;  -41.150;    0.000;6384.42979
 634.82; 6310.640;  -47.530;    0.000;6358.17014
 635.10; 6292.500;  -39.270;    0.000;6331.77000
 635.37; 6262.820;  -47.120;    0.000;6309.93982
 635.64; 6248.860;  -54.360;    0.000;6303.21986
 635.91; 6276.800;  -48.020;    0.000;6324.81981
 636.19; 6241.600;  -44.600;    0.000;6286.20010
 636.46; 6230.740;  -48.800;    0.000;6279.54023
 636.73; 6272.060;  -39.570;    0.000;6311.63006
 637.00; 6241.180;  -42.160;    0.000;6283.34018
 637.28; 6246.060;  -50.320;    0.000;6296.38006
 637.55; 6238.840;  -43.570;    0.000;6282.40984
 637.82; 6166.540;  -46.760;    0.000;6213.30004
 638.09; 6067.820;  -39.060;    0.000;6106.87983
 638.37; 5968.080;  -46.470;    0.000;6014.55008
 638.64; 5955.180;  -47.310;    0.000;6002.49018
 638.91; 5922.560;  -41.310;    0.000;5963.87006
 639.18; 5903.740;  -43.470;    0.000;5947.21024
 639.46; 5881.720;  -48.390;    0.000;5930.11021
 639.73; 5812.020;  -39.780;    0.000;5851.80002
 640.00; 5772.520;  -45.530;    0.000;5818.05002
 640.27; 5745.640;  -46.560;    0.000;5792.20014
 640.54; 5688.360;  -51.660;    0.000;5740.01986
 640.82; 5695.440;  -48.560;    0.000;5743.99994
 641.09; 5647.060;  -48.760;    0.000;5695.82006
 641.36; 5575.900;  -46.200;    0.000;5622.09990
 641.63; 5555.660;  -55.600;    0.000;5611.26015
 641.91; 5468.740;  -46.400;    0.000;5515.14024
 642.18; 5423.580;  -52.210;    0.000;5475.79008
 642.45; 5365.320;  -52.490;    0.000;5417.80983
 642.72; 5316.540;  -53.360;    0.000;5369.90004
 642.99; 5263.660;  -36.570;    0.000;5300.23016
 643.26; 5226.520;  -47.650;    0.000;5274.17002
 643.54; 5173.260;  -40.710;    0.000;5213.96976
 643.81; 5160.800;  -55.630;    0.000;5216.42981
 644.08; 5092.840;  -47.930;    0.000;5140.76984
 644.35; 5087.760;  -48.850;    0.000;5136.60976
 644.62; 5037.120;  -49.000;    0.000;5086.12012
 644.90; 4975.860;  -43.820;    0.000;5019.67986
 645.17; 4948.660;  -51.370;    0.000;5000.03016
 645.44; 4906.660;  -47.130;    0.000;4953.79016
 645.71; 4867.420;  -49.200;    0.000;4916.61992
 645.98; 4885.460;  -46.690;    0.000;4932.14996
 646.25; 4811.840;  -46.940;    0.000;4858.77984
 646.53; 4800.180;  -50.370;    0.000;4850.55017
 646.80; 4756.920;  -42.780;    0.000;4799.69992
 647.07; 4740.780;  -59.170;    0.000;4799.94978
 647.34; 4734.140;  -47.590;    0.000;4781.73014
 647.61; 4692.100;  -45.690;    0.000;4737.79010
 647.88; 4702.160;  -38.410;    0.000;4740.57016
 648.15; 4620.480;  -51.900;    0.000;4672.37998
 648.43; 4610.660;  -52.460;    0.000;4663.12016
 648.70; 4588.360;  -50.870;    0.000;4639.22986
 648.97; 4526.120;  -44.090;    0.000;4570.21012
 649.24; 4544.600;  -46.570;    0.000;4591.17010
 649.51; 4481.480;  -56.440;    0.000;4537.91998
 649.78; 4403.180;  -48.510;    0.000;4451.69017
 650.05; 4405.080;  -44.310;    0.000;4449.39008
 650.32; 4481.940;  -21.090;    0.000;4503.02994
 650.60; 4354.400;  -47.320;    0.000;4401.71990
 650.87; 4363.900;  -50.640;    0.000;4414.53990
 651.14; 4309.980;  -54.410;    0.000;4364.38998
 651.41; 4307.020;  -54.500;    0.000;4361.52002
 651.68; 4287.520;  -50.510;    0.000;4338.03002
 651.95; 4231.560;  -48.670;    0.000;4280.23006
 652.22; 4240.660;  -53.000;    0.000;4293.66016
 652.49; 4178.520;  -58.480;    0.000;4237.00002
 652.76; 4149.020;  -53.540;    0.000;4202.56002
 653.03; 4146.780;  -48.460;    0.000;4195.23978
 653.31; 4066.680;  -50.850;    0.000;4117.52993
 653.58; 4068.660;  -50.660;    0.000;4119.31991
 653.85; 4048.820;  -53.770;    0.000;4102.59007
 654.12; 4024.740;  -52.700;    0.000;4077.43999
 654.39; 3986.560;  -49.080;    0.000;4035.64006
 654.66; 3998.960;  -44.350;    0.000;4043.30996
 654.93; 3962.760;  -40.020;    0.000;4002.78001
 655.20; 3915.180;  -51.700;    0.000;3966.87993
 655.47; 3903.120;  -52.020;    0.000;3955.14012
 655.74; 3893.780;  -46.170;    0.000;3939.95003
 656.01; 3812.200;  -53.270;    0.000;3865.46995
 656.28; 3804.620;  -53.920;    0.000;3858.54012
 656.55; 3828.900;  -44.780;    0.000;3873.67990
 656.83; 3756.620;  -54.700;    0.000;3811.32012
 657.10; 3734.040;  -54.950;    0.000;3788.99004
 657.37; 3715.660;  -45.470;    0.000;3761.12991
 657.64; 3681.900;  -50.040;    0.000;3731.93990
 657.91; 3691.900;  -54.530;    0.000;3746.42990
 658.18; 3669.760;  -48.090;    0.000;3717.85001
 658.45; 3614.760;  -53.800;    0.000;3668.56001
 658.72; 3620.620;  -49.560;    0.000;3670.18012
 658.99; 3566.960;  -52.810;    0.000;3619.76996
 659.26; 3593.640;  -44.460;    0.000;3638.09989
 659.53; 3526.680;  -53.390;    0.000;3580.06993
 659.80; 3517.840;  -50.980;    0.000;3568.82009
 660.07; 3517.340;  -41.400;    0.000;3558.74009
 660.34; 3452.780;  -52.590;    0.000;3505.37003
 660.61; 3450.140;  -54.010;    0.000;3504.14989
 660.88; 3432.900;  -49.010;    0.000;3481.90990
 661.15; 3424.020;  -45.510;    0.000;3469.53002
 661.42; 3404.600;  -52.000;    0.000;3456.60010
 661.69; 3348.260;  -51.660;    0.000;3399.92001
 661.96; 3314.820;  -53.540;    0.000;3368.36007
 662.23; 3326.820;  -54.210;    0.000;3381.03007
 662.50; 3296.160;  -55.200;    0.000;3351.35991
 662.77; 3242.580;  -57.340;    0.000;3299.92008
 663.04; 3238.740;  -55.460;    0.000;3294.19999
 663.31; 3246.680;  -53.020;    0.000;3299.69993
 663.58; 3203.120;  -53.790;    0.000;3256.91012
 663.85; 3174.380;  -48.190;    0.000;3222.56988
 664.12; 3161.100;  -49.170;    0.000;3210.27010
 664.39; 3140.860;  -57.490;    0.000;3198.35011
 664.66; 3092.800;  -56.420;    0.000;3149.22005
 664.93; 3067.800;  -57.810;    0.000;3125.61005
 665.20; 3067.760;  -45.510;    0.000;3113.27001
 665.47; 3030.500;  -47.500;    0.000;3078.00000
 665.74; 3020.720;  -56.240;    0.000;3076.95997
 666.01; 3043.980;  -52.970;    0.000;3096.94998
 666.28; 2956.180;  -53.610;    0.000;3009.78993
 666.55; 2968.140;  -48.340;    0.000;3016.47989
 666.82; 2929.480;  -58.560;    0.000;2988.03998
 667.09; 2916.720;  -54.770;    0.000;2971.48997
 667.36; 2891.700;  -51.960;    0.000;2943.65995
 667.63; 2877.800;  -48.120;    0.000;2925.92005
 667.90; 2844.400;  -50.500;    0.000;2894.89990
 668.16; 2855.380;  -51.760;    0.000;2907.13988
 668.43; 2825.460;  -52.290;    0.000;2877.74996
 668.70; 2805.200;  -50.190;    0.000;2855.38995
 668.97; 2783.600;  -54.900;    0.000;2838.50010
 669.24; 2782.600;  -50.670;    0.000;2833.27010
 669.51; 2741.980;  -47.280;    0.000;2789.25998
 669.78; 2704.080;  -57.020;    0.000;2761.10008
 670.05; 2685.700;  -53.780;    0.000;2739.47995
 670.32; 2676.060;  -47.630;    0.000;2723.69006
 670.59; 2656.340;  -59.380;    0.000;2715.72009
 670.86; 2665.820;  -54.490;    0.000;2720.31007
 671.13; 2638.860;  -53.370;    0.000;2692.23011
 671.40; 2614.980;  -52.030;    0.000;2667.00998
 671.67; 2620.920;  -50.040;    0.000;2670.95992
 671.93; 2550.060;  -55.350;    0.000;2605.41006
 672.20; 2552.640;  -58.000;    0.000;2610.63989
 672.47; 2519.900;  -49.890;    0.000;2569.78990
 672.74; 2512.980;  -48.940;    0.000;2561.91998
 673.01; 2492.140;  -62.990;    0.000;2555.12989
 673.28; 2488.000;  -53.910;    0.000;2541.91000
 673.55; 2446.320;  -54.610;    0.000;2500.93007
 673.82; 2431.160;  -51.100;    0.000;2482.25991
 674.09; 2424.880;  -52.250;    0.000;2477.12988
 674.35; 2394.380;  -58.740;    0.000;2453.11988
 674.62; 2379.720;  -44.900;    0.000;2424.61997
 674.89; 2364.420;  -53.110;    0.000;2417.52992
 675.16; 2343.540;  -47.910;    0.000;2391.45004
 675.43; 2313.660;  -52.020;    0.000;2365.67991
 675.70; 2355.720;  -36.370;    0.000;2392.08997
 675.97; 2297.500;  -55.340;    0.000;2352.84000
 676.24; 2293.520;  -47.960;    0.000;2341.48002
 676.50; 2284.940;  -59.330;    0.000;2344.26994
 676.77; 2238.240;  -60.020;    0.000;2298.25999
 677.04; 2214.560;  -47.110;    0.000;2261.67006
 677.31; 2222.160;  -55.920;    0.000;2278.07991
 677.58; 2210.940;  -52.120;    0.000;2263.05994
 677.85; 2205.160;  -48.990;    0.000;2254.14991
 678.12; 2195.180;  -52.160;    0.000;2247.33993
 678.38; 2170.340;  -54.140;    0.000;2224.48009
 678.65; 2111.360;  -60.680;    0.000;2172.04011
 678.92; 2125.900;  -53.340;    0.000;2179.23990
 679.19; 2128.580;  -39.870;    0.000;2168.45008
 679.46; 2056.820;  -46.760;    0.000;2103.58007
 679.73; 2072.940;  -59.180;    0.000;2132.11994
 679.99; 2056.800;  -56.270;    0.000;2113.07005
 680.26; 2014.060;  -54.520;    0.000;2068.58006
 680.53; 1993.280;  -59.650;    0.000;2052.93003
 680.80; 2011.140;  -56.750;    0.000;2067.89001
 681.07; 1985.600;  -55.340;    0.000;2040.93998
 681.33; 1992.620;  -54.670;    0.000;2047.28999
 681.60; 1962.340;  -52.230;    0.000;2014.56997
 681.87; 1947.000;  -54.620;    0.000;2001.62000
 682.14; 1925.780;  -52.270;    0.000;1978.05003
 682.41; 1884.620;  -57.990;    0.000;1942.61000
 682.67; 1926.620;  -50.450;    0.000;1977.07000
 682.94; 1887.280;  -59.360;    0.000;1946.64003
 683.21; 1869.260;  -53.700;    0.000;1922.96001
 683.48; 1865.740;  -55.450;    0.000;1921.18999
 683.75; 1859.560;  -47.950;    0.000;1907.51006
 684.01; 1837.620;  -46.370;    0.000;1883.98999
 684.28; 1815.960;  -57.410;    0.000;1873.36996
 684.55; 1824.040;  -54.400;    0.000;1878.44004
 684.82; 1782.120;  -62.610;    0.000;1844.73000
 685.09; 1774.320;  -45.320;    0.000;1819.63995
 685.35; 1758.540;  -50.950;    0.000;1809.49004
 685.62; 1744.400;  -53.810;    0.000;1798.21003
 685.89; 1749.100;  -50.790;    0.000;1799.88998
 686.16; 1722.760;  -60.890;    0.000;1783.65001
 686.42; 1722.660;  -53.860;    0.000;1776.52003
 686.69; 1691.100;  -49.770;    0.000;1740.86998
 686.96; 1669.260;  -58.350;    0.000;1727.61001
 687.23; 1678.580;  -53.370;    0.000;1731.94995
 687.49; 1671.280;  -46.350;    0.000;1717.63003
 687.76; 1632.840;  -56.190;    0.000;1689.02996
 688.03; 1627.880;  -57.270;    0.000;1685.15001
 688.30; 1608.280;  -63.910;    0.000;1672.19003
 688.56; 1591.020;  -49.760;    0.000;1640.78002
 688.83; 1606.980;  -58.260;    0.000;1665.23998
 689.10; 1579.560;  -59.880;    0.000;1639.44006
 689.37; 1564.520;  -60.250;    0.000;1624.77002
 689.63; 1550.680;  -58.120;    0.000;1608.80005
 689.90; 1546.680;  -42.960;    0.000;1589.64005
 690.17; 1553.460;  -57.170;    0.000;1610.62996
 690.44; 1513.080;  -53.100;    0.000;1566.17995
 690.70; 1474.700;  -64.370;    0.000;1539.06995
 690.97; 1490.760;  -52.060;    0.000;1542.82001
 691.24; 1477.660;  -45.640;    0.000;1523.30003
 691.50; 1476.160;  -63.810;    0.000;1539.97004
 691.77; 1436.860;  -61.380;    0.000;1498.23999
 692.04; 1435.900;  -50.390;    0.000;1486.29002
 692.30; 1419.260;  -61.100;    0.000;1480.36001
 692.57; 1437.840;  -55.730;    0.000;1493.56997
 692.84; 1392.220;  -60.990;    0.000;1453.20997
 693.11; 1390.360;  -51.860;    0.000;1442.21999
 693.37; 1371.340;  -50.850;    0.000;1422.18996
 693.64; 1375.420;  -63.550;    0.000;1438.97004
 693.91; 1346.340;  -52.450;    0.000;1398.78997
 694.17; 1384.000;  -52.150;    0.000;1436.15000
 694.44; 1346.260;  -55.600;    0.000;1401.86001
 694.71; 1311.060;  -66.220;    0.000;1377.28006
 694.97; 1293.720;  -60.180;    0.000;1353.89997
 695.24; 1269.820;  -60.420;    0.000;1330.23994
 695.51; 1281.420;  -64.250;    0.000;1345.67004
 695.77; 1255.720;  -53.070;    0.000;1308.78997
 696.04; 1250.020;  -57.450;    0.000;1307.47002
 696.31; 1243.040;  -55.850;    0.000;1298.89004
 696.57; 1245.140;  -48.360;    0.000;1293.50002
 696.84; 1222.420;  -56.540;    0.000;1278.96004
 697.11; 1196.180;  -49.450;    0.000;1245.63005
 697.37; 1190.980;  -52.390;    0.000;1243.36998
 697.64; 1161.580;  -50.550;    0.000;1212.12996
 697.91; 1154.320;  -63.040;    0.000;1217.35995
 698.17; 1128.780;  -58.460;    0.000;1187.24003
 698.44; 1131.940;  -54.420;    0.000;1186.35994
 698.71; 1120.760;  -60.630;    0.000;1181.39001
 698.97; 1108.300;  -56.130;    0.000;1164.43005
 699.24; 1104.380;  -57.190;    0.000;1161.57000
 699.50; 1076.960;  -63.610;    0.000;1140.56996
 699.77; 1075.700;  -63.480;    0.000;1139.17995
 700.04; 1063.660;  -56.390;    0.000;1120.05003
 700.30; 1033.160;  -57.580;    0.000;1090.74004
 700.57; 1016.640;  -57.160;    0.000;1073.80001
 700.84; 1038.120;  -52.700;    0.000;1090.82000
 701.10; 1018.080;  -55.650;    0.000;1073.73002
 701.37;  983.520;  -57.060;    0.000;1040.58002
 701.63;  975.520;  -60.840;    0.000;1036.36002
 701.90;  972.080;  -55.460;    0.000;1027.54002
 702.17;  977.740;  -46.530;    0.000;1024.26999
 702.43;  937.060;  -56.900;    0.000;993.96000
 702.70;  951.680;  -43.080;    0.000;994.75999
 702.96;  927.540;  -57.550;    0.000;985.08998
 703.23;  897.720;  -63.900;    0.000;961.61997
 703.50;  878.960;  -57.740;    0.000;936.70002
 703.76;  874.700;  -60.140;    0.000;934.84001
 704.03;  876.880;  -62.000;    0.000;938.88000
 704.29;  859.360;  -56.620;    0.000;915.97998
 704.56;  828.280;  -66.340;    0.000;894.62003
 704.82;  817.840;  -61.140;    0.000;878.98003
 705.09;  810.680;  -50.240;    0.000;860.91999
 705.36;  796.480;  -63.730;    0.000;860.20998
 705.62;  818.640;  -45.100;    0.000;863.74001
 705.89;  751.480;  -57.710;    0.000;809.18998
 706.15;  753.680;  -52.660;    0.000;806.33999
 706.42;  763.700;  -49.750;    0.000;813.45001
 706.68;  722.540;  -59.540;    0.000;782.07998
 706.95;  723.240;  -55.380;    0.000;778.61999
 707.21;  718.720;  -63.590;    0.000;782.30997
 707.48;  705.400;  -61.770;    0.000;767.17002
 707.75;  695.200;  -54.600;    0.000;749.80001
 708.01;  687.540;  -64.580;    0.000;752.11998
 708.28;  681.660;  -55.470;    0.000;737.12997
 708.54;  654.840;  -64.490;    0.000;719.33002
 708.81;  661.040;  -52.630;    0.000;713.66998
 709.07;  630.580;  -58.430;    0.000;689.01002
 709.34;  629.440;  -63.150;    0.000;692.59000
 709.60;  605.280;  -59.760;    0.000;665.04003
 709.87;  619.000;  -51.730;    0.000;670.73000
 710.13;  601.880;  -58.250;    0.000;660.13000
 710.40;  583.460;  -67.870;    0.000;651.33002
 710.66;  585.760;  -58.170;    0.000;643.93001
 710.93;  575.800;  -58.390;    0.000;634.18999
 711.19;  555.000;  -60.660;    0.000;615.66000
 711.46;  561.480;  -53.110;    0.000;614.58998
 711.72;  572.880;  -53.100;    0.000;625.98000
 711.99;  549.720;  -64.700;    0.000;614.41997
 712.25;  545.700;  -54.480;    0.000;600.18001
 712.52;  553.380;  -51.400;    0.000;604.78001
 712.78;  528.440;  -54.830;    0.000;583.27000
 713.05;  511.700;  -61.310;    0.000;573.01001
 713.31;  504.580;  -54.880;    0.000;559.45999
 713.58;  511.160;  -56.790;    0.000;567.95000
 713.84;  501.100;  -53.100;    0.000;554.20000
 714.11;  490.540;  -62.430;    0.000;552.97001
 714.37;  506.960;  -52.180;    0.000;559.13999
 714.64;  478.140;  -54.400;    0.000;532.54002
 714.90;  483.440;  -53.310;    0.000;536.75000
 715.17;  460.920;  -57.550;    0.000;518.47001
 715.43;  467.920;  -50.260;    0.000;518.18001
 715.70;  458.540;  -55.710;    0.000;514.25001
 715.96;  468.400;  -54.690;    0.000;523.08999
 716.22;  455.980;  -61.380;    0.000;517.36001
 716.49;  446.640;  -58.790;    0.000;505.43002
 716.75;  434.120;  -62.550;    0.000;496.66999
 717.02;  443.900;  -58.140;    0.000;502.03999
 717.28;  411.920;  -63.690;    0.000;475.61001
 717.55;  439.240;  -62.720;    0.000;501.95999
 717.81;  448.640;  -56.110;    0.000;504.75002
 718.08;  416.300;  -58.860;    0.000;475.15999
 718.34;  429.260;  -65.190;    0.000;494.45001
 718.60;  421.000;  -51.960;    0.000;472.96000
 718.87;  441.720;  -58.480;    0.000;500.20000
 719.13;  429.160;  -63.390;    0.000;492.55000
 719.40;  429.200;  -57.650;    0.000;486.85001
 719.66;  417.520;  -60.260;    0.000;477.77999
 719.93;  418.720;  -56.900;    0.000;475.62000
 720.19;  394.840;  -67.380;    0.000;462.21999
 720.45;  401.200;  -62.750;    0.000;463.95001
 720.72;  420.580;  -57.950;    0.000;478.52999
 720.98;  426.880;  -55.200;    0.000;482.08001
 721.25;  403.020;  -64.310;    0.000;467.32999
 721.51;  395.700;  -68.290;    0.000;463.99001
 721.77;  406.600;  -60.350;    0.000;466.95000
 722.04;  421.860;  -45.030;    0.000;466.88998
 722.30;  415.540;  -55.770;    0.000;471.31001
 722.57;  385.960;  -60.430;    0.000;446.38999
 722.83;  400.960;  -62.410;    0.000;463.36999
 723.09;  399.960;  -64.170;    0.000;464.12999
 723.36;  389.000;  -64.180;    0.000;453.18000
 723.62;  397.940;  -58.620;    0.000;456.56000
 723.88;  395.860;  -56.860;    0.000;452.71999
 724.15;  392.060;  -56.520;    0.000;448.58000
 724.41;  383.640;  -63.620;    0.000;447.26001
 724.68;  374.420;  -62.790;    0.000;437.21001
 724.94;  396.460;  -49.670;    0.000;446.12999
 725.20;  384.360;  -59.760;    0.000;444.11998
 725.47;  382.120;  -61.790;    0.000;443.91000
 725.73;  386.600;  -57.560;    0.000;444.16001
 725.99;  375.760;  -62.280;    0.000;438.04001
 726.26;  387.240;  -48.740;    0.000;435.97999
 726.52;  380.780;  -52.300;    0.000;433.08000
 726.78;  381.520;  -64.050;    0.000;445.56999
 727.05;  400.260;  -58.610;    0.000;458.87001
 727.31;  375.720;  -65.490;    0.000;441.21000
 727.57;  376.800;  -61.120;    0.000;437.91999
 727.84;  379.840;  -54.090;    0.000;433.93000
 728.10;  378.920;  -57.090;    0.000;436.01001
 728.36;  378.720;  -62.130;    0.000;440.85000
 728.63;  375.540;  -64.770;    0.000;440.31001
 728.89;  368.940;  -68.210;    0.000;437.15000
 729.15;  365.520;  -60.940;    0.000;426.45999
 729.42;  357.420;  -64.380;    0.000;421.80001
 729.68;  366.180;  -59.120;    0.000;425.29999
 729.94;  343.340;  -61.710;    0.000;405.05000
 730.21;  349.700;  -63.750;    0.000;413.45001
 730.47;  352.080;  -65.420;    0.000;417.49998
 730.73;  342.680;  -62.120;    0.000;404.79999
 731.00;  343.920;  -57.710;    0.000;401.63001
 731.26;  353.220;  -55.830;    0.000;409.05000
 731.52;  353.020;  -65.480;    0.000;418.49999
 731.78;  347.280;  -64.150;    0.000;411.43000
 732.05;  334.320;  -63.760;    0.000;398.08001
 732.31;  337.420;  -66.150;    0.000;403.57001
 732.57;  349.800;  -62.040;    0.000;411.83999
 732.84;  331.860;  -65.060;    0.000;396.91998
 733.10;  314.940;  -61.680;    0.000;376.62000
 733.36;  311.440;  -65.560;    0.000;377.00000
 733.62;  321.980;  -68.590;    0.000;390.57001
 733.89;  319.720;  -60.690;    0.000;380.41000
 734.15;  331.960;  -62.020;    0.000;393.97999
 734.41;  330.580;  -59.170;    0.000;389.74998
 734.67;  318.220;  -65.610;    0.000;383.83000
 734.94;  313.560;  -64.100;    0.000;377.66000
 735.20;  312.280;  -64.260;    0.000;376.54000
 735.46;  314.680;  -61.760;    0.000;376.43999
 735.73;  312.100;  -62.280;    0.000;374.38000
 735.99;  296.320;  -63.580;    0.000;359.90001
 736.25;  302.420;  -65.330;    0.000;367.75002
 736.51;  288.100;  -64.780;    0.000;352.88000
 736.77;  302.460;  -59.870;    0.000;362.32999
 737.04;  301.860;  -62.400;    0.000;364.25999
 737.30;  285.420;  -60.030;    0.000;345.45001
 737.56;  292.840;  -57.690;    0.000;350.52999
 737.82;  285.260;  -62.400;    0.000;347.66001
 738.09;  286.280;  -61.080;    0.000;347.36000
 738.35;  279.680;  -65.060;    0.000;344.73999
 738.61;  295.300;  -60.770;    0.000;356.06999
 738.87;  278.560;  -61.660;    0.000;340.22000
 739.14;  270.800;  -59.450;    0.000;330.24999
 739.40;  260.600;  -66.620;    0.000;327.22001
 739.66;  271.780;  -65.480;    0.000;337.26000
 739.92;  269.800;  -64.110;    0.000;333.90999
 740.18;  275.920;  -58.910;    0.000;334.83001
 740.45;  251.300;  -66.570;    0.000;317.87000
 740.71;  268.320;  -64.190;    0.000;332.51001
 740.97;  254.180;  -61.620;    0.000;315.79999
 741.23;  246.220;  -64.440;    0.000;310.66000
 741.49;  253.700;  -61.870;    0.000;315.57000
 741.76;  236.840;  -69.670;    0.000;306.50999
 742.02;  248.980;  -70.580;    0.000;319.56000
 742.28;  243.240;  -67.810;    0.000;311.05000
 742.54;  250.620;  -67.320;    0.000;317.93999
 742.80;  243.520;  -66.940;    0.000;310.46001
 743.06;  252.240;  -60.220;    0.000;312.46001
 743.33;  243.180;  -60.250;    0.000;303.42999
 743.59;  225.880;  -71.210;    0.000;297.09000
 743.85;  213.660;  -63.280;    0.000;276.94000
 744.11;  228.080;  -65.520;    0.000;293.60000
 744.37;  247.160;  -63.300;    0.000;310.46000
 744.63;  222.600;  -62.430;    0.000;285.03001
 744.90;  208.200;  -61.300;    0.000;269.50000
 745.16;  210.460;  -61.400;    0.000;271.86001
 745.42;  209.580;  -69.410;    0.000;278.99001
 745.68;  199.120;  -62.770;    0.000;261.89000
 745.94;  229.480;  -54.740;    0.000;284.22000
 746.20;  197.400;  -62.940;    0.000;260.33999
 746.46;  217.880;  -58.490;    0.000;276.37001
 746.72;  210.900;  -60.020;    0.000;270.91999
 746.99;  198.280;  -59.340;    0.000;257.62000
 747.25;  225.940;  -54.110;    0.000;280.05000
 747.51;  189.940;  -63.240;    0.000;253.18000
 747.77;  199.760;  -66.010;    0.000;265.77000
 748.03;  182.540;  -65.590;    0.000;248.12999
 748.29;  185.020;  -63.300;    0.000;248.32000
 748.55;  178.820;  -63.610;    0.000;242.43001
 748.81;  174.880;  -65.400;    0.000;240.28001
 749.08;  197.640;  -61.140;    0.000;258.78000
 749.34;  187.880;  -61.020;    0.000;248.90001
 749.60;  190.420;  -61.090;    0.000;251.51000
 749.86;  187.500;  -62.460;    0.000;249.96000
 750.12;  175.480;  -58.080;    0.000;233.56000
 750.38;  179.540;  -66.740;    0.000;246.27999
 750.64;  157.680;  -64.990;    0.000;222.66999
 750.90;  173.580;  -61.010;    0.000;234.59000
 751.16;  162.140;  -66.030;    0.000;228.17000
 751.42;  162.720;  -63.820;    0.000;226.54000
 751.68;  174.340;  -57.490;    0.000;231.83000
 751.95;  145.020;  -66.360;    0.000;211.38000
 752.21;  148.920;  -68.570;    0.000;217.49000
 752.47;  142.900;  -59.310;    0.000;202.21000
 752.73;  131.560;  -72.150;    0.000;203.71000
 752.99;  136.380;  -62.330;    0.000;198.71001
 753.25;  140.400;  -68.210;    0.000;208.60999
 753.51;  135.640;  -66.540;    0.000;202.18000
 753.77;  133.160;  -65.250;    0.000;198.41000
 754.03;  117.200;  -63.310;    0.000;180.51000
 754.29;  119.780;  -69.830;    0.000;189.61000
 754.55;  124.140;  -73.220;    0.000;197.36000
 754.81;  114.940;  -65.730;    0.000;180.67001
 755.07;  123.300;  -60.480;    0.000;183.78000
 755.33;  122.260;  -68.640;    0.000;190.90000
 755.59;  117.740;  -69.750;    0.000;187.49000
 755.85;  120.400;  -61.550;    0.000;181.95000
 756.11;  113.040;  -66.180;    0.000;179.22000
 756.37;  108.860;  -68.200;    0.000;177.06000
 756.63;  136.700;  -52.880;    0.000;189.58000
 756.89;  112.920;  -77.540;    0.000;190.46000
 757.15;  106.320;  -67.220;    0.000;173.54000
 757.41;  124.520;  -51.850;    0.000;176.37000
 757.68;  109.680;  -69.940;    0.000;179.62000
 757.94;  112.960;  -61.100;    0.000;174.06000
 758.20;  107.880;  -60.850;    0.000;168.73000
 758.46;  102.340;  -65.120;    0.000;167.46000
 758.72;  101.620;  -70.550;    0.000;172.17001
 758.98;  107.900;  -58.450;    0.000;166.35000
 759.24;  107.200;  -62.840;    0.000;170.04000
 759.50;   98.340;  -60.370;    0.000;158.71000
 759.76;  116.760;  -58.150;    0.000;174.91000
 760.02;   81.500;  -64.840;    0.000;146.34000
 760.27;   96.660;  -64.360;    0.000;161.02000
 760.53;  101.780;  -61.770;    0.000;163.55000
 760.79;   96.320;  -58.420;    0.000;154.74000
 761.05;   96.680;  -59.730;    0.000;156.41000
 761.31;  105.520;  -68.970;    0.000;174.49000
 761.57;   87.420;  -64.760;    0.000;152.18000
 761.83;   82.940;  -63.850;    0.000;146.79000
 762.09;   70.680;  -60.800;    0.000;131.48000
 762.35;   74.140;  -73.160;    0.000;147.30000
 762.61;   89.040;  -65.790;    0.000;154.83000
 762.87;   90.980;  -64.790;    0.000;155.77000
 763.13;   72.900;  -65.200;    0.000;138.10000
 763.39;   91.920;  -58.510;    0.000;150.43000
 763.65;   67.960;  -65.790;    0.000;133.75000
 763.91;   77.920;  -68.850;    0.000;146.77000
 764.17;   77.060;  -61.550;    0.000;138.61000
 764.43;   73.980;  -65.120;    0.000;139.10001
 764.69;   65.020;  -67.690;    0.000;132.71000
 764.95;   74.340;  -65.290;    0.000;139.63000
 765.21;   65.000;  -64.710;    0.000;129.71000
 765.47;   65.460;  -60.070;    0.000;125.53000
 765.73;   66.540;  -63.090;    0.000;129.63000
 765.98;   81.480;  -62.060;    0.000;143.54000
 766.24;   56.580;  -71.710;    0.000;128.29000
 766.50;   53.660;  -70.390;    0.000;124.05000
 766.76;   66.820;  -59.140;    0.000;125.96000
 767.02;   68.620;  -67.650;    0.000;136.27000
 767.28;   61.060;  -62.770;    0.000;123.83000
 767.54;   53.340;  -65.130;    0.000;118.47000
 767.80;   66.760;  -67.980;    0.000;134.74001
 768.06;   66.680;  -57.150;    0.000;123.83000
 768.32;   58.020;  -55.090;    0.000;113.11000
 768.58;   46.820;  -72.460;    0.000;119.28000
 768.83;   47.680;  -67.770;    0.000;115.45000
 769.09;   47.960;  -63.610;    0.000;111.57000
 769.35;   60.140;  -63.310;    0.000;123.45000
 769.61;   44.700;  -65.500;    0.000;110.20000
 769.87;   46.980;  -60.230;    0.000;107.21000
 770.13;   54.620;  -65.920;    0.000;120.54000
 770.39;   33.780;  -67.330;    0.000;101.11000
 770.65;   61.080;  -65.630;    0.000;126.71000
 770.90;   28.220;  -71.040;    0.000;99.26000
 771.16;   43.960;  -65.650;    0.000;109.61000
 771.42;   33.320;  -60.610;    0.000;93.93000
 771.68;   39.760;  -72.120;    0.000;111.88000
 771.94;   49.920;  -64.270;    0.000;114.18999
 772.20;   33.360;  -71.570;    0.000;104.93000
 772.46;   45.660;  -70.450;    0.000;116.11000
 772.71;   52.560;  -62.790;    0.000;115.35000
 772.97;   52.640;  -61.450;    0.000;114.09000
 773.23;   37.200;  -66.880;    0.000;104.08000
 773.49;   63.700;  -61.900;    0.000;125.60000
 773.75;   27.740;  -66.690;    0.000;94.43000
 774.01;   19.760;  -66.730;    0.000;86.49000
 774.26;   36.620;  -70.110;    0.000;106.73000
 774.52;   45.520;  -57.630;    0.000;103.15000
 774.78;   27.980;  -67.870;    0.000;95.85000
 775.04;   58.760;  -57.380;    0.000;116.14000
 775.30;   23.220;  -70.620;    0.000;93.84000
 775.56;   26.780;  -62.130;    0.000;88.91000
 775.81;   34.000;  -62.360;    0.000;96.36000
 776.07;   16.120;  -63.320;    0.000;79.44000
 776.33;   31.940;  -66.810;    0.000;98.75000
 776.59;   21.760;  -72.310;    0.000;94.07000
 776.85;   20.700;  -72.330;    0.000;93.03000
 777.10;   38.440;  -66.910;    0.000;105.35000
 777.36;   19.540;  -70.350;    0.000;89.89000
 777.62;   29.400;  -66.270;    0.000;95.67000
 777.88;   16.240;  -66.450;    0.000;82.69000
 778.14;   23.980;  -67.860;    0.000;91.84000
 778.39;   31.080;  -69.450;    0.000;100.53000
 778.65;   25.760;  -66.470;    0.000;92.23000
 778.91;   22.860;  -72.700;    0.000;95.56000
 779.17;   40.060;  -59.560;    0.000;99.62000
 779.42;   18.180;  -73.390;    0.000;91.57000
 779.68;    4.560;  -69.660;    0.000;74.22000
 779.94;   17.480;  -68.700;    0.000;86.18000
 780.20;   18.300;  -73.010;    0.000;91.31000
 780.46;    4.780;  -73.730;    0.000;78.51000
 780.71;   35.020;  -65.500;    0.000;100.52000
 780.97;   13.300;  -67.720;    0.000;81.02000
 781.23;    0.520;  -68.470;    0.000;68.99000
 781.49;   23.520;  -65.070;    0.000;88.59000
 781.74;   18.460;  -62.670;    0.000;81.13000
 782.00;   16.200;  -71.050;    0.000;87.25000
 782.26;   24.560;  -61.940;    0.000;86.50000
 782.52;    5.100;  -67.400;    0.000;72.50000
 782.77;   10.300;  -63.130;    0.000;73.43000
 783.03;    4.900;  -72.070;    0.000;76.97000
 783.29;    4.540;  -67.470;    0.000;72.01000
 783.54;   13.640;  -69.510;    0.000;83.15000
 783.80;   18.800;  -61.520;    0.000;80.32000
 784.06;    2.440;  -72.390;    0.000;74.83000
 784.32;    6.800;  -69.850;    0.000;76.65000
 784.57;   34.040;  -57.390;    0.000;91.43000
 784.83;   -8.060;  -75.500;    0.000;67.44000
 785.09;   -6.420;  -75.670;    0.000;69.25000
 785.34;   -4.620;  -67.830;    0.000;63.21000
 785.60;    3.900;  -68.990;    0.000;72.89000
 785.86;   -4.160;  -65.770;    0.000;61.61000
 786.12;   11.620;  -64.000;    0.000;75.62000
 786.37;   37.180;  -58.590;    0.000;95.77000
 786.63;  -15.760;  -70.160;    0.000;54.40000
 786.89;   12.860;  -64.130;    0.000;76.99000
 787.14;   10.860;  -68.600;    0.000;79.46000
 787.40;   -6.640;  -65.120;    0.000;58.48000
 787.66;    0.360;  -69.570;    0.000;69.93000
 787.91;   30.520;  -54.980;    0.000;85.50000
 788.17;  -11.360;  -74.240;    0.000;62.88000
 788.43;  -13.340;  -65.670;    0.000;52.33000
 788.68;   -8.260;  -66.800;    0.000;58.54000
 788.94;   -3.400;  -64.460;    0.000;61.06000
 789.20;   -0.980;  -67.690;    0.000;66.71000
 789.45;  -12.180;  -75.860;    0.000;63.68000
 789.71;   -7.900;  -77.270;    0.000;69.37000
 789.97;   13.840;  -62.650;    0.000;76.49000
 790.22;   -8.640;  -70.660;    0.000;62.02000
 790.48;   -1.500;  -66.280;    0.000;64.78000
 790.74;    3.020;  -69.070;    0.000;72.09000
 790.99;   -6.340;  -67.310;    0.000;60.97000
 791.25;  -10.880;  -72.320;    0.000;61.44000
 791.51;  -13.860;  -69.110;    0.000;55.25000
 791.76;    3.120;  -60.800;    0.000;63.92000
 792.02;   -9.520;  -69.930;    0.000;60.41000
 792.27;   -8.360;  -63.120;    0.000;54.76000
 792.53;   -7.200;  -67.640;    0.000;60.44000
 792.79;    2.520;  -74.900;    0.000;77.42000
 793.04;  -12.920;  -66.410;    0.000;53.49000
 793.30;  -16.860;  -72.290;    0.000;55.43000
 793.56;  -10.620;  -64.850;    0.000;54.23000
 793.81;    8.440;  -64.930;    0.000;73.37000
 794.07;  -26.420;  -78.310;    0.000;51.89000
 794.32;  -14.460;  -65.850;    0.000;51.39000
 794.58;  -20.080;  -64.290;    0.000;44.21000
 794.84;  -10.920;  -73.370;    0.000;62.45000
 795.09;    0.800;  -63.290;    0.000;64.09000
 795.35;   -5.500;  -68.300;    0.000;62.80000
 795.60;   -9.380;  -67.650;    0.000;58.27000
 795.86;  -16.140;  -68.830;    0.000;52.69000
 796.12;  -34.720;  -75.900;    0.000;41.18000
 796.37;  -14.900;  -66.550;    0.000;51.65000
 796.63;  -23.740;  -68.700;    0.000;44.96000
 796.88;  -14.060;  -72.950;    0.000;58.89000
 797.14;   -4.200;  -65.230;    0.000;61.03000
 797.39;   -4.900;  -61.460;    0.000;56.56000
 797.65;  -15.560;  -68.500;    0.000;52.94000
 797.91;  -18.860;  -79.560;    0.000;60.70000
 798.16;  -15.960;  -69.310;    0.000;53.35000
 798.42;  -31.200;  -73.060;    0.000;41.86000
 798.67;  -20.720;  -75.160;    0.000;54.44000
 798.93;  -18.740;  -72.820;    0.000;54.08000
 799.18;  -21.300;  -69.660;    0.000;48.36000
 799.44;  -28.000;  -74.410;    0.000;46.41000
 799.69;  -15.880;  -72.570;    0.000;56.69000
 799.95;  -27.360;  -76.750;    0.000;49.39000
 800.21;  -21.120;  -71.490;    0.000;50.37000
 800.46;   -7.180;  -60.670;    0.000;53.49000
 800.72;  -27.580;  -74.550;    0.000;46.97000
 800.97;  -22.020;  -66.080;    0.000;44.06000
 801.23;  -29.180;  -69.050;    0.000;39.87000
 801.48;  -28.700;  -80.230;    0.000;51.53000
 801.74;  -29.380;  -70.650;    0.000;41.27000
 801.99;  -17.480;  -69.570;    0.000;52.09000
 802.25;  -22.160;  -68.120;    0.000;45.96000
 802.50;  -27.460;  -69.760;    0.000;42.30000
 802.76;   -5.860;  -68.390;    0.000;62.53000
 803.01;  -36.600;  -73.710;    0.000;37.11000
 803.27;  -27.060;  -68.660;    0.000;41.60000
 803.52;  -25.980;  -67.380;    0.000;41.40000
 803.78;  -18.180;  -65.800;    0.000;47.62000
 804.03;   -9.800;  -64.730;    0.000;54.93000
 804.29;  -39.580;  -73.690;    0.000;34.11000
 804.54;  -24.060;  -72.140;    0.000;48.08000
 804.80;  -26.580;  -70.710;    0.000;44.13000
 805.05;  -32.120;  -78.700;    0.000;46.58000
 805.31;  -17.220;  -64.860;    0.000;47.64000
 805.56;  -13.580;  -61.820;    0.000;48.24000
 805.82;  -35.200;  -75.510;    0.000;40.31000
 806.07;  -14.100;  -71.590;    0.000;57.49000
 806.33;  -27.380;  -63.430;    0.000;36.05000
 806.58;  -35.380;  -76.420;    0.000;41.04000
 806.84;  -28.840;  -67.110;    0.000;38.27000
 807.09;  -24.560;  -70.810;    0.000;46.25000
 807.34;  -33.800;  -71.760;    0.000;37.96000
 807.60;  -12.300;  -72.510;    0.000;60.21000
 807.85;  -17.180;  -66.100;    0.000;48.92000
 808.11;  -31.800;  -65.900;    0.000;34.10000
 808.36;   -8.060;  -56.490;    0.000;48.43000
 808.62;  -34.760;  -69.320;    0.000;34.56000
 808.87;  -34.880;  -69.730;    0.000;34.85000
 809.13;  -35.080;  -72.860;    0.000;37.78000
 809.38;  -19.700;  -63.580;    0.000;43.88000
 809.63;  -40.740;  -74.820;    0.000;34.08000
 809.89;  -17.120;  -65.740;    0.000;48.62000
 810.14;  -44.600;  -75.130;    0.000;30.53000
 810.40;  -23.860;  -66.270;    0.000;42.41000
 810.65;  -33.500;  -71.440;    0.000;37.94000
 810.91;  -51.880;  -76.930;    0.000;25.05000
 811.16;  -30.760;  -65.800;    0.000;35.04000
 811.41;  -29.120;  -58.080;    0.000;28.96000
 811.67;  -40.440;  -71.200;    0.000;30.76000
 811.92;  -19.440;  -67.900;    0.000;48.46000
 812.18;  -26.900;  -70.620;    0.000;43.72000
 812.43;  -42.460;  -69.170;    0.000;26.71000
 812.68;  -26.780;  -72.250;    0.000;45.47000
 812.94;  -35.900;  -70.010;    0.000;34.11000
 813.19;  -30.420;  -73.690;    0.000;43.27000
 813.45;   -1.900;  -54.460;    0.000;52.56000
 813.70;  -33.840;  -73.310;    0.000;39.47000
 813.95;  -21.840;  -69.970;    0.000;48.13000
 814.21;  -30.460;  -72.990;    0.000;42.53000
 814.46;  -40.080;  -66.200;    0.000;26.12000
 814.71;  -45.100;  -77.220;    0.000;32.12000
 814.97;  -36.700;  -71.610;    0.000;34.91000
 815.22;  -41.980;  -73.660;    0.000;31.68000
 815.48;  -28.360;  -74.930;    0.000;46.57000
 815.73;  -29.540;  -70.320;    0.000;40.78000
 815.98;  -41.120;  -72.260;    0.000;31.14000
 816.24;  -28.180;  -73.690;    0.000;45.51000
 816.49;  -26.800;  -67.570;    0.000;40.77000
 816.74;  -24.220;  -66.060;    0.000;41.84000
 817.00;  -16.220;  -65.110;    0.000;48.89000
 817.25;  -33.240;  -64.360;    0.000;31.12000
 817.50;  -47.320;  -71.190;    0.000;23.87000
 817.76;  -39.460;  -73.870;    0.000;34.41000
 818.01;  -41.940;  -74.140;    0.000;32.20000
 818.26;  -41.020;  -77.660;    0.000;36.64000
 818.52;  -47.040;  -71.160;    0.000;24.12000
 818.77;  -43.920;  -70.450;    0.000;26.53000
 819.02;  136.280;   -1.560;    0.000;137.84000
 819.28;  -36.100;  -76.850;    0.000;40.75000
 819.53;  -48.580;  -76.810;    0.000;28.23000
 819.78;  -32.200;  -71.320;    0.000;39.12000
 820.04;  -38.800;  -76.120;    0.000;37.32000
 820.29;  -42.180;  -69.520;    0.000;27.34000
 820.54;  -45.400;  -71.830;    0.000;26.43000
 820.79;  -34.540;  -68.430;    0.000;33.89000
 821.05;  -56.020;  -73.180;    0.000;17.16000
 821.30;  -12.720;  -60.740;    0.000;48.02000
 821.55;  -25.860;  -56.870;    0.000;31.01000
 821.81;  -48.260;  -72.250;    0.000;23.99000
 822.06;  -34.780;  -64.240;    0.000;29.46000
 822.31;  -17.860;  -64.090;    0.000;46.23000
 822.56;  -50.240;  -71.570;    0.000;21.33000
 822.82;  -47.600;  -74.760;    0.000;27.16000
 823.07;  -56.700;  -77.000;    0.000;20.30000
 823.32;  -54.480;  -86.470;    0.000;31.99000
 823.58;  -40.660;  -70.830;    0.000;30.17000
 823.83;  -42.980;  -68.440;    0.000;25.46000
 824.08;  -51.780;  -68.700;    0.000;16.92000
 824.33;  -57.300;  -78.080;    0.000;20.78000
 824.59;  -50.220;  -75.110;    0.000;24.89000
 824.84;  -37.020;  -73.820;    0.000;36.80000
 825.09;  -52.540;  -71.350;    0.000;18.81000
 825.34;  -46.200;  -78.610;    0.000;32.41000
 825.60;  -46.900;  -76.840;    0.000;29.93999
 825.85;  -43.400;  -72.800;    0.000;29.40000
 826.10;  -63.200;  -75.820;    0.000;12.62000
 826.35;  -42.740;  -78.380;    0.000;35.64000
 826.61;  -51.000;  -69.170;    0.000;18.17000
 826.86;  -50.320;  -74.300;    0.000;23.98000
 827.11;  -61.400;  -73.210;    0.000;11.81000
 827.36;  -55.760;  -79.440;    0.000;23.68000
 827.61;  -56.940;  -77.970;    0.000;21.03000
 827.87;  -52.600;  -73.890;    0.000;21.29000
 828.12;  -51.180;  -78.790;    0.000;27.61000
 828.37;  -43.060;  -76.470;    0.000;33.41000
 828.62;  -47.080;  -66.780;    0.000;19.70000
 828.88;  -31.760;  -68.950;    0.000;37.19000
 829.13;  -35.020;  -65.460;    0.000;30.44000
 829.38;  -66.720;  -74.310;    0.000; 7.59000
 829.63;  -50.420;  -76.380;    0.000;25.96000
 829.88;  -59.880;  -77.840;    0.000;17.96000
 830.14;  -54.480;  -68.400;    0.000;13.92000
 830.39;  -36.840;  -67.150;    0.000;30.31000
 830.64;  -57.640;  -73.500;    0.000;15.86000
 830.89;  -25.140;  -63.930;    0.000;38.79000
 831.14;  -52.080;  -65.130;    0.000;13.05000
 831.39;  -60.340;  -80.200;    0.000;19.86000
 831.65;  -65.200;  -73.680;    0.000; 8.48000
 831.90;  -59.520;  -76.450;    0.000;16.93000
 832.15;  -44.160;  -74.460;    0.000;30.30000
 832.40;  -50.040;  -71.070;    0.000;21.03000
 832.65;  -52.820;  -65.920;    0.000;13.10000
 832.90;  -57.520;  -71.420;    0.000;13.90000
 833.16;  -48.420;  -70.920;    0.000;22.50000
 833.41;  -42.920;  -68.270;    0.000;25.35000
 833.66;  -64.980;  -80.480;    0.000;15.50000
 833.91;  -43.880;  -69.470;    0.000;25.59000
 834.16;  -59.400;  -74.480;    0.000;15.08000
 834.41;  -59.340;  -78.330;    0.000;18.99000
 834.66;  -49.400;  -73.780;    0.000;24.38000
 834.92;  -61.360;  -76.420;    0.000;15.06000
 835.17;  -64.420;  -79.700;    0.000;15.28000
 835.42;  -51.580;  -74.750;    0.000;23.17000
 835.67;  -54.000;  -67.620;    0.000;13.62000
 835.92;  -61.180;  -76.180;    0.000;15.00000
 836.17;  -61.760;  -73.070;    0.000;11.31000
 836.42;  -67.940;  -80.720;    0.000;12.78000
 836.67;  -60.760;  -72.910;    0.000;12.15001
 836.93;  -65.460;  -67.370;    0.000; 1.91000
 837.18;  -54.500;  -68.480;    0.000;13.98000
 837.43;  -55.120;  -77.570;    0.000;22.45000
 837.68;  -52.660;  -75.250;    0.000;22.59000
 837.93;  -64.200;  -77.620;    0.000;13.42001
 838.18;  -56.260;  -72.720;    0.000;16.46000
 838.43;  -63.160;  -77.330;    0.000;14.17000
 838.68;  -60.420;  -75.400;    0.000;14.98000
 838.93;  -61.500;  -76.840;    0.000;15.34000
 839.18;  -42.060;  -68.870;    0.000;26.81000
 839.43;  -49.780;  -68.920;    0.000;19.14000
 839.69;  -58.120;  -75.200;    0.000;17.08000
 839.94;  -59.720;  -75.060;    0.000;15.34000
 840.19;  -67.800;  -64.900;    0.000;-2.90000
 840.44;  -51.840;  -74.590;    0.000;22.75000
 840.69;  -54.120;  -67.680;    0.000;13.56000
 840.94;  -55.860;  -78.800;    0.000;22.94000
 841.19;  -38.440;  -66.410;    0.000;27.97001
 841.44;  -55.320;  -70.390;    0.000;15.07000
 841.69;  -48.700;  -69.710;    0.000;21.01000
 841.94;  -59.060;  -72.650;    0.000;13.59000
 842.19;  -63.460;  -74.280;    0.000;10.82000
 842.44;  -63.700;  -72.650;    0.000; 8.95000
 842.69;  -55.960;  -68.330;    0.000;12.37000
 842.94;  -67.240;  -71.610;    0.000; 4.37000
 843.19;  -61.520;  -78.190;    0.000;16.67000
 843.44;  -60.900;  -74.710;    0.000;13.81000
 843.69;  -72.860;  -76.520;    0.000; 3.66000
 843.94;   14.500;  -44.550;    0.000;59.05000
 844.19;  -64.380;  -77.910;    0.000;13.53001
 844.44;  -41.040;  -71.510;    0.000;30.47000
 844.69;  -64.100;  -73.310;    0.000; 9.21000
 844.95;  -56.920;  -74.630;    0.000;17.71000
 845.20;  -79.300;  -82.130;    0.000; 2.82999
 845.45;  -54.780;  -68.000;    0.000;13.22000
 845.70;  -48.500;  -72.870;    0.000;24.37000
 845.95;  -56.320;  -74.560;    0.000;18.24000
 846.20;  -60.320;  -71.730;    0.000;11.41000
 846.45;  -67.300;  -77.390;    0.000;10.09000
 846.70;  -67.040;  -65.790;    0.000;-1.25000
 846.95;  -64.240;  -75.980;    0.000;11.74001
 847.20;  -56.600;  -73.000;    0.000;16.40000
 847.44;  -35.140;  -61.130;    0.000;25.99000
 847.69;  -67.060;  -79.180;    0.000;12.12000
 847.94;  -51.920;  -71.950;    0.000;20.03000
 848.19;  -67.660;  -73.590;    0.000; 5.92999
 848.44;  -55.380;  -70.960;    0.000;15.58000
 848.69;  -67.780;  -73.670;    0.000; 5.89000
 848.94;  -48.460;  -69.750;    0.000;21.29000
 849.19;  -59.340;  -80.480;    0.000;21.14000
 849.44;  -53.940;  -73.190;    0.000;19.25000
 849.69;  -61.440;  -78.510;    0.000;17.07000
 849.94;  -71.460;  -72.940;    0.000; 1.48000
 850.19;  -60.680;  -63.930;    0.000; 3.25000
 850.44;  -52.540;  -76.610;    0.000;24.07000
 850.69;  -63.020;  -69.690;    0.000; 6.67000
 850.94;  -65.160;  -77.600;    0.000;12.43999
 851.19;  -66.020;  -72.230;    0.000; 6.21001
 851.44;  -69.020;  -76.080;    0.000; 7.06001
 851.69;  -74.940;  -76.040;    0.000; 1.10000
 851.94;  -67.520;  -79.190;    0.000;11.67001
 852.19;  -58.400;  -76.300;    0.000;17.90000
 852.44;  -62.920;  -74.760;    0.000;11.84000
 852.68;  -69.100;  -75.620;    0.000; 6.52000
 852.93;  -50.380;  -70.590;    0.000;20.21000
 853.18;  -64.980;  -77.250;    0.000;12.27000
 853.43;  -59.200;  -76.120;    0.000;16.92000
 853.68;  -54.320;  -77.810;    0.000;23.49000
 853.93;  -57.440;  -67.550;    0.000;10.11000
 854.18;  -56.820;  -66.630;    0.000; 9.81000
 854.43;  -51.880;  -77.970;    0.000;26.09000
 854.68;  -65.640;  -75.490;    0.000; 9.85000
 854.93;  -56.800;  -66.450;    0.000; 9.65000
 855.18;  -65.780;  -74.650;    0.000; 8.87000
 855.42;  -51.520;  -72.230;    0.000;20.71000
 855.67;  -67.500;  -71.310;    0.000; 3.81000
 855.92;  -59.220;  -74.510;    0.000;15.29000
 856.17;  -60.960;  -67.440;    0.000; 6.48000
 856.42;  -46.840;  -76.160;    0.000;29.32000
 856.67;  -56.680;  -77.970;    0.000;21.29000
 856.92;  -56.160;  -79.620;    0.000;23.46000
 857.17;  -74.820;  -77.870;    0.000; 3.05000
 857.41;  -64.100;  -71.030;    0.000; 6.93000
 857.66;  -59.700;  -73.290;    0.000;13.59000
 857.91;  -43.980;  -73.290;    0.000;29.31000
 858.16;  -68.260;  -82.520;    0.000;14.25999
 858.41;  -57.700;  -72.320;    0.000;14.62000
 858.66;  -60.540;  -69.160;    0.000; 8.62000
 858.91;  -56.260;  -77.930;    0.000;21.67000
 859.15;  -68.860;  -76.870;    0.000; 8.01000
 859.40;  -35.260;  -68.270;    0.000;33.01000
 859.65;  -77.020;  -84.460;    0.000; 7.44000
 859.90;  -72.800;  -79.390;    0.000; 6.59000
 860.15;  -59.800;  -69.890;    0.000;10.09000
 860.40;  -46.140;  -69.890;    0.000;23.75000
 860.64;  -55.220;  -70.370;    0.000;15.15000
 860.89;  -64.280;  -74.750;    0.000;10.47000
 861.14;  -58.220;  -70.090;    0.000;11.87000
 861.39;  -46.120;  -69.870;    0.000;23.75000
 861.64;  -73.640;  -75.520;    0.000; 1.88000
 861.88;  -52.020;  -72.380;    0.000;20.36000
 862.13;  -63.660;  -76.230;    0.000;12.57000
 862.38;  -64.920;  -72.450;    0.000; 7.53000
 862.63;  -63.740;  -74.260;    0.000;10.52000
 862.88;  -64.940;  -69.530;    0.000; 4.59000
 863.12;  -63.460;  -67.960;    0.000; 4.50000
 863.37;  -65.000;  -71.990;    0.000; 6.99000
 863.62;  -60.480;  -77.420;    0.000;16.94000
 863.87;  -76.000;  -78.180;    0.000; 2.18000
 864.12;  -56.240;  -73.600;    0.000;17.36000
 864.36;  -66.560;  -69.580;    0.000; 3.02000
 864.61;  -59.160;  -73.260;    0.000;14.10000
 864.86;  -62.360;  -78.780;    0.000;16.42000
 865.11;  -52.440;  -68.440;    0.000;16.00000
 865.35;  -54.580;  -68.810;    0.000;14.23000
 865.60;  -58.820;  -71.930;    0.000;13.11000
 865.85;  -47.880;  -72.600;    0.000;24.72000
 866.10;  -72.380;  -75.090;    0.000; 2.71000
 866.34;  -59.160;  -74.150;    0.000;14.99000
 866.59;  -50.240;  -67.290;    0.000;17.05000
 866.84;  -53.300;  -74.630;    0.000;21.33000
 867.09;  -73.040;  -80.380;    0.000; 7.34000
 867.33;  -66.400;  -74.040;    0.000; 7.64000
 867.58;  -64.220;  -71.470;    0.000; 7.25000
 867.83;  -68.080;  -74.280;    0.000; 6.20000
 868.08;  -62.160;  -76.090;    0.000;13.93000
 868.32;  -53.720;  -68.010;    0.000;14.29000
 868.57;  -72.700;  -81.500;    0.000; 8.80000
 868.82;  -43.700;  -72.920;    0.000;29.22000
 869.07;  -77.540;  -81.160;    0.000; 3.62000
 869.31;  -47.900;  -69.490;    0.000;21.59000
 869.56;  -71.560;  -84.440;    0.000;12.88000
 869.81;  -59.800;  -83.050;    0.000;23.25000
 870.05;  -75.440;  -79.990;    0.000; 4.55000
 870.30;  -57.000;  -76.070;    0.000;19.07000
 870.55;  -49.080;  -69.170;    0.000;20.09000
 870.80;  -52.620;  -74.860;    0.000;22.24000
 871.04;  -53.620;  -69.280;    0.000;15.66000
 871.29;  -69.080;  -73.970;    0.000; 4.89000
 871.54;  -61.400;  -72.650;    0.000;11.25000
 871.78;  -61.460;  -75.650;    0.000;14.19000
 872.03;  -62.840;  -76.460;    0.000;13.62000
 872.28;  -54.800;  -75.610;    0.000;20.81000
 872.52;  -53.360;  -63.940;    0.000;10.58000
 872.77;  -59.520;  -68.280;    0.000; 8.76000
 873.02;  -67.320;  -78.210;    0.000;10.89000
 873.26;  -55.640;  -75.910;    0.000;20.27000
 873.51;  -49.920;  -67.060;    0.000;17.14000
 873.76;  -50.820;  -69.910;    0.000;19.09000
 874.00;  -52.340;  -67.690;    0.000;15.35000
 874.25;  -68.660;  -75.800;    0.000; 7.14000
 874.50;  -65.540;  -80.100;    0.000;14.56000
 874.74;  -67.360;  -73.380;    0.000; 6.02000
 874.99;  -65.140;  -77.690;    0.000;12.55000
 875.24;  -28.580;  -71.860;    0.000;43.28000
 875.48;  -55.180;  -75.510;    0.000;20.33000
 875.73;  -56.200;  -71.020;    0.000;14.82000
 875.98;  -63.160;  -72.290;    0.000; 9.13000
 876.22;  -53.940;  -74.020;    0.000;20.08000
 876.47;  -46.060;  -73.180;    0.000;27.12000
 876.71;  -55.240;  -66.650;    0.000;11.41000
 876.96;  -38.740;  -68.040;    0.000;29.30000
 877.21;  -63.760;  -80.560;    0.000;16.80000
 877.45;  -77.440;  -79.740;    0.000; 2.30000
 877.70;  -48.680;  -68.150;    0.000;19.47000
 877.95;  -55.620;  -71.420;    0.000;15.80000
 878.19;  -42.000;  -66.290;    0.000;24.29000
 878.44;  -58.440;  -73.630;    0.000;15.19000
 878.68;  -21.600;  -58.820;    0.000;37.22000
 878.93;  -46.920;  -67.350;    0.000;20.43000
 879.18;  -57.460;  -71.350;    0.000;13.89000
 879.42;  -47.660;  -70.170;    0.000;22.51000
 879.67;  -58.300;  -73.850;    0.000;15.55000
 879.91;  -40.200;  -67.960;    0.000;27.76000
 880.16;  -45.900;  -78.060;    0.000;32.16000
 880.40;  -45.040;  -65.360;    0.000;20.32000
 880.65;  -49.080;  -71.790;    0.000;22.71000
 880.90;  -46.900;  -69.720;    0.000;22.82000
 881.14;  -38.100;  -65.060;    0.000;26.96000
 881.39;  -55.780;  -72.620;    0.000;16.84000
 881.63;  -51.520;  -68.980;    0.000;17.46000
 881.88;  -29.700;  -70.790;    0.000;41.09000
 882.12;  -51.760;  -76.190;    0.000;24.43000
 882.37;  -55.720;  -72.930;    0.000;17.21000
 882.62;  -51.820;  -70.810;    0.000;18.99000
 882.86;  -63.720;  -75.020;    0.000;11.30000
 883.11;  -59.180;  -74.980;    0.000;15.80000
 883.35;  -47.460;  -71.230;    0.000;23.77000
 883.60;  -25.760;  -67.200;    0.000;41.44000
 883.84;  -49.840;  -73.170;    0.000;23.33000
 884.09;  -51.020;  -72.690;    0.000;21.67000
 884.33;  -58.360;  -71.050;    0.000;12.69000
 884.58;  -51.100;  -70.670;    0.000;19.57000
 884.82;  -51.260;  -73.840;    0.000;22.58000
 885.07;  -52.260;  -75.950;    0.000;23.69000
 885.31;  -54.980;  -74.400;    0.000;19.42000
 885.56;  -32.600;  -65.280;    0.000;32.68000
 885.80;  -53.860;  -79.420;    0.000;25.56000
 886.05;  -54.400;  -70.300;    0.000;15.90000
 886.29;  -36.640;  -61.930;    0.000;25.29000
 886.54;  -49.620;  -68.310;    0.000;18.69000
 886.78;  -45.660;  -71.060;    0.000;25.40000
 887.03;  -33.580;  -67.810;    0.000;34.23000
 887.27;  -23.160;  -61.920;    0.000;38.76000
 887.52;  -54.220;  -70.160;    0.000;15.94000
 887.76;  -32.560;  -70.980;    0.000;38.42000
 888.01;  -42.000;  -70.270;    0.000;28.27000
 888.25;  -46.520;  -74.180;    0.000;27.66000
 888.50;  -43.380;  -70.460;    0.000;27.08000
 888.74;  -31.200;  -65.070;    0.000;33.87000
 888.99;  -44.400;  -75.410;    0.000;31.01000
 889.23;  -38.540;  -73.760;    0.000;35.22000
 889.48;  -52.760;  -67.050;    0.000;14.29000
 889.72;  -31.560;  -61.140;    0.000;29.58000
 889.97;  -40.540;  -67.890;    0.000;27.35000
 890.21;  -39.680;  -71.660;    0.000;31.98000
 890.46;  -29.620;  -67.310;    0.000;37.69000
 890.70;  -44.560;  -66.540;    0.000;21.98000
 890.94;  -30.660;  -66.690;    0.000;36.03000
 891.19;  -40.200;  -67.720;    0.000;27.52000
 891.43;  -23.980;  -60.230;    0.000;36.25000
 891.68;  -23.200;  -60.880;    0.000;37.68000
 891.92;  -32.320;  -66.740;    0.000;34.42000
 892.17;  -44.340;  -63.670;    0.000;19.33000
 892.41;  -24.500;  -64.550;    0.000;40.05000
 892.66;  -43.380;  -72.780;    0.000;29.40000
 892.90;    6.040;  -53.850;    0.000;59.89000
 893.14;  -41.460;  -67.700;    0.000;26.24000
 893.39;  -37.160;  -61.520;    0.000;24.36000
 893.63;  -28.860;  -66.090;    0.000;37.23000
 893.88;  -35.140;  -64.750;    0.000;29.61000
 894.12;  -35.920;  -60.690;    0.000;24.77000
 894.36;  -21.240;  -52.460;    0.000;31.22000
 894.61;  -25.080;  -59.430;    0.000;34.35000
 894.85;  -24.520;  -59.970;    0.000;35.45000
 895.10;  -23.520;  -64.360;    0.000;40.84000
 895.34;  -36.280;  -59.380;    0.000;23.10000
 895.58;  -29.560;  -69.260;    0.000;39.70000
 895.83;  -20.140;  -62.800;    0.000;42.66000
 896.07;  -25.500;  -66.320;    0.000;40.82000
 896.32;  -24.540;  -58.720;    0.000;34.18000
 896.56;  -24.980;  -59.080;    0.000;34.10000
 896.80;  -22.380;  -64.120;    0.000;41.74000
 897.05;  -21.540;  -66.340;    0.000;44.80000
 897.29;  -24.120;  -51.230;    0.000;27.11000
 897.53;  -28.400;  -64.490;    0.000;36.09000
 897.78;  -23.140;  -59.400;    0.000;36.26000
 898.02;    0.980;  -53.570;    0.000;54.55000
 898.26;  -20.380;  -63.930;    0.000;43.55000
 898.51;  -11.120;  -52.040;    0.000;40.92000
 898.75;  -10.300;  -56.010;    0.000;45.71000
 898.99;  -17.180;  -55.790;    0.000;38.61000
 899.24;  -10.400;  -49.180;    0.000;38.78000
 899.48;   -2.760;  -48.260;    0.000;45.50000
 899.73;   -2.380;  -54.040;    0.000;51.66000
 899.97;   -2.740;  -42.750;    0.000;40.01000
 900.21;   11.880;  -44.210;    0.000;56.09000
 900.46;    5.640;  -41.230;    0.000;46.87000
 900.70;   16.400;  -40.060;    0.000;56.46000
 900.94;    3.400;  -49.340;    0.000;52.74000
 901.18;   28.020;  -43.690;    0.000;71.71000
 901.43;   15.260;  -40.290;    0.000;55.55000
 901.67;   19.580;  -38.410;    0.000;57.99000
 901.91;   33.400;  -29.050;    0.000;62.45000
 902.16;   39.920;  -39.250;    0.000;79.17000
 902.40;   53.160;  -35.010;    0.000;88.17000
 902.64;   48.380;  -28.700;    0.000;77.08000
 902.89;   41.100;  -28.120;    0.000;69.22000
 903.13;   59.240;  -20.830;    0.000;80.07000
 903.37;   75.260;  -22.230;    0.000;97.49000
 903.61;   83.060;   -7.810;    0.000;90.87000
 903.86;   83.580;   -9.670;    0.000;93.25000
 904.10;  100.800;   -7.290;    0.000;108.09000
 904.34;  128.960;    5.810;    0.000;123.15001
 904.59;  150.800;   17.270;    0.000;133.53000
 904.83;  149.140;   23.940;    0.000;125.20000
 905.07;  186.200;   39.780;    0.000;146.42000
 905.31;  193.100;   43.380;    0.000;149.72001
 905.56;  224.800;   56.080;    0.000;168.72000
 905.80;  261.900;   75.520;    0.000;186.38000

