p2
Integration time [ms]:  10.000
Averaging Nr. [scans]: 100
Smoothing Nr. [pixels]: 0
Data measured with spectrometer [name]: 1307078U2
Wave   ;Sample   ;Dark     ;Reference;Scope Corrected for Dark
[nm]   ;[counts] ;[counts] ;[counts] 

 351.07;   30.020;    0.420;    0.000;29.60000
 351.37;   19.520;    2.109;    0.000;17.41125
 351.66;   19.920;    2.484;    0.000;17.43625
 351.95;    9.990;    0.324;    0.000; 9.66625
 352.24;   17.760;    1.910;    0.000;15.85000
 352.54;   12.600;    1.401;    0.000;11.19875
 352.83;   14.760;   -0.629;    0.000;15.38875
 353.12;   24.730;    1.364;    0.000;23.36625
 353.42;    6.070;   -0.535;    0.000; 6.60500
 353.71;   18.180;    2.263;    0.000;15.91750
 354.00;   24.730;    3.929;    0.000;20.80125
 354.30;    9.430;    1.025;    0.000; 8.40500
 354.59;   19.850;   -0.266;    0.000;20.11625
 354.88;   16.130;    5.190;    0.000;10.94000
 355.17;    2.210;   -0.014;    0.000; 2.22375
 355.47;    4.420;    2.134;    0.000; 2.28625
 355.76;   13.330;    0.416;    0.000;12.91375
 356.05;   25.700;    1.192;    0.000;24.50750
 356.35;   19.160;    1.587;    0.000;17.57250
 356.64;   26.000;    1.753;    0.000;24.24750
 356.93;   12.210;    1.768;    0.000;10.44250
 357.22;   25.180;    1.366;    0.000;23.81375
 357.52;   16.860;    3.320;    0.000;13.54000
 357.81;   21.270;    1.643;    0.000;19.62750
 358.10;   23.580;   -0.600;    0.000;24.18000
 358.39;   20.660;    1.461;    0.000;19.19875
 358.69;   20.300;    1.997;    0.000;18.30250
 358.98;   -2.750;    0.317;    0.000;-3.06750
 359.27;   18.390;    1.446;    0.000;16.94375
 359.57;   22.780;    2.324;    0.000;20.45625
 359.86;    4.850;   -0.700;    0.000; 5.55000
 360.15;   22.910;    1.474;    0.000;21.43625
 360.44;    4.160;   -0.946;    0.000; 5.10625
 360.74;   17.290;    1.480;    0.000;15.81000
 361.03;   10.430;   -0.345;    0.000;10.77500
 361.32;   10.530;    2.919;    0.000; 7.61125
 361.61;   14.920;    2.338;    0.000;12.58250
 361.91;   20.180;    2.645;    0.000;17.53500
 362.20;    9.340;    1.590;    0.000; 7.75000
 362.49;   17.700;    1.854;    0.000;15.84625
 362.78;   17.660;    0.435;    0.000;17.22500
 363.08;   13.900;    1.149;    0.000;12.75125
 363.37;   15.630;    0.004;    0.000;15.62625
 363.66;   17.310;    3.439;    0.000;13.87125
 363.95;    7.500;    2.359;    0.000; 5.14125
 364.24;   21.990;    2.213;    0.000;19.77750
 364.54;   12.900;   -0.068;    0.000;12.96750
 364.83;   11.930;    2.066;    0.000; 9.86375
 365.12;   13.430;   -0.624;    0.000;14.05375
 365.41;   15.480;    3.152;    0.000;12.32750
 365.71;   13.470;    0.161;    0.000;13.30875
 366.00;    9.450;    1.484;    0.000; 7.96625
 366.29;    8.440;    0.876;    0.000; 7.56375
 366.58;   13.550;    2.200;    0.000;11.35000
 366.87;   26.080;    3.334;    0.000;22.74625
 367.17;   17.910;    4.057;    0.000;13.85250
 367.46;    4.300;    1.112;    0.000; 3.18750
 367.75;   15.940;    0.207;    0.000;15.73250
 368.04;    8.190;    2.296;    0.000; 5.89375
 368.34;   14.740;    3.155;    0.000;11.58500
 368.63;   10.410;    1.982;    0.000; 8.42750
 368.92;   26.510;    4.579;    0.000;21.93125
 369.21;   25.280;    0.301;    0.000;24.97875
 369.50;   22.810;    4.056;    0.000;18.75375
 369.80;   10.830;    3.011;    0.000; 7.81875
 370.09;   16.760;    2.666;    0.000;14.09375
 370.38;   10.620;    1.489;    0.000; 9.13125
 370.67;   11.850;    2.949;    0.000; 8.90125
 370.96;   10.930;    1.915;    0.000; 9.01500
 371.26;   22.240;    3.515;    0.000;18.72500
 371.55;    1.960;   -0.750;    0.000; 2.71000
 371.84;   10.770;    1.237;    0.000; 9.53250
 372.13;    9.040;    0.486;    0.000; 8.55375
 372.42;   19.950;    4.290;    0.000;15.66000
 372.71;   26.880;    2.305;    0.000;24.57500
 373.01;   20.590;    2.734;    0.000;17.85625
 373.30;   -4.550;    0.909;    0.000;-5.45875
 373.59;   21.660;    4.401;    0.000;17.25875
 373.88;   12.550;    0.729;    0.000;11.82125
 374.17;   12.570;    5.426;    0.000; 7.14375
 374.46;   16.080;    2.037;    0.000;14.04250
 374.76;   24.190;    3.602;    0.000;20.58750
 375.05;   20.450;    4.131;    0.000;16.31875
 375.34;   10.030;    4.778;    0.000; 5.25250
 375.63;    9.860;   -1.367;    0.000;11.22750
 375.92;   18.190;    1.354;    0.000;16.83625
 376.21;    6.300;    0.181;    0.000; 6.11875
 376.51;    9.010;    0.475;    0.000; 8.53500
 376.80;   25.630;    3.346;    0.000;22.28375
 377.09;   10.250;    1.947;    0.000; 8.30250
 377.38;   20.450;    1.015;    0.000;19.43500
 377.67;   14.630;    2.574;    0.000;12.05625
 377.96;    7.550;    0.863;    0.000; 6.68750
 378.25;   18.630;    3.033;    0.000;15.59750
 378.55;    5.620;    1.080;    0.000; 4.54000
 378.84;   13.140;    4.383;    0.000; 8.75750
 379.13;   18.150;    1.696;    0.000;16.45375
 379.42;   11.320;    4.142;    0.000; 7.17750
 379.71;   13.360;    1.695;    0.000;11.66500
 380.00;   20.090;    4.409;    0.000;15.68125
 380.29;    7.240;    0.924;    0.000; 6.31625
 380.59;    9.030;    2.340;    0.000; 6.69000
 380.88;    4.780;    1.253;    0.000; 3.52750
 381.17;    9.810;    2.536;    0.000; 7.27375
 381.46;   19.140;    2.259;    0.000;16.88125
 381.75;   12.680;    3.750;    0.000; 8.93000
 382.04;   19.730;    3.304;    0.000;16.42625
 382.33;    7.330;    1.438;    0.000; 5.89250
 382.62;    5.610;    2.980;    0.000; 2.63000
 382.91;   27.080;    3.025;    0.000;24.05500
 383.21;   10.800;   -1.186;    0.000;11.98625
 383.50;   13.140;    1.279;    0.000;11.86125
 383.79;    4.680;    3.581;    0.000; 1.09875
 384.08;    7.750;    1.620;    0.000; 6.13000
 384.37;   10.100;    2.861;    0.000; 7.23875
 384.66;    9.810;    0.262;    0.000; 9.54750
 384.95;    6.770;    1.033;    0.000; 5.73750
 385.24;   12.100;    0.772;    0.000;11.32750
 385.53;    7.200;   -1.732;    0.000; 8.93250
 385.83;    0.610;    0.712;    0.000;-0.10250
 386.12;   18.500;    1.009;    0.000;17.49125
 386.41;    7.290;    2.080;    0.000; 5.21000
 386.70;    9.260;    0.155;    0.000; 9.10500
 386.99;   17.700;    0.820;    0.000;16.88000
 387.28;   25.750;    3.057;    0.000;22.69250
 387.57;   14.600;    2.020;    0.000;12.58000
 387.86;   14.450;    1.317;    0.000;13.13250
 388.15;   15.910;    2.237;    0.000;13.67250
 388.44;   13.220;    1.854;    0.000;11.36625
 388.73;   15.600;    1.639;    0.000;13.96125
 389.02;   10.430;    1.174;    0.000; 9.25625
 389.31;   10.540;    3.336;    0.000; 7.20375
 389.61;   11.230;    1.742;    0.000; 9.48750
 389.90;   20.480;    2.181;    0.000;18.29875
 390.19;    4.840;    0.252;    0.000; 4.58750
 390.48;   14.400;    3.714;    0.000;10.68625
 390.77;    6.300;    2.156;    0.000; 4.14375
 391.06;    5.100;    0.019;    0.000; 5.08125
 391.35;    6.800;    0.766;    0.000; 6.03375
 391.64;   23.470;    4.639;    0.000;18.83125
 391.93;    4.350;    0.449;    0.000; 3.90125
 392.22;   18.670;    2.592;    0.000;16.07750
 392.51;   16.900;    1.247;    0.000;15.65250
 392.80;   21.860;    2.735;    0.000;19.12500
 393.09;    9.030;    1.086;    0.000; 7.94375
 393.38;   13.050;    0.229;    0.000;12.82125
 393.67;    4.580;    1.561;    0.000; 3.01875
 393.96;   12.670;    1.930;    0.000;10.74000
 394.25;   14.870;    0.956;    0.000;13.91375
 394.54;   12.110;    1.622;    0.000;10.48750
 394.83;    4.980;    0.440;    0.000; 4.54000
 395.13;   13.120;    2.201;    0.000;10.91875
 395.42;    8.240;    2.457;    0.000; 5.78250
 395.71;   19.710;    4.305;    0.000;15.40500
 396.00;   17.070;    1.222;    0.000;15.84750
 396.29;   19.320;    1.178;    0.000;18.14250
 396.58;    5.920;    0.967;    0.000; 4.95250
 396.87;   16.880;    1.986;    0.000;14.89375
 397.16;    3.140;    1.911;    0.000; 1.22875
 397.45;   14.550;    3.014;    0.000;11.53625
 397.74;   11.100;    2.689;    0.000; 8.41125
 398.03;   20.100;    2.170;    0.000;17.93000
 398.32;   12.870;    1.844;    0.000;11.02625
 398.61;    5.040;    3.154;    0.000; 1.88625
 398.90;    9.470;    1.420;    0.000; 8.05000
 399.19;   19.540;    3.316;    0.000;16.22375
 399.48;   13.960;    0.412;    0.000;13.54750
 399.77;   11.460;    1.786;    0.000; 9.67375
 400.06;   21.240;    2.120;    0.000;19.12000
 400.35;   15.050;    3.961;    0.000;11.08875
 400.64;    8.860;    2.411;    0.000; 6.44875
 400.93;   13.100;    3.304;    0.000; 9.79625
 401.22;    8.250;    1.479;    0.000; 6.77125
 401.51;   17.300;    3.400;    0.000;13.90000
 401.80;    5.410;    1.049;    0.000; 4.36125
 402.09;   11.760;    1.710;    0.000;10.05000
 402.38;    2.530;    1.655;    0.000; 0.87500
 402.67;   15.190;    2.055;    0.000;13.13500
 402.96;   15.910;    1.381;    0.000;14.52875
 403.25;   20.100;    4.099;    0.000;16.00125
 403.54;   21.800;    2.920;    0.000;18.88000
 403.83;   10.540;    1.701;    0.000; 8.83875
 404.12;    7.380;    4.244;    0.000; 3.13625
 404.41;   11.990;    7.259;    0.000; 4.73125
 404.70;   16.540;    1.739;    0.000;14.80125
 404.98;   17.510;    3.635;    0.000;13.87500
 405.27;   10.310;    2.116;    0.000; 8.19375
 405.56;   24.340;    5.247;    0.000;19.09250
 405.85;    7.960;    1.905;    0.000; 6.05500
 406.14;   18.340;    2.216;    0.000;16.12375
 406.43;   12.580;    0.695;    0.000;11.88500
 406.72;   15.120;    1.689;    0.000;13.43125
 407.01;   11.060;    2.034;    0.000; 9.02625
 407.30;   10.050;    2.056;    0.000; 7.99375
 407.59;   11.640;   -0.241;    0.000;11.88125
 407.88;    8.990;    1.026;    0.000; 7.96375
 408.17;   12.550;    1.819;    0.000;10.73125
 408.46;   20.940;    2.744;    0.000;18.19625
 408.75;   18.330;    2.339;    0.000;15.99125
 409.04;    9.130;    1.809;    0.000; 7.32125
 409.33;   10.610;    1.810;    0.000; 8.80000
 409.62;   22.220;    3.089;    0.000;19.13125
 409.91;    7.010;    0.704;    0.000; 6.30625
 410.20;   21.100;    1.890;    0.000;19.21000
 410.48;   13.560;    1.309;    0.000;12.25125
 410.77;    8.140;    2.919;    0.000; 5.22125
 411.06;   12.660;   -0.224;    0.000;12.88375
 411.35;   26.840;    2.226;    0.000;24.61375
 411.64;    8.620;    2.741;    0.000; 5.87875
 411.93;   11.490;   -0.534;    0.000;12.02375
 412.22;   12.190;    0.561;    0.000;11.62875
 412.51;    9.560;    2.220;    0.000; 7.34000
 412.80;    7.680;    1.974;    0.000; 5.70625
 413.09;   13.270;    0.749;    0.000;12.52125
 413.38;   10.020;    3.604;    0.000; 6.41625
 413.67;    4.280;    0.146;    0.000; 4.13375
 413.96;   -0.940;   -0.986;    0.000; 0.04625
 414.24;   11.680;    2.872;    0.000; 8.80750
 414.53;   14.380;    3.146;    0.000;11.23375
 414.82;   26.450;    2.290;    0.000;24.16000
 415.11;   21.100;    2.401;    0.000;18.69875
 415.40;   12.170;    0.995;    0.000;11.17500
 415.69;    8.090;    2.255;    0.000; 5.83500
 415.98;   11.080;    3.622;    0.000; 7.45750
 416.27;    1.900;    2.026;    0.000;-0.12625
 416.56;   11.160;    2.160;    0.000; 9.00000
 416.84;    5.700;    1.849;    0.000; 3.85125
 417.13;    9.900;    1.085;    0.000; 8.81500
 417.42;   18.520;    2.255;    0.000;16.26500
 417.71;   17.330;    0.942;    0.000;16.38750
 418.00;   10.800;   -0.894;    0.000;11.69375
 418.29;   16.280;    2.760;    0.000;13.52000
 418.58;    4.330;    1.184;    0.000; 3.14625
 418.87;   14.690;    1.616;    0.000;13.07375
 419.15;   10.630;    1.469;    0.000; 9.16125
 419.44;   16.810;    1.505;    0.000;15.30500
 419.73;    7.260;   -0.203;    0.000; 7.46250
 420.02;   20.950;    3.578;    0.000;17.37250
 420.31;    2.110;    0.189;    0.000; 1.92125
 420.60;   23.630;    0.344;    0.000;23.28625
 420.89;    4.020;    1.889;    0.000; 2.13125
 421.18;   13.060;    0.249;    0.000;12.81125
 421.46;   17.540;    1.220;    0.000;16.32000
 421.75;   11.520;    1.529;    0.000; 9.99125
 422.04;    6.260;    1.446;    0.000; 4.81375
 422.33;   30.430;    1.941;    0.000;28.48875
 422.62;   16.090;    4.503;    0.000;11.58750
 422.91;    9.980;    4.043;    0.000; 5.93750
 423.19;    2.220;    3.485;    0.000;-1.26500
 423.48;   26.790;    1.274;    0.000;25.51625
 423.77;    6.920;    2.696;    0.000; 4.22375
 424.06;   14.020;    3.234;    0.000;10.78625
 424.35;    8.800;    0.522;    0.000; 8.27750
 424.64;   21.990;    3.535;    0.000;18.45500
 424.93;    7.220;   -0.317;    0.000; 7.53750
 425.21;    7.300;    2.582;    0.000; 4.71750
 425.50;    5.890;    3.263;    0.000; 2.62750
 425.79;    8.230;    2.591;    0.000; 5.63875
 426.08;    8.370;    1.785;    0.000; 6.58500
 426.37;   17.430;    1.579;    0.000;15.85125
 426.65;    6.780;    2.955;    0.000; 3.82500
 426.94;    2.000;    2.134;    0.000;-0.13375
 427.23;   16.530;    2.475;    0.000;14.05500
 427.52;   16.220;    0.715;    0.000;15.50500
 427.81;    6.710;   -0.177;    0.000; 6.88750
 428.10;   22.710;    2.043;    0.000;20.66750
 428.38;   -0.940;    0.154;    0.000;-1.09375
 428.67;   12.140;    2.436;    0.000; 9.70375
 428.96;   -0.270;    1.938;    0.000;-2.20750
 429.25;   15.950;    2.326;    0.000;13.62375
 429.54;   17.870;    2.418;    0.000;15.45250
 429.82;   16.710;    2.749;    0.000;13.96125
 430.11;   19.460;    0.755;    0.000;18.70500
 430.40;   17.010;    2.376;    0.000;14.63375
 430.69;   17.790;    2.435;    0.000;15.35500
 430.98;   13.300;    3.626;    0.000; 9.67375
 431.26;   11.580;    4.383;    0.000; 7.19750
 431.55;   20.390;    3.697;    0.000;16.69250
 431.84;   12.740;   -0.666;    0.000;13.40625
 432.13;   14.420;    0.749;    0.000;13.67125
 432.41;    6.630;    2.846;    0.000; 3.78375
 432.70;   20.810;    2.501;    0.000;18.30875
 432.99;    9.050;    2.007;    0.000; 7.04250
 433.28;   11.080;    4.089;    0.000; 6.99125
 433.57;   20.300;    0.668;    0.000;19.63250
 433.85;   12.170;    0.570;    0.000;11.60000
 434.14;   -1.650;    1.510;    0.000;-3.16000
 434.43;   22.770;    4.943;    0.000;17.82750
 434.72;   12.580;    1.523;    0.000;11.05750
 435.00;   11.800;    4.381;    0.000; 7.41875
 435.29;    6.240;    3.159;    0.000; 3.08125
 435.58;   21.840;    3.307;    0.000;18.53250
 435.87;   11.210;    0.380;    0.000;10.83000
 436.15;    7.050;    2.906;    0.000; 4.14375
 436.44;    1.410;    2.568;    0.000;-1.15750
 436.73;   24.110;    4.294;    0.000;19.81625
 437.02;   13.540;    2.537;    0.000;11.00250
 437.30;   24.110;    2.334;    0.000;21.77625
 437.59;    7.250;    2.810;    0.000; 4.44000
 437.88;   18.990;    5.700;    0.000;13.29000
 438.17;   -2.740;   -0.534;    0.000;-2.20625
 438.45;    1.590;    3.159;    0.000;-1.56875
 438.74;   17.880;    0.505;    0.000;17.37500
 439.03;   28.860;    2.618;    0.000;26.24250
 439.32;   17.770;    3.250;    0.000;14.52000
 439.60;    6.740;    0.890;    0.000; 5.85000
 439.89;   14.790;    2.642;    0.000;12.14750
 440.18;   17.290;    2.490;    0.000;14.80000
 440.46;    3.870;    0.183;    0.000; 3.68750
 440.75;   17.860;    2.443;    0.000;15.41750
 441.04;    0.990;    0.079;    0.000; 0.91125
 441.33;   18.780;    3.149;    0.000;15.63125
 441.61;    1.390;    2.630;    0.000;-1.24000
 441.90;   23.110;    3.733;    0.000;19.37750
 442.19;   -1.490;   -0.200;    0.000;-1.29000
 442.47;   18.080;    3.862;    0.000;14.21750
 442.76;    8.090;    2.916;    0.000; 5.17375
 443.05;   17.030;    2.666;    0.000;14.36375
 443.34;    7.370;    2.057;    0.000; 5.31250
 443.62;   23.910;    1.426;    0.000;22.48375
 443.91;    9.980;    0.027;    0.000; 9.95250
 444.20;   24.800;    6.335;    0.000;18.46500
 444.48;    8.530;    1.109;    0.000; 7.42125
 444.77;   38.330;    4.639;    0.000;33.69125
 445.06;    9.390;    1.806;    0.000; 7.58375
 445.34;   16.750;    0.406;    0.000;16.34375
 445.63;    7.560;    0.630;    0.000; 6.93000
 445.92;   31.290;    1.935;    0.000;29.35500
 446.21;   21.190;    3.364;    0.000;17.82625
 446.49;   21.590;    2.110;    0.000;19.48000
 446.78;   14.030;    2.021;    0.000;12.00875
 447.07;   12.360;    0.465;    0.000;11.89500
 447.35;   -1.480;    0.983;    0.000;-2.46250
 447.64;   14.360;    3.451;    0.000;10.90875
 447.93;    5.490;    1.934;    0.000; 3.55625
 448.21;   10.290;    1.536;    0.000; 8.75375
 448.50;    5.770;    1.910;    0.000; 3.86000
 448.79;   11.080;    1.992;    0.000; 9.08750
 449.07;   14.700;    3.325;    0.000;11.37500
 449.36;    0.970;    1.426;    0.000;-0.45625
 449.65;    4.030;    0.134;    0.000; 3.89625
 449.93;    8.710;    3.255;    0.000; 5.45500
 450.22;   16.230;    1.070;    0.000;15.16000
 450.51;   10.960;    3.435;    0.000; 7.52500
 450.79;   13.160;    2.901;    0.000;10.25875
 451.08;   10.780;    2.376;    0.000; 8.40375
 451.36;    6.290;   -0.282;    0.000; 6.57250
 451.65;   16.390;    4.582;    0.000;11.80750
 451.94;    3.270;    2.245;    0.000; 1.02500
 452.22;    1.570;    1.971;    0.000;-0.40125
 452.51;    6.820;    2.864;    0.000; 3.95625
 452.80;   10.880;    0.808;    0.000;10.07250
 453.08;    5.480;    3.300;    0.000; 2.18000
 453.37;   18.580;    5.216;    0.000;13.36375
 453.66;    9.630;    1.974;    0.000; 7.65625
 453.94;   14.940;    2.578;    0.000;12.36250
 454.23;    9.490;    0.707;    0.000; 8.78250
 454.51;   12.580;    5.106;    0.000; 7.47375
 454.80;    0.850;    1.065;    0.000;-0.21500
 455.09;   11.900;    3.789;    0.000; 8.11125
 455.37;   20.890;    2.000;    0.000;18.89000
 455.66;    5.250;    0.929;    0.000; 4.32125
 455.95;   12.190;    2.487;    0.000; 9.70250
 456.23;   18.700;    1.810;    0.000;16.89000
 456.52;    9.220;   -1.785;    0.000;11.00500
 456.80;   13.420;    1.676;    0.000;11.74375
 457.09;    3.410;    0.610;    0.000; 2.80000
 457.38;   18.680;    2.624;    0.000;16.05625
 457.66;    8.110;    2.954;    0.000; 5.15625
 457.95;   10.160;    2.106;    0.000; 8.05375
 458.23;   10.150;   -0.848;    0.000;10.99750
 458.52;   17.430;    3.451;    0.000;13.97875
 458.81;   11.990;    4.972;    0.000; 7.01750
 459.09;   10.460;    4.175;    0.000; 6.28500
 459.38;    7.990;    0.647;    0.000; 7.34250
 459.66;   13.970;    2.150;    0.000;11.82000
 459.95;    4.870;    3.480;    0.000; 1.39000
 460.23;   16.750;    1.835;    0.000;14.91500
 460.52;   17.490;   -0.050;    0.000;17.54000
 460.81;    4.120;    3.735;    0.000; 0.38500
 461.09;    8.690;    2.649;    0.000; 6.04125
 461.38;   16.380;    0.196;    0.000;16.18375
 461.66;   12.130;    2.040;    0.000;10.09000
 461.95;   15.050;    2.691;    0.000;12.35875
 462.23;   13.490;    2.905;    0.000;10.58500
 462.52;   12.740;    1.970;    0.000;10.77000
 462.81;    4.250;    1.775;    0.000; 2.47500
 463.09;   12.000;    2.996;    0.000; 9.00375
 463.38;    0.410;    3.536;    0.000;-3.12625
 463.66;    9.650;    2.416;    0.000; 7.23375
 463.95;    6.410;    0.976;    0.000; 5.43375
 464.23;   24.780;    3.136;    0.000;21.64375
 464.52;   11.150;    0.415;    0.000;10.73500
 464.80;    7.450;    2.267;    0.000; 5.18250
 465.09;   12.530;    4.450;    0.000; 8.08000
 465.38;   15.520;    2.135;    0.000;13.38500
 465.66;    4.100;    3.092;    0.000; 1.00750
 465.95;   19.950;    3.005;    0.000;16.94500
 466.23;    2.210;    1.654;    0.000; 0.55625
 466.52;    5.370;    2.730;    0.000; 2.64000
 466.80;   27.360;    4.429;    0.000;22.93125
 467.09;   12.320;    2.030;    0.000;10.29000
 467.37;    7.900;    2.378;    0.000; 5.52250
 467.66;   11.920;    4.521;    0.000; 7.39875
 467.94;    8.850;    1.929;    0.000; 6.92125
 468.23;   15.610;    1.577;    0.000;14.03250
 468.51;   18.570;    3.882;    0.000;14.68750
 468.80;   11.060;    3.013;    0.000; 8.04750
 469.08;   16.540;    2.563;    0.000;13.97750
 469.37;   19.140;    3.146;    0.000;15.99375
 469.66;   15.630;    1.077;    0.000;14.55250
 469.94;    7.150;    0.594;    0.000; 6.55625
 470.23;   15.690;    0.586;    0.000;15.10375
 470.51;   14.840;    2.723;    0.000;12.11750
 470.80;   17.280;    2.582;    0.000;14.69750
 471.08;   17.650;    3.061;    0.000;14.58875
 471.37;   18.610;    2.378;    0.000;16.23250
 471.65;   22.900;    3.132;    0.000;19.76750
 471.94;    4.070;    0.899;    0.000; 3.17125
 472.22;   17.210;    1.457;    0.000;15.75250
 472.51;   16.070;    1.730;    0.000;14.34000
 472.79;   22.280;    3.695;    0.000;18.58500
 473.08;   16.590;    0.592;    0.000;15.99750
 473.36;   28.140;    3.221;    0.000;24.91875
 473.64;   12.790;    1.619;    0.000;11.17125
 473.93;   16.490;    3.253;    0.000;13.23750
 474.21;   12.830;    2.713;    0.000;10.11750
 474.50;   19.020;    4.048;    0.000;14.97250
 474.78;   31.350;    2.095;    0.000;29.25500
 475.07;   11.600;    0.941;    0.000;10.65875
 475.35;   18.450;    3.199;    0.000;15.25125
 475.64;   22.320;    2.451;    0.000;19.86875
 475.92;   14.050;    1.299;    0.000;12.75125
 476.21;   20.360;    0.804;    0.000;19.55625
 476.49;   18.970;    2.276;    0.000;16.69375
 476.78;   11.740;    2.287;    0.000; 9.45250
 477.06;   17.350;    2.473;    0.000;14.87750
 477.35;   27.770;    3.790;    0.000;23.98000
 477.63;    5.510;    1.086;    0.000; 4.42375
 477.91;   21.190;    1.760;    0.000;19.43000
 478.20;   20.660;    1.059;    0.000;19.60125
 478.48;   21.010;    0.538;    0.000;20.47250
 478.77;   18.930;    3.499;    0.000;15.43125
 479.05;   18.100;    3.216;    0.000;14.88375
 479.34;   24.340;    0.761;    0.000;23.57875
 479.62;   24.720;    3.401;    0.000;21.31875
 479.91;   14.630;   -0.785;    0.000;15.41500
 480.19;   33.090;    2.868;    0.000;30.22250
 480.47;   12.270;    0.215;    0.000;12.05500
 480.76;   19.920;    5.134;    0.000;14.78625
 481.04;   24.240;    2.594;    0.000;21.64625
 481.33;   30.680;    5.226;    0.000;25.45375
 481.61;   21.570;    0.775;    0.000;20.79500
 481.90;   22.260;    3.454;    0.000;18.80625
 482.18;   22.390;    1.354;    0.000;21.03625
 482.46;   30.340;    2.395;    0.000;27.94500
 482.75;   19.170;    3.819;    0.000;15.35125
 483.03;   25.540;    1.339;    0.000;24.20125
 483.32;   22.410;   -0.608;    0.000;23.01750
 483.60;   42.410;    2.681;    0.000;39.72875
 483.88;   13.610;    3.960;    0.000; 9.65000
 484.17;   30.170;    1.490;    0.000;28.68000
 484.45;   29.510;    0.410;    0.000;29.10000
 484.74;   38.070;    2.251;    0.000;35.81875
 485.02;   37.680;    2.283;    0.000;35.39750
 485.30;   39.650;    1.720;    0.000;37.93000
 485.59;   36.090;    0.525;    0.000;35.56500
 485.87;   56.800;    1.050;    0.000;55.75000
 486.16;   44.970;    1.403;    0.000;43.56750
 486.44;   41.620;    2.604;    0.000;39.01625
 486.72;   36.150;    1.150;    0.000;35.00000
 487.01;   45.780;    3.671;    0.000;42.10875
 487.29;   56.530;    0.510;    0.000;56.02000
 487.58;   69.160;    5.654;    0.000;63.50625
 487.86;   58.750;    3.342;    0.000;55.40750
 488.14;   71.330;    3.932;    0.000;67.39750
 488.43;   71.110;    0.979;    0.000;70.13125
 488.71;   87.580;    0.730;    0.000;86.85000
 488.99;   84.830;    1.616;    0.000;83.21375
 489.28;  105.440;    0.715;    0.000;104.72500
 489.56;   98.690;    1.239;    0.000;97.45125
 489.85;  114.850;    2.350;    0.000;112.50000
 490.13;  119.570;    2.057;    0.000;117.51250
 490.41;  144.290;    4.855;    0.000;139.43499
 490.70;  162.500;    2.358;    0.000;160.14250
 490.98;  164.210;    1.931;    0.000;162.27876
 491.26;  186.430;   -0.796;    0.000;187.22624
 491.55;  214.850;    2.747;    0.000;212.10251
 491.83;  241.500;    2.797;    0.000;238.70250
 492.11;  265.650;    0.218;    0.000;265.43249
 492.40;  280.000;    1.774;    0.000;278.22625
 492.68;  323.780;    3.876;    0.000;319.90375
 492.96;  345.910;    2.506;    0.000;343.40375
 493.25;  385.780;    3.009;    0.000;382.77125
 493.53;  410.710;    1.435;    0.000;409.27499
 493.81;  459.680;    3.051;    0.000;456.62874
 494.10;  505.530;    2.372;    0.000;503.15750
 494.38;  545.070;    0.340;    0.000;544.73001
 494.66;  592.730;   -0.239;    0.000;592.96873
 494.95;  661.040;    2.470;    0.000;658.56998
 495.23;  712.980;    3.210;    0.000;709.76998
 495.51;  769.060;    4.576;    0.000;764.48375
 495.80;  821.930;    2.500;    0.000;819.42999
 496.08;  910.750;    4.334;    0.000;906.41625
 496.36;  996.190;    2.381;    0.000;993.80875
 496.65; 1059.890;    0.871;    0.000;1059.01876
 496.93; 1140.290;    2.741;    0.000;1137.54879
 497.21; 1222.030;    0.571;    0.000;1221.45878
 497.50; 1318.740;    3.068;    0.000;1315.67249
 497.78; 1414.180;    1.405;    0.000;1412.77505
 498.06; 1499.650;    0.853;    0.000;1498.79752
 498.34; 1611.930;    2.364;    0.000;1609.56630
 498.63; 1720.370;    3.320;    0.000;1717.05000
 498.91; 1852.130;    4.931;    0.000;1847.19875
 499.19; 1966.900;    1.158;    0.000;1965.74252
 499.48; 2103.090;    2.360;    0.000;2100.73009
 499.76; 2217.530;    3.057;    0.000;2214.47253
 500.04; 2354.000;    4.120;    0.000;2349.88000
 500.32; 2496.270;    3.015;    0.000;2493.25502
 500.61; 2654.090;    2.210;    0.000;2651.88009
 500.89; 2789.050;    2.584;    0.000;2786.46630
 501.17; 2954.720;    1.663;    0.000;2953.05747
 501.46; 3109.350;    3.491;    0.000;3105.85885
 501.74; 3287.680;    4.365;    0.000;3283.31493
 502.02; 3478.830;    3.974;    0.000;3474.85633
 502.30; 3659.660;    3.686;    0.000;3655.97366
 502.59; 3798.830;    3.149;    0.000;3795.68133
 502.87; 4007.910;    2.419;    0.000;4005.49116
 503.15; 4174.500;    3.114;    0.000;4171.38625
 503.43; 4403.510;    1.428;    0.000;4402.08227
 503.72; 4606.250;    1.790;    0.000;4604.46000
 504.00; 4806.300;    1.394;    0.000;4804.90605
 504.28; 5018.060;    2.723;    0.000;5015.33756
 504.56; 5244.500;    3.711;    0.000;5240.78875
 504.85; 5502.930;    1.084;    0.000;5501.84643
 505.13; 5692.170;    3.199;    0.000;5688.97117
 505.41; 5932.170;    1.260;    0.000;5930.90992
 505.69; 6198.610;    4.202;    0.000;6194.40736
 505.98; 6430.260;    2.303;    0.000;6427.95727
 506.26; 6677.650;    2.465;    0.000;6675.18490
 506.54; 6912.600;    1.691;    0.000;6910.90885
 506.82; 7182.850;    1.630;    0.000;7181.22010
 507.11; 7442.410;    2.685;    0.000;7439.72516
 507.39; 7703.920;    2.963;    0.000;7700.95742
 507.67; 7978.140;    2.545;    0.000;7975.59514
 507.95; 8250.180;    4.004;    0.000;8246.17594
 508.23; 8519.210;    1.665;    0.000;8517.54496
 508.52; 8830.740;    4.427;    0.000;8826.31273
 508.80; 9078.850;    2.648;    0.000;9076.20211
 509.08; 9403.350;    3.473;    0.000;9399.87711
 509.36; 9623.680;    0.114;    0.000;9623.56594
 509.65; 9955.610;    2.144;    0.000;9953.46660
 509.93;10235.440;    1.548;    0.000;10233.89293
 510.21;10510.490;    1.577;    0.000;10508.91273
 510.49;10841.490;    2.626;    0.000;10838.86398
 510.77;11119.680;    2.529;    0.000;11117.15094
 511.06;11429.330;    1.059;    0.000;11428.27133
 511.34;11775.280;    1.541;    0.000;11773.73902
 511.62;12065.290;   -1.497;    0.000;12066.78754
 511.90;12308.890;    3.204;    0.000;12305.68590
 512.18;12622.790;    1.067;    0.000;12621.72254
 512.47;12974.490;    5.470;    0.000;12969.02023
 512.75;13269.630;    1.100;    0.000;13268.52988
 513.03;13590.380;    4.050;    0.000;13586.32988
 513.31;13832.740;    1.416;    0.000;13831.32398
 513.59;14155.090;    3.094;    0.000;14151.99609
 513.87;14472.430;    1.499;    0.000;14470.93094
 514.16;14774.920;    3.134;    0.000;14771.78617
 514.44;15086.230;    1.394;    0.000;15084.83672
 514.72;15363.230;    3.402;    0.000;15359.82797
 515.00;15696.670;    2.842;    0.000;15693.82742
 515.28;16013.110;    3.527;    0.000;16009.58285
 515.56;16271.800;    2.730;    0.000;16269.06980
 515.85;16600.109;    0.644;    0.000;16599.46562
 516.13;16900.830;    2.204;    0.000;16898.62633
 516.41;17228.539;    1.971;    0.000;17226.56781
 516.69;17509.480;    3.354;    0.000;17506.12672
 516.97;17807.311;    4.766;    0.000;17802.54430
 517.25;18040.801;    2.075;    0.000;18038.72578
 517.54;18354.641;    4.198;    0.000;18350.44312
 517.82;18626.131;    2.642;    0.000;18623.48836
 518.10;18896.330;    1.928;    0.000;18894.40258
 518.38;19187.170;    3.320;    0.000;19183.84992
 518.66;19456.350;    3.017;    0.000;19453.33211
 518.94;19757.381;   -0.038;    0.000;19757.41836
 519.22;20014.119;    3.063;    0.000;20011.05664
 519.51;20310.930;    0.155;    0.000;20310.77469
 519.79;20543.869;   -0.216;    0.000;20544.08539
 520.07;20742.189;    3.670;    0.000;20738.51945
 520.35;21062.410;    3.328;    0.000;21059.08266
 520.63;21354.779;    2.414;    0.000;21352.36555
 520.91;21562.750;    0.201;    0.000;21562.54875
 521.19;21898.150;    3.025;    0.000;21895.12539
 521.47;22103.971;    1.909;    0.000;22102.06195
 521.75;22324.689;    2.081;    0.000;22322.60820
 522.04;22583.850;    2.229;    0.000;22581.62086
 522.32;22851.721;    0.170;    0.000;22851.55070
 522.60;23123.770;    3.899;    0.000;23119.87078
 522.88;23264.590;    3.216;    0.000;23261.37359
 523.16;23488.150;    2.065;    0.000;23486.08539
 523.44;23761.199;    2.495;    0.000;23758.70422
 523.72;23979.369;    3.304;    0.000;23976.06539
 524.00;24133.900;    2.655;    0.000;24131.24539
 524.28;24401.961;    2.943;    0.000;24399.01844
 524.57;24607.730;    2.586;    0.000;24605.14422
 524.85;24882.711;    4.845;    0.000;24877.86594
 525.13;25039.770;    4.231;    0.000;25035.53828
 525.41;25257.961;    1.692;    0.000;25256.26844
 525.69;25419.920;    1.334;    0.000;25418.58617
 525.97;25612.160;    4.061;    0.000;25608.09891
 526.25;25871.529;    0.954;    0.000;25870.57555
 526.53;26065.410;    4.273;    0.000;26061.13766
 526.81;26199.250;    0.319;    0.000;26198.93125
 527.09;26410.391;    1.679;    0.000;26408.71187
 527.37;26589.699;    0.134;    0.000;26589.56547
 527.65;26767.039;    3.938;    0.000;26763.10156
 527.93;26975.400;    1.886;    0.000;26973.51414
 528.22;27104.570;    3.976;    0.000;27100.59406
 528.50;27384.609;    1.497;    0.000;27383.11188
 528.78;27485.789;    4.605;    0.000;27481.18406
 529.06;27688.400;    3.001;    0.000;27685.39914
 529.34;27800.061;    3.697;    0.000;27796.36305
 529.62;27988.490;    2.995;    0.000;27985.49523
 529.90;28147.971;    2.693;    0.000;28145.27820
 530.18;28365.990;    0.646;    0.000;28365.34398
 530.46;28534.551;    3.618;    0.000;28530.93328
 530.74;28649.520;    4.294;    0.000;28645.22578
 531.02;28810.840;    2.640;    0.000;28808.19984
 531.30;28954.850;    0.880;    0.000;28953.96961
 531.58;29112.080;    3.714;    0.000;29108.36633
 531.86;29226.930;    2.035;    0.000;29224.89469
 532.14;29374.840;    4.215;    0.000;29370.62484
 532.42;29523.410;    2.910;    0.000;29520.50016
 532.70;29711.221;    3.036;    0.000;29708.18445
 532.98;29838.570;    0.534;    0.000;29838.03656
 533.26;29969.770;    2.263;    0.000;29967.50703
 533.54;30019.391;    1.962;    0.000;30017.42813
 533.82;30245.020;    4.854;    0.000;30240.16578
 534.10;30287.990;    3.501;    0.000;30284.48898
 534.38;30446.881;    0.683;    0.000;30446.19836
 534.66;30582.211;    4.026;    0.000;30578.18469
 534.94;30640.000;    2.694;    0.000;30637.30625
 535.22;30863.650;    2.501;    0.000;30861.14914
 535.50;30978.539;    1.347;    0.000;30977.19156
 535.78;31018.340;    4.506;    0.000;31013.83359
 536.06;31180.080;    5.009;    0.000;31175.07133
 536.34;31263.990;    2.092;    0.000;31261.89773
 536.62;31372.711;    3.473;    0.000;31369.23844
 536.90;31505.930;    4.017;    0.000;31501.91219
 537.18;31625.699;    2.636;    0.000;31623.06297
 537.46;31810.340;    0.501;    0.000;31809.83859
 537.74;31850.430;    3.977;    0.000;31846.45219
 538.02;31941.391;    5.509;    0.000;31935.88188
 538.30;32076.100;    5.718;    0.000;32070.38211
 538.58;32172.490;    2.925;    0.000;32169.56523
 538.86;32219.400;    4.149;    0.000;32215.25164
 539.14;32367.730;    3.205;    0.000;32364.52547
 539.42;32452.211;    5.500;    0.000;32446.71094
 539.70;32587.109;    1.393;    0.000;32585.71687
 539.98;32652.240;    2.892;    0.000;32649.34773
 540.26;32751.240;    1.592;    0.000;32749.64773
 540.54;32838.738;    4.443;    0.000;32834.29578
 540.82;32866.031;    1.806;    0.000;32864.22500
 541.10;33075.762;    4.010;    0.000;33071.75172
 541.38;33169.871;    2.525;    0.000;33167.34609
 541.66;33270.441;    4.036;    0.000;33266.40516
 541.94;33280.719;    5.741;    0.000;33274.97750
 542.22;33329.121;    6.370;    0.000;33322.75109
 542.50;33467.430;    2.181;    0.000;33465.24844
 542.78;33585.762;    3.706;    0.000;33582.05547
 543.06;33617.852;    1.092;    0.000;33616.75906
 543.34;33675.980;    4.554;    0.000;33671.42672
 543.62;33743.109;    1.795;    0.000;33741.31438
 543.90;33852.051;    2.027;    0.000;33850.02328
 544.17;33909.289;    2.539;    0.000;33906.75031
 544.45;33961.031;    5.716;    0.000;33955.31500
 544.73;34001.738;    3.084;    0.000;33998.65453
 545.01;34124.238;    3.473;    0.000;34120.76578
 545.29;34157.012;    4.139;    0.000;34152.87297
 545.57;34243.309;    5.057;    0.000;34238.25109
 545.85;34317.590;    3.080;    0.000;34314.50984
 546.13;34344.461;    3.045;    0.000;34341.41594
 546.41;34355.609;    5.004;    0.000;34350.60563
 546.69;34379.199;    5.885;    0.000;34373.31422
 546.97;34475.871;    3.510;    0.000;34472.36109
 547.25;34604.949;    5.443;    0.000;34599.50672
 547.52;34553.250;    6.606;    0.000;34546.64375
 547.80;34674.141;    4.670;    0.000;34669.47062
 548.08;34687.180;    2.263;    0.000;34684.91719
 548.36;34695.359;    4.355;    0.000;34691.00437
 548.64;34840.570;    4.756;    0.000;34835.81406
 548.92;34757.410;    3.705;    0.000;34753.70516
 549.20;34857.809;    3.259;    0.000;34854.54984
 549.48;34876.699;    4.170;    0.000;34872.52922
 549.76;34982.828;    4.735;    0.000;34978.09312
 550.04;34974.148;    5.597;    0.000;34968.55094
 550.31;35026.129;    1.956;    0.000;35024.17266
 550.59;35038.988;    3.471;    0.000;35035.51703
 550.87;35094.191;    2.305;    0.000;35091.88641
 551.15;35145.320;    5.196;    0.000;35140.12406
 551.43;35117.078;    2.901;    0.000;35114.17688
 551.71;35123.980;    4.271;    0.000;35119.70922
 551.99;35112.770;    2.554;    0.000;35110.21578
 552.27;35148.180;    4.544;    0.000;35143.63594
 552.54;35209.621;    3.098;    0.000;35206.52359
 552.82;35234.520;    2.580;    0.000;35231.93953
 553.10;35269.711;    3.609;    0.000;35266.10219
 553.38;35258.109;    5.986;    0.000;35252.12313
 553.66;35285.070;    4.290;    0.000;35280.78031
 553.94;35305.180;    0.865;    0.000;35304.31469
 554.22;35304.551;    4.026;    0.000;35300.52453
 554.49;35263.422;    1.909;    0.000;35261.51312
 554.77;35339.391;    3.175;    0.000;35336.21563
 555.05;35357.000;    4.770;    0.000;35352.23000
 555.33;35232.551;    3.230;    0.000;35229.32078
 555.61;35365.141;    3.481;    0.000;35361.65937
 555.89;35297.602;    0.751;    0.000;35296.85031
 556.16;35336.230;    1.086;    0.000;35335.14422
 556.44;35324.648;    1.997;    0.000;35322.65094
 556.72;35357.988;    5.874;    0.000;35352.11453
 557.00;35261.379;    2.216;    0.000;35259.16266
 557.28;35317.301;    2.520;    0.000;35314.78078
 557.56;35313.309;    1.341;    0.000;35311.96734
 557.83;35326.398;    6.726;    0.000;35319.67219
 558.11;35283.129;    6.404;    0.000;35276.72516
 558.39;35196.070;    2.997;    0.000;35193.07281
 558.67;35258.922;    1.645;    0.000;35257.27688
 558.95;35231.078;    1.871;    0.000;35229.20687
 559.23;35226.691;    3.966;    0.000;35222.72516
 559.50;35198.680;    3.114;    0.000;35195.56594
 559.78;35179.988;    2.484;    0.000;35177.50453
 560.06;35078.160;    3.674;    0.000;35074.48641
 560.34;35085.141;    4.381;    0.000;35080.75938
 560.62;35121.141;    5.099;    0.000;35116.04187
 560.89;35090.148;    3.236;    0.000;35086.91219
 561.17;35033.219;    3.039;    0.000;35030.18000
 561.45;34969.930;    6.720;    0.000;34963.20969
 561.73;34908.422;    3.614;    0.000;34904.80813
 562.00;34905.621;    1.837;    0.000;34903.78359
 562.28;34855.711;    4.736;    0.000;34850.97469
 562.56;34776.988;    3.688;    0.000;34773.30078
 562.84;34854.578;    5.670;    0.000;34848.90812
 563.12;34802.410;    1.199;    0.000;34801.21141
 563.39;34648.781;    2.850;    0.000;34645.93125
 563.67;34731.500;    4.331;    0.000;34727.16875
 563.95;34609.891;    3.725;    0.000;34606.16563
 564.23;34585.969;    0.817;    0.000;34585.15125
 564.50;34459.430;    3.756;    0.000;34455.67344
 564.78;34560.320;    4.778;    0.000;34555.54281
 565.06;34386.961;    4.095;    0.000;34382.86594
 565.34;34361.500;    3.490;    0.000;34358.01000
 565.61;34391.512;    3.579;    0.000;34387.93297
 565.89;34206.711;    4.356;    0.000;34202.35469
 566.17;34177.301;    1.107;    0.000;34176.19328
 566.45;34198.781;    3.446;    0.000;34195.33500
 566.73;34040.102;    4.733;    0.000;34035.36906
 567.00;34007.570;    2.011;    0.000;34005.55906
 567.28;33986.930;    4.403;    0.000;33982.52719
 567.56;33898.871;    4.230;    0.000;33894.64109
 567.83;33872.102;    4.820;    0.000;33867.28156
 568.11;33748.020;    4.360;    0.000;33743.65953
 568.39;33736.051;    3.311;    0.000;33732.73953
 568.67;33568.551;    4.975;    0.000;33563.57578
 568.94;33594.449;    4.472;    0.000;33589.97672
 569.22;33416.160;    2.889;    0.000;33413.27141
 569.50;33419.480;    2.293;    0.000;33417.18797
 569.78;33345.340;    0.215;    0.000;33345.12484
 570.05;33208.770;    2.606;    0.000;33206.16328
 570.33;33137.969;    2.001;    0.000;33135.96750
 570.61;33037.102;    5.050;    0.000;33032.05156
 570.88;32954.250;    1.764;    0.000;32952.48625
 571.16;32977.859;    2.787;    0.000;32975.07188
 571.44;32760.949;    0.548;    0.000;32760.40172
 571.72;32721.721;    2.101;    0.000;32719.61945
 571.99;32616.250;    2.487;    0.000;32613.76250
 572.27;32570.230;    2.940;    0.000;32567.29047
 572.55;32457.730;    2.769;    0.000;32454.96172
 572.82;32399.400;    3.071;    0.000;32396.32914
 573.10;32245.131;    4.463;    0.000;32240.66836
 573.38;32202.980;    4.084;    0.000;32198.89672
 573.65;32117.830;    4.691;    0.000;32113.13883
 573.93;31995.561;    2.601;    0.000;31992.95930
 574.21;31926.131;    2.024;    0.000;31924.10711
 574.48;31785.230;    4.831;    0.000;31780.39922
 574.76;31672.369;    4.536;    0.000;31667.83289
 575.04;31561.500;    5.972;    0.000;31555.52750
 575.32;31449.670;    0.036;    0.000;31449.63367
 575.59;31302.760;    5.807;    0.000;31296.95227
 575.87;31210.711;    3.089;    0.000;31207.62219
 576.15;31137.199;    4.832;    0.000;31132.36672
 576.42;30961.510;    1.260;    0.000;30960.24977
 576.70;30840.109;    2.868;    0.000;30837.24187
 576.98;30815.260;    4.479;    0.000;30810.78102
 577.25;30681.660;    3.994;    0.000;30677.66641
 577.53;30594.010;    2.311;    0.000;30591.69852
 577.80;30451.900;    4.555;    0.000;30447.34539
 578.08;30348.270;    1.016;    0.000;30347.25328
 578.36;30228.609;    3.935;    0.000;30224.67438
 578.63;30136.750;    2.959;    0.000;30133.79125
 578.91;29948.641;    3.149;    0.000;29945.49187
 579.19;29926.061;    3.899;    0.000;29922.16180
 579.46;29793.180;    3.882;    0.000;29789.29719
 579.74;29671.070;    0.826;    0.000;29670.24406
 580.02;29495.039;    0.681;    0.000;29494.35781
 580.29;29353.711;    3.734;    0.000;29349.97719
 580.57;29221.250;    2.340;    0.000;29218.91000
 580.84;29139.971;    1.306;    0.000;29138.66445
 581.12;28967.939;    4.154;    0.000;28963.78570
 581.40;28910.500;    2.944;    0.000;28907.55625
 581.67;28772.119;    4.294;    0.000;28767.82539
 581.95;28679.730;    1.742;    0.000;28677.98797
 582.23;28408.961;    2.881;    0.000;28406.07969
 582.50;28331.289;    4.459;    0.000;28326.83031
 582.78;28165.910;    2.859;    0.000;28163.05141
 583.05;28021.080;    3.785;    0.000;28017.29508
 583.33;27926.141;    2.399;    0.000;27923.74187
 583.61;27755.641;    6.227;    0.000;27749.41313
 583.88;27642.590;    3.654;    0.000;27638.93609
 584.16;27539.010;    1.746;    0.000;27537.26352
 584.43;27387.949;    3.211;    0.000;27384.73797
 584.71;27212.449;    2.947;    0.000;27209.50172
 584.99;27165.439;    3.717;    0.000;27161.72195
 585.26;27008.891;    2.017;    0.000;27006.87313
 585.54;26831.900;    1.204;    0.000;26830.69664
 585.81;26734.350;    4.169;    0.000;26730.18086
 586.09;26611.590;    3.445;    0.000;26608.14484
 586.37;26481.551;    1.883;    0.000;26479.66828
 586.64;26312.949;    4.314;    0.000;26308.63547
 586.92;26233.131;    1.679;    0.000;26231.45211
 587.19;25993.480;    3.080;    0.000;25990.40047
 587.47;25916.230;    2.747;    0.000;25913.48297
 587.74;25777.279;    4.613;    0.000;25772.66680
 588.02;25601.289;    4.313;    0.000;25596.97656
 588.30;25529.211;    3.340;    0.000;25525.87094
 588.57;25347.010;    3.376;    0.000;25343.63352
 588.85;25205.930;    4.094;    0.000;25201.83594
 589.12;25106.381;    4.117;    0.000;25102.26336
 589.40;24978.660;    2.787;    0.000;24975.87266
 589.67;24801.689;    2.685;    0.000;24799.00445
 589.95;24706.820;    7.534;    0.000;24699.28656
 590.22;24633.211;    2.001;    0.000;24631.20969
 590.50;24426.840;    3.696;    0.000;24423.14359
 590.77;24388.039;    1.840;    0.000;24386.19906
 591.05;24160.619;    4.359;    0.000;24156.26039
 591.33;24021.061;    1.175;    0.000;24019.88555
 591.60;23841.461;    1.119;    0.000;23840.34219
 591.88;23727.070;    4.168;    0.000;23722.90281
 592.15;23538.730;    3.402;    0.000;23535.32797
 592.43;23347.510;    2.320;    0.000;23345.18977
 592.70;23280.750;    3.095;    0.000;23277.65500
 592.98;23148.039;    3.245;    0.000;23144.79406
 593.25;22938.520;    3.697;    0.000;22934.82203
 593.53;22773.180;    2.335;    0.000;22770.84469
 593.80;22690.900;    3.291;    0.000;22687.60914
 594.08;22524.490;    1.874;    0.000;22522.61648
 594.35;22392.350;    4.060;    0.000;22388.28961
 594.63;22241.689;    2.872;    0.000;22238.81695
 594.90;22056.510;    2.609;    0.000;22053.90102
 595.18;21908.930;    3.821;    0.000;21905.10844
 595.45;21762.740;    4.101;    0.000;21758.63898
 595.73;21634.660;    3.088;    0.000;21631.57266
 596.00;21465.670;    5.176;    0.000;21460.49367
 596.28;21322.650;    2.150;    0.000;21320.50039
 596.55;21186.039;    4.939;    0.000;21181.10031
 596.83;21086.539;    1.852;    0.000;21084.68656
 597.10;20881.400;    4.657;    0.000;20876.74289
 597.38;20755.340;    3.055;    0.000;20752.28484
 597.65;20550.529;    2.369;    0.000;20548.16055
 597.93;20457.270;    0.613;    0.000;20456.65703
 598.20;20295.080;    3.918;    0.000;20291.16258
 598.48;20173.910;    1.860;    0.000;20172.05016
 598.75;19998.471;    3.500;    0.000;19994.97070
 599.03;19860.350;    4.341;    0.000;19856.00836
 599.30;19740.199;    1.952;    0.000;19738.24672
 599.58;19588.289;    3.211;    0.000;19585.07781
 599.85;19464.211;    5.479;    0.000;19458.73219
 600.12;19301.471;    2.605;    0.000;19298.86570
 600.40;19132.840;    4.610;    0.000;19128.22984
 600.67;19002.670;    3.875;    0.000;18998.79492
 600.95;18895.289;    3.932;    0.000;18891.35656
 601.22;18761.619;    4.343;    0.000;18757.27664
 601.50;18618.100;    3.861;    0.000;18614.23836
 601.77;18464.369;    2.813;    0.000;18461.55664
 602.05;18345.490;    3.898;    0.000;18341.59273
 602.32;18199.029;    2.983;    0.000;18196.04680
 602.59;18070.211;    2.529;    0.000;18067.68219
 602.87;17979.850;    4.855;    0.000;17974.99461
 603.14;17774.760;    3.612;    0.000;17771.14727
 603.42;17673.439;    2.557;    0.000;17670.88195
 603.69;17595.641;    1.731;    0.000;17593.90937
 603.97;17424.270;    4.331;    0.000;17419.93828
 604.24;17320.811;    3.800;    0.000;17317.01055
 604.51;17195.039;    3.688;    0.000;17191.35156
 604.79;17075.170;    3.882;    0.000;17071.28742
 605.06;16942.410;    3.945;    0.000;16938.46516
 605.34;16834.580;    4.537;    0.000;16830.04258
 605.61;16707.039;    2.057;    0.000;16704.98156
 605.89;16623.029;    3.287;    0.000;16619.74180
 606.16;16425.990;    4.349;    0.000;16421.64148
 606.43;16384.740;    5.481;    0.000;16379.25898
 606.71;16269.680;    2.475;    0.000;16267.20469
 606.98;16186.430;    2.328;    0.000;16184.10219
 607.26;16050.920;    3.761;    0.000;16047.15867
 607.53;15960.360;    2.716;    0.000;15957.64410
 607.80;15836.820;    2.881;    0.000;15833.93906
 608.08;15742.500;    3.045;    0.000;15739.45500
 608.35;15616.930;    3.132;    0.000;15613.79719
 608.62;15565.290;    2.546;    0.000;15562.74379
 608.90;15428.280;    1.881;    0.000;15426.39902
 609.17;15279.000;    1.808;    0.000;15277.19250
 609.45;15238.890;    3.072;    0.000;15235.81715
 609.72;15131.660;    4.076;    0.000;15127.58391
 609.99;14997.970;    1.740;    0.000;14996.22973
 610.27;14925.820;    3.930;    0.000;14921.89031
 610.54;14834.100;   -0.248;    0.000;14834.34711
 610.81;14715.850;    3.979;    0.000;14711.87086
 611.09;14616.860;    2.641;    0.000;14614.21910
 611.36;14541.050;    0.728;    0.000;14540.32230
 611.64;14450.350;    3.644;    0.000;14446.70586
 611.91;14337.370;    2.205;    0.000;14335.16512
 612.18;14254.390;    3.130;    0.000;14251.25965
 612.46;14179.870;    4.631;    0.000;14175.23887
 612.73;14048.550;    1.941;    0.000;14046.60855
 613.00;13980.650;    3.451;    0.000;13977.19914
 613.28;13832.120;    2.829;    0.000;13829.29137
 613.55;13727.190;    5.354;    0.000;13721.83668
 613.82;13608.370;    2.598;    0.000;13605.77262
 614.10;13471.590;    2.566;    0.000;13469.02359
 614.37;13364.330;    0.998;    0.000;13363.33258
 614.64;13204.760;    1.727;    0.000;13203.03227
 614.92;13054.060;    1.755;    0.000;13052.30457
 615.19;12910.580;    3.310;    0.000;12907.27008
 615.46;12780.320;    3.815;    0.000;12776.50531
 615.74;12623.370;    3.493;    0.000;12619.87762
 616.01;12437.930;   -0.661;    0.000;12438.59094
 616.28;12157.120;    3.483;    0.000;12153.63762
 616.56;11978.900;    1.890;    0.000;11977.01039
 616.83;11782.590;    2.476;    0.000;11780.11359
 617.10;11693.340;    4.282;    0.000;11689.05734
 617.37;11714.480;    2.747;    0.000;11711.73297
 617.65;11753.340;    1.979;    0.000;11751.36109
 617.92;11851.820;    3.259;    0.000;11848.56156
 618.19;11776.680;    3.304;    0.000;11773.37594
 618.47;11712.390;    2.418;    0.000;11709.97215
 618.74;11606.620;    2.545;    0.000;11604.07512
 619.01;11553.870;    5.466;    0.000;11548.40387
 619.28;11492.350;    6.039;    0.000;11486.31086
 619.56;11456.650;    4.155;    0.000;11452.49539
 619.83;11382.960;    3.957;    0.000;11379.00246
 620.10;11345.560;    3.467;    0.000;11342.09207
 620.38;11252.620;    2.330;    0.000;11250.29012
 620.65;11154.480;    3.352;    0.000;11151.12797
 620.92;11153.050;    2.168;    0.000;11150.88230
 621.19;11129.580;    4.168;    0.000;11125.41258
 621.47;11128.500;    0.951;    0.000;11127.54875
 621.74;11164.140;    4.323;    0.000;11159.81715
 622.01;11210.370;    1.462;    0.000;11208.90762
 622.28;11107.810;    4.025;    0.000;11103.78457
 622.56;11137.410;    2.351;    0.000;11135.05891
 622.83;11083.630;    1.730;    0.000;11081.89988
 623.10;11060.460;    2.729;    0.000;11057.73121
 623.38;11011.450;    2.005;    0.000;11009.44520
 623.65;10961.450;    4.239;    0.000;10957.21145
 623.92;10871.850;    1.536;    0.000;10870.31336
 624.19;10851.060;   -0.880;    0.000;10851.93957
 624.46;10809.080;    3.061;    0.000;10806.01883
 624.74;10744.260;    3.045;    0.000;10741.21477
 625.01;10699.180;    5.025;    0.000;10694.15469
 625.28;10611.200;    1.938;    0.000;10609.26270
 625.55;10591.300;    1.933;    0.000;10589.36730
 625.83;10582.830;    3.122;    0.000;10579.70758
 626.10;10499.920;    3.759;    0.000;10496.16117
 626.37;10459.470;    1.891;    0.000;10457.57848
 626.64;10418.710;    2.188;    0.000;10416.52246
 626.92;10397.190;    1.146;    0.000;10396.04418
 627.19;10313.630;    3.395;    0.000;10310.23488
 627.46;10309.140;    1.855;    0.000;10307.28465
 627.73;10255.460;   -0.625;    0.000;10256.08496
 628.00;10226.750;    4.034;    0.000;10222.71625
 628.28;10142.060;    2.981;    0.000;10139.07832
 628.55;10125.230;    0.068;    0.000;10125.16297
 628.82;10059.090;    1.947;    0.000;10057.14234
 629.09;10019.550;    4.360;    0.000;10015.18980
 629.36;10026.250;    5.664;    0.000;10020.58625
 629.64; 9952.960;    0.757;    0.000;9952.20246
 629.91; 9892.220;    6.573;    0.000;9885.64723
 630.18; 9837.450;    3.014;    0.000;9834.43645
 630.45; 9814.160;    0.545;    0.000;9813.61516
 630.72; 9731.590;   -1.060;    0.000;9732.64984
 631.00; 9733.630;    1.430;    0.000;9732.19988
 631.27; 9704.060;    2.735;    0.000;9701.32457
 631.54; 9643.030;    1.822;    0.000;9641.20777
 631.81; 9596.930;    3.679;    0.000;9593.25094
 632.08; 9542.770;    3.724;    0.000;9539.04578
 632.35; 9501.070;    2.265;    0.000;9498.80531
 632.63; 9462.030;    4.170;    0.000;9457.86027
 632.90; 9420.470;    2.181;    0.000;9418.28848
 633.17; 9412.050;    1.319;    0.000;9410.73105
 633.44; 9349.830;    3.421;    0.000;9346.40883
 633.71; 9353.300;    3.719;    0.000;9349.58105
 633.98; 9325.860;    0.863;    0.000;9324.99785
 634.25; 9265.390;    4.139;    0.000;9261.25090
 634.53; 9283.090;    3.731;    0.000;9279.35859
 634.80; 9263.570;    2.301;    0.000;9261.26906
 635.07; 9218.430;    2.280;    0.000;9216.14969
 635.34; 9268.610;    4.559;    0.000;9264.05160
 635.61; 9196.850;    4.886;    0.000;9191.96336
 635.88; 9211.780;    2.765;    0.000;9209.01527
 636.15; 9251.400;    3.779;    0.000;9247.62164
 636.43; 9293.990;    3.138;    0.000;9290.85273
 636.70; 9272.470;    0.309;    0.000;9272.16098
 636.97; 9217.390;    0.026;    0.000;9217.36340
 637.24; 9110.800;    2.896;    0.000;9107.90355
 637.51; 8952.070;    4.227;    0.000;8947.84281
 637.78; 8818.820;    1.205;    0.000;8817.61531
 638.05; 8767.460;   -0.521;    0.000;8767.98121
 638.32; 8717.840;    4.594;    0.000;8713.24609
 638.60; 8680.670;    1.989;    0.000;8678.68117
 638.87; 8642.760;    0.371;    0.000;8642.38852
 639.14; 8570.790;    4.139;    0.000;8566.65129
 639.41; 8530.480;    0.873;    0.000;8529.60797
 639.68; 8445.540;    3.072;    0.000;8442.46754
 639.95; 8363.850;    1.040;    0.000;8362.80961
 640.22; 8336.610;    3.735;    0.000;8332.87535
 640.49; 8294.710;    2.639;    0.000;8292.07121
 640.76; 8198.680;    5.461;    0.000;8193.21844
 641.03; 8114.540;    0.767;    0.000;8113.77254
 641.30; 8043.550;    4.760;    0.000;8038.78980
 641.58; 7943.460;    0.679;    0.000;7942.78121
 641.85; 7844.640;    3.010;    0.000;7841.63014
 642.12; 7773.130;    1.204;    0.000;7771.92613
 642.39; 7749.950;    4.154;    0.000;7745.79645
 642.66; 7686.850;    1.847;    0.000;7685.00260
 642.93; 7600.080;    1.470;    0.000;7598.61008
 643.20; 7563.230;    1.317;    0.000;7561.91248
 643.47; 7546.650;    3.454;    0.000;7543.19615
 643.74; 7447.990;    0.748;    0.000;7447.24273
 644.01; 7385.130;    3.763;    0.000;7381.36738
 644.28; 7332.330;    0.605;    0.000;7331.72508
 644.55; 7316.680;    2.486;    0.000;7314.19393
 644.82; 7248.360;    2.384;    0.000;7245.97611
 645.09; 7215.100;    0.360;    0.000;7214.74010
 645.36; 7159.250;    3.155;    0.000;7156.09500
 645.63; 7125.330;    2.894;    0.000;7122.43633
 645.91; 7066.000;    3.947;    0.000;7062.05250
 646.18; 7032.920;    3.690;    0.000;7029.22992
 646.45; 6971.950;    0.995;    0.000;6970.95520
 646.72; 6905.920;    1.101;    0.000;6904.81867
 646.99; 6879.110;    1.396;    0.000;6877.71361
 647.26; 6841.070;    1.024;    0.000;6840.04607
 647.53; 6790.060;    1.119;    0.000;6788.94131
 647.80; 6796.150;    1.765;    0.000;6794.38490
 648.07; 6683.840;    0.945;    0.000;6682.89484
 648.34; 6653.940;    1.820;    0.000;6652.11994
 648.61; 6645.870;    1.154;    0.000;6644.71637
 648.88; 6612.340;    2.699;    0.000;6609.64109
 649.15; 6548.460;    1.045;    0.000;6547.41496
 649.42; 6522.790;    2.971;    0.000;6519.81879
 649.69; 6476.930;   -1.864;    0.000;6478.79393
 649.96; 6436.430;    0.123;    0.000;6436.30768
 650.23; 6361.140;   -1.247;    0.000;6362.38764
 650.50; 6330.460;    2.479;    0.000;6327.98121
 650.77; 6315.930;   -0.845;    0.000;6316.77518
 651.04; 6296.820;    4.423;    0.000;6292.39732
 651.31; 6211.710;    1.202;    0.000;6210.50746
 651.58; 6197.940;    1.992;    0.000;6195.94744
 651.85; 6140.140;    0.651;    0.000;6139.48889
 652.12; 6137.360;    1.250;    0.000;6136.10986
 652.39; 6079.220;    2.362;    0.000;6076.85771
 652.66; 6024.450;    3.281;    0.000;6021.16895
 652.93; 5987.570;    2.255;    0.000;5985.31482
 653.20; 5961.650;    2.949;    0.000;5958.70115
 653.47; 5903.420;    0.469;    0.000;5902.95117
 653.74; 5853.730;    4.386;    0.000;5849.34373
 654.01; 5844.610;    2.973;    0.000;5841.63736
 654.28; 5787.050;    1.301;    0.000;5785.74855
 654.55; 5761.720;   -1.832;    0.000;5763.55271
 654.81; 5714.890;    3.639;    0.000;5711.25139
 655.08; 5678.880;    0.624;    0.000;5678.25613
 655.35; 5644.330;    4.320;    0.000;5640.01008
 655.62; 5609.930;   -1.529;    0.000;5611.45893
 655.89; 5570.880;    2.852;    0.000;5568.02738
 656.16; 5509.410;    0.510;    0.000;5508.90016
 656.43; 5491.180;    3.440;    0.000;5487.74018
 656.70; 5439.940;    1.716;    0.000;5438.22369
 656.97; 5448.430;    2.947;    0.000;5445.48268
 657.24; 5390.190;    2.443;    0.000;5387.74744
 657.51; 5333.420;    5.190;    0.000;5328.22992
 657.78; 5329.480;    2.088;    0.000;5327.39248
 658.05; 5270.760;    2.378;    0.000;5268.38227
 658.32; 5231.320;    2.024;    0.000;5229.29607
 658.59; 5230.660;    2.130;    0.000;5228.53016
 658.86; 5172.670;    1.824;    0.000;5170.84617
 659.12; 5149.460;    2.666;    0.000;5146.79371
 659.39; 5098.070;    1.124;    0.000;5096.94607
 659.66; 5091.710;    3.401;    0.000;5088.30871
 659.93; 5033.320;    1.985;    0.000;5031.33482
 660.20; 4998.460;    3.110;    0.000;4995.34996
 660.47; 4958.270;    2.070;    0.000;4956.20002
 660.74; 4925.430;    1.519;    0.000;4923.91143
 661.01; 4901.770;    5.176;    0.000;4896.59377
 661.28; 4870.640;    1.305;    0.000;4869.33514
 661.55; 4872.820;    3.871;    0.000;4868.94857
 661.81; 4795.170;    0.349;    0.000;4794.82117
 662.08; 4746.620;   -1.056;    0.000;4747.67637
 662.35; 4724.360;    0.981;    0.000;4723.37861
 662.62; 4654.340;    0.535;    0.000;4653.80484
 662.89; 4650.230;    3.275;    0.000;4646.95498
 663.16; 4632.610;   -0.139;    0.000;4632.74861
 663.43; 4594.830;    1.344;    0.000;4593.48633
 663.70; 4551.430;    3.266;    0.000;4548.16393
 663.96; 4527.280;    1.253;    0.000;4526.02729
 664.23; 4479.340;    0.530;    0.000;4478.80984
 664.50; 4455.610;    2.487;    0.000;4453.12236
 664.77; 4410.850;   -0.877;    0.000;4411.72760
 665.04; 4386.510;    3.953;    0.000;4382.55727
 665.31; 4337.050;    0.842;    0.000;4336.20730
 665.58; 4343.990;    2.457;    0.000;4341.53273
 665.84; 4285.560;    0.780;    0.000;4284.78006
 666.11; 4276.060;    4.791;    0.000;4271.26881
 666.38; 4240.640;   -0.827;    0.000;4241.46764
 666.65; 4225.560;    2.049;    0.000;4223.51131
 666.92; 4182.810;   -1.602;    0.000;4184.41256
 667.19; 4167.120;    2.217;    0.000;4164.90262
 667.46; 4129.930;    0.044;    0.000;4129.88643
 667.72; 4101.870;    2.615;    0.000;4099.25512
 667.99; 4071.820;    1.617;    0.000;4070.20257
 668.26; 4011.030;    4.448;    0.000;4006.58253
 668.53; 3983.690;    1.530;    0.000;3982.15994
 668.80; 3988.940;    1.789;    0.000;3987.15119
 669.06; 3930.770;    3.941;    0.000;3926.82877
 669.33; 3931.800;    4.309;    0.000;3927.49130
 669.60; 3853.200;    0.438;    0.000;3852.76245
 669.87; 3855.420;    1.599;    0.000;3853.82117
 670.14; 3810.130;   -0.375;    0.000;3810.50488
 670.41; 3821.190;    1.401;    0.000;3819.78869
 670.67; 3741.450;    2.004;    0.000;3739.44620
 670.94; 3743.840;    0.808;    0.000;3743.03259
 671.21; 3711.720;    2.151;    0.000;3709.56872
 671.48; 3662.770;   -0.835;    0.000;3663.60502
 671.75; 3644.930;    2.424;    0.000;3642.50618
 672.01; 3631.220;    3.504;    0.000;3627.71622
 672.28; 3587.850;    1.559;    0.000;3586.29135
 672.55; 3563.470;    3.671;    0.000;3559.79872
 672.82; 3513.290;    1.102;    0.000;3512.18754
 673.08; 3495.230;    2.175;    0.000;3493.05498
 673.35; 3466.390;   -0.296;    0.000;3466.68614
 673.62; 3448.070;    0.715;    0.000;3447.35507
 673.89; 3404.300;   -1.376;    0.000;3405.67630
 674.16; 3394.890;    2.699;    0.000;3392.19114
 674.42; 3385.500;    3.569;    0.000;3381.93125
 674.69; 3353.030;    0.779;    0.000;3352.25128
 674.96; 3313.440;    1.980;    0.000;3311.45994
 675.23; 3253.520;    2.409;    0.000;3251.11127
 675.49; 3259.680;    1.455;    0.000;3258.22493
 675.76; 3236.980;    3.918;    0.000;3233.06248
 676.03; 3217.990;    2.640;    0.000;3215.34999
 676.30; 3184.960;    3.191;    0.000;3181.76871
 676.56; 3156.170;    1.544;    0.000;3154.62617
 676.83; 3131.460;    2.005;    0.000;3129.45496
 677.10; 3096.910;    0.876;    0.000;3096.03366
 677.37; 3094.330;    5.404;    0.000;3088.92633
 677.63; 3054.570;   -0.745;    0.000;3055.31507
 677.90; 3027.630;    4.010;    0.000;3023.61988
 678.17; 3033.120;    1.760;    0.000;3031.36012
 678.44; 3002.790;    2.400;    0.000;3000.39004
 678.70; 2967.910;    1.548;    0.000;2966.36241
 678.97; 2926.950;    1.459;    0.000;2925.49120
 679.24; 2930.260;    0.824;    0.000;2929.43626
 679.50; 2875.630;    2.297;    0.000;2873.33238
 679.77; 2884.530;    0.320;    0.000;2884.21003
 680.04; 2853.450;    0.405;    0.000;2853.04495
 680.31; 2823.710;   -0.887;    0.000;2824.59746
 680.57; 2796.640;    2.870;    0.000;2793.76989
 680.84; 2769.910;    1.740;    0.000;2768.16991
 681.11; 2766.270;    1.115;    0.000;2765.15502
 681.37; 2741.170;   -1.815;    0.000;2742.98492
 681.64; 2712.970;   -0.892;    0.000;2713.86247
 681.91; 2712.110;    4.430;    0.000;2707.68011
 682.17; 2682.430;    3.001;    0.000;2679.42868
 682.44; 2640.970;   -1.503;    0.000;2642.47247
 682.71; 2615.620;    3.140;    0.000;2612.48012
 682.98; 2613.150;    1.636;    0.000;2611.51365
 683.24; 2572.770;   -0.827;    0.000;2573.59752
 683.51; 2556.670;    0.954;    0.000;2555.71617
 683.78; 2548.590;    1.344;    0.000;2547.24634
 684.04; 2519.390;    1.450;    0.000;2517.93989
 684.31; 2498.850;    0.043;    0.000;2498.80760
 684.58; 2455.480;    1.136;    0.000;2454.34373
 684.84; 2462.880;    2.069;    0.000;2460.81113
 685.11; 2442.510;    3.858;    0.000;2438.65251
 685.38; 2424.890;    4.713;    0.000;2420.17739
 685.64; 2409.660;    0.870;    0.000;2408.78991
 685.91; 2383.000;   -0.069;    0.000;2383.06875
 686.17; 2379.860;    2.316;    0.000;2377.54386
 686.44; 2352.600;   -0.858;    0.000;2353.45760
 686.71; 2336.560;    1.816;    0.000;2334.74381
 686.97; 2323.790;   -1.670;    0.000;2325.46004
 687.24; 2300.370;    0.944;    0.000;2299.42637
 687.51; 2276.930;    0.550;    0.000;2276.37993
 687.77; 2254.080;    1.104;    0.000;2252.97633
 688.04; 2231.030;    1.634;    0.000;2229.39628
 688.31; 2219.180;    2.836;    0.000;2216.34368
 688.57; 2216.800;    1.955;    0.000;2214.84505
 688.84; 2180.760;    1.581;    0.000;2179.17876
 689.10; 2174.890;    3.057;    0.000;2171.83239
 689.37; 2142.430;    1.930;    0.000;2140.49993
 689.64; 2113.730;    0.310;    0.000;2113.41998
 689.90; 2102.520;    1.576;    0.000;2100.94377
 690.17; 2092.350;    3.089;    0.000;2089.26135
 690.44; 2045.950;   -0.029;    0.000;2045.97870
 690.70; 2065.840;    2.069;    0.000;2063.77134
 690.97; 2016.440;    0.464;    0.000;2015.97619
 691.23; 2008.080;    2.264;    0.000;2005.81621
 691.50; 1979.180;    0.368;    0.000;1978.81255
 691.77; 1991.200;    3.309;    0.000;1987.89120
 692.03; 1957.710;   -0.905;    0.000;1958.61496
 692.30; 1950.050;    1.190;    0.000;1948.86005
 692.56; 1908.660;    0.126;    0.000;1908.53378
 692.83; 1904.580;    0.384;    0.000;1904.19621
 693.10; 1887.170;    3.125;    0.000;1884.04504
 693.36; 1884.900;    2.911;    0.000;1881.98877
 693.63; 1845.970;    0.608;    0.000;1845.36247
 693.89; 1826.990;   -0.538;    0.000;1827.52749
 694.16; 1803.010;    0.642;    0.000;1802.36751
 694.42; 1798.330;    0.609;    0.000;1797.72121
 694.69; 1794.730;    3.661;    0.000;1791.06873
 694.96; 1771.140;    3.156;    0.000;1767.98376
 695.22; 1736.630;    2.274;    0.000;1734.35625
 695.49; 1736.360;    3.946;    0.000;1732.41374
 695.75; 1689.950;    2.188;    0.000;1687.76245
 696.02; 1691.470;    2.641;    0.000;1688.82872
 696.28; 1657.920;    2.575;    0.000;1655.34504
 696.55; 1654.430;    1.420;    0.000;1653.01005
 696.81; 1610.890;    1.639;    0.000;1609.25126
 697.08; 1609.880;    0.668;    0.000;1609.21250
 697.34; 1594.980;    0.815;    0.000;1594.16498
 697.61; 1577.230;    1.273;    0.000;1575.95748
 697.88; 1559.770;    0.400;    0.000;1559.37002
 698.14; 1537.800;    0.565;    0.000;1537.23505
 698.41; 1521.260;    2.316;    0.000;1518.94376
 698.67; 1508.900;    0.394;    0.000;1508.50627
 698.94; 1464.540;   -0.249;    0.000;1464.78879
 699.20; 1473.690;   -1.043;    0.000;1474.73244
 699.47; 1448.030;    3.237;    0.000;1444.79253
 699.73; 1439.370;    2.318;    0.000;1437.05250
 700.00; 1405.810;   -2.205;    0.000;1408.01506
 700.26; 1386.690;    1.921;    0.000;1384.76869
 700.53; 1386.020;   -0.345;    0.000;1386.36502
 700.79; 1373.420;    2.044;    0.000;1371.37629
 701.06; 1338.500;    1.224;    0.000;1337.27625
 701.32; 1328.980;    3.382;    0.000;1325.59748
 701.59; 1317.970;    0.240;    0.000;1317.72997
 701.85; 1285.810;   -1.337;    0.000;1287.14756
 702.12; 1264.420;   -0.553;    0.000;1264.97254
 702.38; 1253.730;    0.720;    0.000;1253.00998
 702.65; 1248.180;    2.704;    0.000;1245.47630
 702.91; 1232.790;    3.130;    0.000;1229.66004
 703.18; 1190.670;    0.159;    0.000;1190.51129
 703.44; 1199.150;    2.589;    0.000;1196.56127
 703.71; 1172.590;    0.451;    0.000;1172.13872
 703.97; 1150.150;    1.933;    0.000;1148.21752
 704.24; 1147.250;    2.733;    0.000;1144.51750
 704.50; 1117.500;   -1.066;    0.000;1118.56625
 704.76; 1103.080;    0.973;    0.000;1102.10746
 705.03; 1075.920;    3.154;    0.000;1072.76629
 705.29; 1042.290;   -1.855;    0.000;1044.14504
 705.56; 1037.120;    0.824;    0.000;1036.29625
 705.82; 1029.540;    1.599;    0.000;1027.94129
 706.09; 1045.910;    3.196;    0.000;1042.71378
 706.35;  995.490;   -0.994;    0.000;996.48374
 706.62;  980.900;    3.101;    0.000;977.79877
 706.88;  965.210;    0.259;    0.000;964.95127
 707.15;  961.530;    2.235;    0.000;959.29503
 707.41;  929.190;    1.023;    0.000;928.16750
 707.67;  931.800;    2.314;    0.000;929.48624
 707.94;  908.040;    0.341;    0.000;907.69873
 708.20;  885.470;    2.445;    0.000;883.02497
 708.47;  888.650;    0.235;    0.000;888.41502
 708.73;  861.760;    1.543;    0.000;860.21751
 709.00;  851.540;    1.543;    0.000;849.99748
 709.26;  848.420;    3.355;    0.000;845.06498
 709.52;  819.800;    1.150;    0.000;818.64999
 709.79;  817.110;    2.364;    0.000;814.74624
 710.05;  804.780;    1.482;    0.000;803.29753
 710.32;  799.620;    2.600;    0.000;797.02000
 710.58;  766.510;   -0.961;    0.000;767.47126
 710.84;  770.280;    3.686;    0.000;766.59378
 711.11;  777.270;    0.292;    0.000;776.97752
 711.37;  745.650;    3.571;    0.000;742.07877
 711.64;  724.260;    1.284;    0.000;722.97626
 711.90;  730.290;    3.639;    0.000;726.65123
 712.16;  708.750;    3.284;    0.000;705.46625
 712.43;  716.430;    1.572;    0.000;714.85749
 712.69;  696.100;    3.364;    0.000;692.73623
 712.96;  698.550;    2.591;    0.000;695.95874
 713.22;  673.410;    1.612;    0.000;671.79747
 713.48;  666.420;    0.123;    0.000;666.29748
 713.75;  663.710;   -1.460;    0.000;665.17002
 714.01;  658.930;    5.713;    0.000;653.21749
 714.27;  655.030;    1.730;    0.000;653.30003
 714.54;  654.270;    2.946;    0.000;651.32377
 714.80;  649.390;    1.184;    0.000;648.20626
 715.06;  649.800;    2.250;    0.000;647.54999
 715.33;  613.980;    1.124;    0.000;612.85623
 715.59;  615.700;    1.466;    0.000;614.23376
 715.86;  616.520;    3.069;    0.000;613.45127
 716.12;  623.350;    1.867;    0.000;621.48248
 716.38;  594.560;    2.986;    0.000;591.57375
 716.65;  589.990;    3.819;    0.000;586.17124
 716.91;  590.490;    0.629;    0.000;589.86124
 717.17;  604.090;    3.425;    0.000;600.66503
 717.44;  589.880;    2.554;    0.000;587.32625
 717.70;  588.910;    3.246;    0.000;585.66372
 717.96;  564.380;    0.561;    0.000;563.81875
 718.23;  582.300;   -0.406;    0.000;582.70624
 718.49;  565.410;    1.106;    0.000;564.30372
 718.75;  566.310;    4.903;    0.000;561.40750
 719.02;  565.260;    0.034;    0.000;565.22626
 719.28;  570.490;    0.564;    0.000;569.92624
 719.54;  544.200;    0.788;    0.000;543.41251
 719.80;  545.230;    2.293;    0.000;542.93748
 720.07;  543.290;   -0.094;    0.000;543.38373
 720.33;  541.770;    1.286;    0.000;540.48377
 720.59;  545.500;    1.628;    0.000;543.87250
 720.86;  526.760;   -1.405;    0.000;528.16501
 721.12;  534.490;    1.731;    0.000;532.75874
 721.38;  537.860;    4.088;    0.000;533.77249
 721.65;  538.060;   -0.108;    0.000;538.16750
 721.91;  547.040;   -0.026;    0.000;547.06623
 722.17;  519.560;   -0.304;    0.000;519.86375
 722.43;  523.980;    3.338;    0.000;520.64248
 722.70;  522.300;    0.495;    0.000;521.80499
 722.96;  533.400;    4.814;    0.000;528.58627
 723.22;  517.890;    2.186;    0.000;515.70376
 723.48;  526.210;    3.430;    0.000;522.78002
 723.75;  509.930;    2.215;    0.000;507.71499
 724.01;  513.350;    1.500;    0.000;511.84998
 724.27;  503.740;   -0.826;    0.000;504.56624
 724.54;  520.720;    2.814;    0.000;517.90622
 724.80;  510.220;   -1.109;    0.000;511.32875
 725.06;  507.710;    3.160;    0.000;504.54999
 725.32;  509.730;    2.344;    0.000;507.38626
 725.59;  508.000;    1.226;    0.000;506.77375
 725.85;  494.640;    2.034;    0.000;492.60626
 726.11;  503.080;    2.994;    0.000;500.08624
 726.37;  495.170;    3.204;    0.000;491.96626
 726.64;  518.800;    2.474;    0.000;516.32624
 726.90;  511.420;    3.596;    0.000;507.82376
 727.16;  494.810;    0.375;    0.000;494.43500
 727.42;  501.320;    0.449;    0.000;500.87126
 727.68;  500.500;    0.172;    0.000;500.32750
 727.95;  485.760;    2.132;    0.000;483.62751
 728.21;  498.090;    3.517;    0.000;494.57250
 728.47;  492.440;   -0.545;    0.000;492.98500
 728.73;  499.090;    3.100;    0.000;495.99000
 729.00;  482.850;    0.755;    0.000;482.09501
 729.26;  493.140;    0.587;    0.000;492.55251
 729.52;  460.790;   -0.405;    0.000;461.19501
 729.78;  488.010;   -2.089;    0.000;490.09876
 730.04;  479.870;    4.343;    0.000;475.52749
 730.31;  483.700;    3.566;    0.000;480.13376
 730.57;  463.270;    4.318;    0.000;458.95249
 730.83;  477.440;    2.994;    0.000;474.44625
 731.09;  464.690;   -0.604;    0.000;465.29375
 731.35;  472.770;    2.505;    0.000;470.26499
 731.62;  450.670;    0.100;    0.000;450.57001
 731.88;  463.340;    1.690;    0.000;461.65000
 732.14;  465.310;   -1.254;    0.000;466.56375
 732.40;  451.910;    3.940;    0.000;447.97000
 732.66;  457.440;    1.069;    0.000;456.37125
 732.92;  451.910;    2.316;    0.000;449.59375
 733.19;  445.200;    1.539;    0.000;443.66126
 733.45;  442.770;    5.839;    0.000;436.93124
 733.71;  434.730;    1.001;    0.000;433.72876
 733.97;  481.340;    3.849;    0.000;477.49125
 734.23;  435.920;   -2.451;    0.000;438.37126
 734.49;  443.640;    3.328;    0.000;440.31251
 734.76;  421.060;    1.984;    0.000;419.07625
 735.02;  433.530;    1.000;    0.000;432.53000
 735.28;  423.840;    1.494;    0.000;422.34625
 735.54;  439.330;    2.599;    0.000;436.73124
 735.80;  416.130;    3.059;    0.000;413.07125
 736.06;  427.060;    1.774;    0.000;425.28625
 736.32;  412.920;   -0.745;    0.000;413.66501
 736.59;  406.520;    1.776;    0.000;404.74374
 736.85;  415.310;    2.046;    0.000;413.26375
 737.11;  389.550;    1.040;    0.000;388.50999
 737.37;  389.570;   -0.538;    0.000;390.10751
 737.63;  399.620;    2.409;    0.000;397.21125
 737.89;  386.100;   -0.147;    0.000;386.24751
 738.15;  400.550;    2.342;    0.000;398.20749
 738.41;  391.260;   -1.143;    0.000;392.40251
 738.67;  391.930;    0.023;    0.000;391.90749
 738.94;  374.510;   -1.278;    0.000;375.78751
 739.20;  366.500;   -0.135;    0.000;366.63500
 739.46;  374.900;    1.821;    0.000;373.07874
 739.72;  363.530;    2.342;    0.000;361.18750
 739.98;  351.810;   -0.039;    0.000;351.84875
 740.24;  362.340;    1.996;    0.000;360.34375
 740.50;  344.820;    2.144;    0.000;342.67626
 740.76;  361.120;    4.496;    0.000;356.62374
 741.02;  363.020;    2.037;    0.000;360.98249
 741.28;  349.060;    4.015;    0.000;345.04500
 741.54;  343.220;    2.483;    0.000;340.73750
 741.81;  345.310;    3.010;    0.000;342.30000
 742.07;  328.010;    1.163;    0.000;326.84751
 742.33;  341.980;    2.645;    0.000;339.33501
 742.59;  331.150;    1.821;    0.000;329.32874
 742.85;  329.180;    0.298;    0.000;328.88249
 743.11;  315.690;    1.705;    0.000;313.98500
 743.37;  322.740;    0.685;    0.000;322.05499
 743.63;  310.970;    4.071;    0.000;306.89875
 743.89;  308.590;    4.113;    0.000;304.47750
 744.15;  315.700;    0.405;    0.000;315.29501
 744.41;  304.980;   -1.540;    0.000;306.52001
 744.67;  290.160;    1.661;    0.000;288.49875
 744.93;  306.810;    0.085;    0.000;306.72500
 745.19;  288.690;    2.245;    0.000;286.44500
 745.45;  294.330;    0.485;    0.000;293.84499
 745.71;  286.530;    1.388;    0.000;285.14250
 745.97;  285.750;    1.060;    0.000;284.69000
 746.23;  287.890;    1.283;    0.000;286.60751
 746.49;  278.060;    3.820;    0.000;274.24000
 746.75;  269.760;    3.335;    0.000;266.42501
 747.02;  266.610;    1.569;    0.000;265.04124
 747.28;  254.340;   -0.540;    0.000;254.88000
 747.54;  257.440;    2.818;    0.000;254.62250
 747.80;  251.730;   -1.074;    0.000;252.80375
 748.06;  252.030;   -5.407;    0.000;257.43750
 748.32;  244.580;    3.335;    0.000;241.24500
 748.58;  251.160;    4.275;    0.000;246.88500
 748.84;  237.930;    1.499;    0.000;236.43124
 749.10;  327.380;    9.339;    0.000;318.04125
 749.36;  246.670;    2.190;    0.000;244.48000
 749.62;  234.090;    2.432;    0.000;231.65750
 749.88;  230.300;    1.871;    0.000;228.42875
 750.14;  227.760;    3.449;    0.000;224.31124
 750.40;  231.010;   -1.523;    0.000;232.53249
 750.66;  228.580;    5.100;    0.000;223.48000
 750.91;  207.770;    1.121;    0.000;206.64875
 751.17;  205.240;    4.999;    0.000;200.24126
 751.43;  207.320;   -1.806;    0.000;209.12626
 751.69;  215.570;    4.175;    0.000;211.39501
 751.95;  210.460;    1.244;    0.000;209.21626
 752.21;  206.080;    2.675;    0.000;203.40500
 752.47;  203.930;    1.139;    0.000;202.79124
 752.73;  205.050;    3.609;    0.000;201.44125
 752.99;  184.780;   -0.211;    0.000;184.99125
 753.25;  190.010;    2.358;    0.000;187.65249
 753.51;  184.300;    1.201;    0.000;183.09875
 753.77;  194.380;    1.548;    0.000;192.83250
 754.03;  180.760;    0.859;    0.000;179.90124
 754.29;  174.560;    1.796;    0.000;172.76375
 754.55;  182.060;    3.635;    0.000;178.42500
 754.81;  175.890;    2.146;    0.000;173.74375
 755.07;  160.810;    0.389;    0.000;160.42125
 755.33;  169.430;    2.674;    0.000;166.75624
 755.59;  163.320;    1.291;    0.000;162.02876
 755.85;  157.600;    1.286;    0.000;156.31376
 756.10;  155.880;    2.474;    0.000;153.40625
 756.36;  163.130;    1.336;    0.000;161.79375
 756.62;  145.370;    1.236;    0.000;144.13375
 756.88;  155.100;    1.444;    0.000;153.65626
 757.14;  152.820;    1.900;    0.000;150.92001
 757.40;  161.710;    3.004;    0.000;158.70626
 757.66;  149.000;    2.839;    0.000;146.16125
 757.92;  147.450;    2.434;    0.000;145.01625
 758.18;  134.640;    1.880;    0.000;132.76000
 758.44;  139.040;    1.215;    0.000;137.82499
 758.70;  132.440;    1.508;    0.000;130.93250
 758.95;  136.370;   -0.256;    0.000;136.62625
 759.21;  130.590;    0.169;    0.000;130.42125
 759.47;  139.990;    4.939;    0.000;135.05126
 759.73;  125.890;    0.292;    0.000;125.59750
 759.99;  128.230;    3.420;    0.000;124.81000
 760.25;  122.980;    0.416;    0.000;122.56375
 760.51;  133.720;   -0.933;    0.000;134.65250
 760.77;  125.470;    3.746;    0.000;121.72375
 761.02;  137.580;    3.771;    0.000;133.80875
 761.28;  117.330;    1.756;    0.000;115.57375
 761.54;  119.980;    3.152;    0.000;116.82750
 761.80;  112.690;    2.394;    0.000;110.29625
 762.06;  128.340;    2.415;    0.000;125.92500
 762.32;  107.770;   -0.226;    0.000;107.99625
 762.58;  121.610;    0.177;    0.000;121.43250
 762.83;  116.610;    2.280;    0.000;114.33000
 763.09;  110.290;    4.425;    0.000;105.86500
 763.35;  104.500;    2.086;    0.000;102.41375
 763.61;  107.680;    3.421;    0.000;104.25875
 763.87;  104.430;    2.898;    0.000;101.53250
 764.13;  107.950;    2.771;    0.000;105.17875
 764.38;   95.390;    0.603;    0.000;94.78750
 764.64;   99.200;    0.809;    0.000;98.39125
 764.90;  101.610;    2.140;    0.000;99.47000
 765.16;  113.960;    2.909;    0.000;111.05125
 765.42;   97.720;    1.378;    0.000;96.34250
 765.68;   93.390;    1.506;    0.000;91.88375
 765.93;   88.370;    0.826;    0.000;87.54375
 766.19;  103.700;    1.595;    0.000;102.10500
 766.45;   78.920;    3.033;    0.000;75.88750
 766.71;   91.410;    1.970;    0.000;89.44000
 766.97;   90.790;    1.930;    0.000;88.86000
 767.22;   97.700;    0.001;    0.000;97.69875
 767.48;   77.730;    2.169;    0.000;75.56125
 767.74;   90.280;    3.239;    0.000;87.04125
 768.00;   72.950;    0.127;    0.000;72.82250
 768.26;   79.350;    2.041;    0.000;77.30875
 768.51;   80.490;    1.921;    0.000;78.56875
 768.77;   88.630;    2.866;    0.000;85.76375
 769.03;   80.690;    1.215;    0.000;79.47500
 769.29;   84.820;    3.609;    0.000;81.21125
 769.54;   65.080;   -1.861;    0.000;66.94125
 769.80;   90.300;    1.023;    0.000;89.27750
 770.06;   64.230;   -2.848;    0.000;67.07750
 770.32;   75.800;    3.336;    0.000;72.46375
 770.57;   62.720;    3.290;    0.000;59.43000
 770.83;   77.340;    2.001;    0.000;75.33875
 771.09;   67.740;    0.305;    0.000;67.43500
 771.35;   72.170;   -0.986;    0.000;73.15625
 771.61;   52.170;    3.224;    0.000;48.94625
 771.86;   76.690;    2.035;    0.000;74.65500
 772.12;   54.650;    2.678;    0.000;51.97250
 772.38;   60.770;    2.819;    0.000;57.95125
 772.63;   71.530;    2.169;    0.000;69.36125
 772.89;   60.050;    1.089;    0.000;58.96125
 773.15;   55.440;    3.095;    0.000;52.34500
 773.41;   57.960;    2.499;    0.000;55.46125
 773.66;   59.050;    2.453;    0.000;56.59750
 773.92;   60.650;    2.392;    0.000;58.25750
 774.18;   64.270;    0.616;    0.000;63.65375
 774.44;   56.870;    2.901;    0.000;53.96875
 774.69;   57.540;    2.365;    0.000;55.17500
 774.95;   55.600;    1.592;    0.000;54.00750
 775.21;   68.730;    3.401;    0.000;65.32875
 775.46;   47.360;    2.118;    0.000;45.24250
 775.72;   52.710;   -0.757;    0.000;53.46750
 775.98;   58.330;    2.870;    0.000;55.46000
 776.24;   50.540;    0.654;    0.000;49.88625
 776.49;   53.180;    0.461;    0.000;52.71875
 776.75;   54.020;   -0.097;    0.000;54.11750
 777.01;   54.340;    2.346;    0.000;51.99375
 777.26;   51.290;   -0.501;    0.000;51.79125
 777.52;   51.080;    3.513;    0.000;47.56750
 777.78;   48.820;    2.825;    0.000;45.99500
 778.03;   56.710;    4.813;    0.000;51.89750
 778.29;   46.540;   -1.135;    0.000;47.67500
 778.55;   56.570;    4.461;    0.000;52.10875
 778.80;   43.770;    4.707;    0.000;39.06250
 779.06;   40.520;    1.582;    0.000;38.93750
 779.32;   33.840;   -1.487;    0.000;35.32750
 779.57;   34.500;    5.735;    0.000;28.76500
 779.83;   38.690;    0.904;    0.000;37.78625
 780.09;   45.810;    4.139;    0.000;41.67125
 780.34;   37.070;    2.516;    0.000;34.55375
 780.60;   50.660;    5.276;    0.000;45.38375
 780.86;   34.540;    1.526;    0.000;33.01375
 781.11;   43.150;    2.318;    0.000;40.83250
 781.37;   24.890;    0.714;    0.000;24.17625
 781.63;   48.470;    0.601;    0.000;47.86875
 781.88;   31.180;    0.507;    0.000;30.67250
 782.14;   43.420;    2.296;    0.000;41.12375
 782.39;   37.470;    1.691;    0.000;35.77875
 782.65;   33.890;    0.065;    0.000;33.82500
 782.91;   39.350;    2.026;    0.000;37.32375
 783.16;   32.010;    1.395;    0.000;30.61500
 783.42;   13.420;    0.733;    0.000;12.68750
 783.67;   41.950;    2.081;    0.000;39.86875
 783.93;   21.520;    0.939;    0.000;20.58125
 784.19;   35.880;    1.356;    0.000;34.52375
 784.44;   30.340;    2.641;    0.000;27.69875
 784.70;   34.090;    3.922;    0.000;30.16750
 784.96;   16.330;   -0.010;    0.000;16.34000
 785.21;   26.760;    0.863;    0.000;25.89750
 785.47;   35.950;    1.643;    0.000;34.30750
 785.72;   13.360;    0.114;    0.000;13.24625
 785.98;   20.730;   -0.705;    0.000;21.43500
 786.23;   22.080;    1.793;    0.000;20.28750
 786.49;   17.150;    0.989;    0.000;16.16125
 786.75;   21.530;    3.019;    0.000;18.51125
 787.00;   11.510;    0.529;    0.000;10.98125
 787.26;   17.840;    1.590;    0.000;16.25000
 787.51;   18.750;    0.141;    0.000;18.60875
 787.77;   36.940;    1.200;    0.000;35.74000
 788.02;   26.280;    1.789;    0.000;24.49125
 788.28;   13.560;    0.800;    0.000;12.76000
 788.54;   21.550;   -0.199;    0.000;21.74875
 788.79;   25.170;    0.516;    0.000;24.65375
 789.05;   13.270;    3.386;    0.000; 9.88375
 789.30;   19.250;    5.298;    0.000;13.95250
 789.56;    3.110;    1.327;    0.000; 1.78250
 789.81;   11.410;    2.234;    0.000; 9.17625
 790.07;    3.390;   -0.301;    0.000; 3.69125
 790.32;   17.320;    1.149;    0.000;16.17125
 790.58;    9.670;    1.655;    0.000; 8.01500
 790.83;   13.490;    5.036;    0.000; 8.45375
 791.09;    4.820;    0.239;    0.000; 4.58125
 791.35;    4.300;    0.884;    0.000; 3.41625
 791.60;    2.950;    1.294;    0.000; 1.65625
 791.86;   14.540;    3.580;    0.000;10.96000
 792.11;    7.010;    0.661;    0.000; 6.34875
 792.37;    2.370;    2.549;    0.000;-0.17875
 792.62;    4.915;    2.610;    0.000; 2.30500
 792.88;    7.460;    2.671;    0.000; 4.78875
 793.13;    7.160;    1.554;    0.000; 5.60625
 793.39;    0.880;    2.964;    0.000;-2.08375
 793.64;   -7.420;    1.725;    0.000;-9.14500
 793.90;    8.320;    0.824;    0.000; 7.49625
 794.15;   -6.750;    4.068;    0.000;-10.81750
 794.41;   13.240;    2.352;    0.000;10.88750
 794.66;    7.650;    1.508;    0.000; 6.14250
 794.92;    2.150;    4.101;    0.000;-1.95125
 795.17;    1.740;   -0.748;    0.000; 2.48750
 795.43;  -12.310;    2.310;    0.000;-14.62000
 795.68;   -5.100;    1.050;    0.000;-6.15000
 795.94;    7.060;    2.206;    0.000; 4.85375
 796.19;    3.480;    2.890;    0.000; 0.59000
 796.44;    2.290;    2.810;    0.000;-0.52000
 796.70;  -11.980;   -0.166;    0.000;-11.81375
 796.95;    7.540;    4.159;    0.000; 3.38125
 797.21;   -5.400;    0.479;    0.000;-5.87875
 797.46;  -10.070;   -2.271;    0.000;-7.79875
 797.72;  -10.370;   -0.439;    0.000;-9.93125
 797.97;   -6.030;    0.895;    0.000;-6.92500
 798.23;   -7.510;    5.259;    0.000;-12.76875
 798.48;    2.500;    0.045;    0.000; 2.45500
 798.74;  -11.570;    0.639;    0.000;-12.20875
 798.99;   -7.860;    2.686;    0.000;-10.54625
 799.24;  -13.320;    3.122;    0.000;-16.44250
 799.50;   -8.630;    1.000;    0.000;-9.63000
 799.75;   -7.610;   -0.770;    0.000;-6.84000
 800.01;  -14.250;   -0.245;    0.000;-14.00500
 800.26;  -14.010;   -0.215;    0.000;-13.79500
 800.52;   -9.230;    2.511;    0.000;-11.74125
 800.77;  -18.920;    2.716;    0.000;-21.63625
 801.02;   -8.030;    1.580;    0.000;-9.61000
 801.28;  -13.510;   -0.673;    0.000;-12.83750
 801.53;   -1.390;    0.356;    0.000;-1.74625
 801.79;  -11.070;    3.321;    0.000;-14.39125
 802.04;  -14.760;    1.775;    0.000;-16.53500
 802.29;   -4.120;    1.541;    0.000;-5.66125
 802.55;   -3.210;   -0.161;    0.000;-3.04875
 802.80;  -16.330;    1.750;    0.000;-18.08000
 803.06;  -16.960;    1.202;    0.000;-18.16250
 803.31;  -16.810;    2.051;    0.000;-18.86125
 803.56;   -9.960;    1.589;    0.000;-11.54875
 803.82;  -13.000;    1.819;    0.000;-14.81875
 804.07;  -14.320;    1.121;    0.000;-15.44125
 804.32;  -14.000;    2.470;    0.000;-16.47000
 804.58;  -18.820;    0.745;    0.000;-19.56500
 804.83;  -21.880;    2.861;    0.000;-24.74125
 805.09;  -16.570;    2.116;    0.000;-18.68625
 805.34;  -25.010;    2.130;    0.000;-27.14000
 805.59;  -12.340;    1.832;    0.000;-14.17250
 805.85;  -16.120;    2.691;    0.000;-18.81125
 806.10;  -16.110;    4.224;    0.000;-20.33375
 806.35;   -8.610;    1.335;    0.000;-9.94500
 806.61;  -14.530;    3.255;    0.000;-17.78500
 806.86;  -26.020;    2.753;    0.000;-28.77250
 807.11;  -17.600;    2.922;    0.000;-20.52250
 807.37;   -9.500;    2.905;    0.000;-12.40500
 807.62;  -20.860;    1.607;    0.000;-22.46750
 807.87;  -15.470;    6.104;    0.000;-21.57375
 808.13;  -18.210;    0.795;    0.000;-19.00500
 808.38;  -28.130;   -0.554;    0.000;-27.57625
 808.63;  -11.050;    4.699;    0.000;-15.74875
 808.89;  -22.060;   -1.511;    0.000;-20.54875
 809.14;  -20.540;    1.401;    0.000;-21.94125
 809.39;  -22.240;   -2.053;    0.000;-20.18750
 809.65;  -30.220;    1.450;    0.000;-31.67000
 809.90;  -22.360;    3.850;    0.000;-26.21000
 810.15;  -19.170;    2.366;    0.000;-21.53625
 810.41;  -22.580;    0.111;    0.000;-22.69125
 810.66;  -17.720;    1.721;    0.000;-19.44125
 810.91;  -32.970;    0.284;    0.000;-33.25375
 811.16;  -16.870;    3.254;    0.000;-20.12375
 811.42;  -21.590;    1.806;    0.000;-23.39625
 811.67;  -30.050;    5.146;    0.000;-35.19625
 811.92;  -35.690;    1.339;    0.000;-37.02875
 812.18;  -23.380;    3.764;    0.000;-27.14375
 812.43;  -36.050;    0.262;    0.000;-36.31250
 812.68;  -28.620;   -0.415;    0.000;-28.20500
 812.93;  -35.050;   -0.444;    0.000;-34.60625
 813.19;  -20.550;    3.415;    0.000;-23.96500
 813.44;  -36.930;   -0.468;    0.000;-36.46250
 813.69;  -16.680;    3.735;    0.000;-20.41500
 813.95;  -33.210;    0.120;    0.000;-33.33000
 814.20;  -29.250;    1.482;    0.000;-30.73250
 814.45;  -37.770;    1.362;    0.000;-39.13250
 814.70;  -21.080;    2.450;    0.000;-23.53000
 814.96;  -34.150;    1.610;    0.000;-35.76000
 815.21;  -24.210;    0.421;    0.000;-24.63125
 815.46;  -31.680;    3.360;    0.000;-35.04000
 815.71;  -29.660;    1.746;    0.000;-31.40625
 815.96;  -34.180;    1.210;    0.000;-35.39000
 816.22;  -26.050;    3.869;    0.000;-29.91875
 816.47;  -34.080;    1.704;    0.000;-35.78375
 816.72;  -32.540;    2.375;    0.000;-34.91500
 816.97;  -23.970;    0.006;    0.000;-23.97625
 817.23;  -23.710;    2.188;    0.000;-25.89750
 817.48;  -30.840;    0.579;    0.000;-31.41875
 817.73;  -29.000;    1.298;    0.000;-30.29750
 817.98;  -20.100;    4.060;    0.000;-24.16000
 818.23;  -32.680;    2.849;    0.000;-35.52875
 818.49;  -35.130;    2.114;    0.000;-37.24375
 818.74;  -18.410;    3.495;    0.000;-21.90500
 818.99;  -38.510;    3.039;    0.000;-41.54875
 819.24;  -23.840;    4.864;    0.000;-28.70375
 819.50;  -39.460;   -0.814;    0.000;-38.64625
 819.75;  -21.150;    1.827;    0.000;-22.97750
 820.00;  -15.390;    2.721;    0.000;-18.11125
 820.25;  -29.820;    2.957;    0.000;-32.77750
 820.50;  -46.140;    0.806;    0.000;-46.94625
 820.75;  -25.830;    2.321;    0.000;-28.15125
 821.01;  -29.620;   -0.526;    0.000;-29.09375
 821.26;  -38.000;    2.589;    0.000;-40.58875
 821.51;  -32.030;    1.920;    0.000;-33.95000
 821.76;  -27.240;    2.214;    0.000;-29.45375
 822.01;  -35.980;    2.021;    0.000;-38.00125
 822.26;  -33.910;    2.135;    0.000;-36.04500
 822.52;  -25.520;    0.341;    0.000;-25.86125
 822.77;  -32.100;    2.754;    0.000;-34.85375
 823.02;  -34.480;    3.078;    0.000;-37.55750
 823.27;  -39.400;    2.414;    0.000;-41.81375
 823.52;  -37.490;   -1.496;    0.000;-35.99375
 823.77;  -35.770;    2.965;    0.000;-38.73500
 824.03;  -37.070;   -1.638;    0.000;-35.43250
 824.28;  -38.920;    1.317;    0.000;-40.23750
 824.53;  -35.250;    1.336;    0.000;-36.58625
 824.78;  -29.880;    0.855;    0.000;-30.73500
 825.03;  -41.990;    2.570;    0.000;-44.56000
 825.28;  -42.930;    2.166;    0.000;-45.09625
 825.53;  -34.130;    2.836;    0.000;-36.96625
 825.78;  -23.930;    2.856;    0.000;-26.78625
 826.04;  -34.090;   -0.415;    0.000;-33.67500
 826.29;  -29.610;    0.965;    0.000;-30.57500
 826.54;  -41.940;    0.800;    0.000;-42.74000
 826.79;  -31.230;    0.228;    0.000;-31.45750
 827.04;  -51.440;    2.715;    0.000;-54.15500
 827.29;  -32.590;    2.820;    0.000;-35.41000
 827.54;  -41.500;    1.196;    0.000;-42.69625
 827.79;  -37.010;    0.577;    0.000;-37.58750
 828.04;  -39.980;    1.154;    0.000;-41.13375
 828.29;  -39.410;    2.582;    0.000;-41.99250
 828.55;  -43.030;    0.469;    0.000;-43.49875
 828.80;  -38.230;    3.072;    0.000;-41.30250
 829.05;  -36.130;    0.731;    0.000;-36.86125
 829.30;  -41.640;    2.580;    0.000;-44.22000
 829.55;  -45.590;    0.910;    0.000;-46.50000
 829.80;  -42.460;    4.061;    0.000;-46.52125
 830.05;  -38.180;   -0.123;    0.000;-38.05750
 830.30;  -42.260;    2.500;    0.000;-44.76000
 830.55;  -32.350;    1.209;    0.000;-33.55875
 830.80;  -45.630;    0.980;    0.000;-46.61000
 831.05;  -42.970;    1.500;    0.000;-44.47000
 831.30;  -29.390;    2.391;    0.000;-31.78125
 831.55;  -42.800;    2.223;    0.000;-45.02250
 831.80;  -33.830;    2.836;    0.000;-36.66625
 832.05;  -34.190;    1.240;    0.000;-35.43000
 832.30;  -33.270;    2.408;    0.000;-35.67750
 832.56;  -38.310;    2.081;    0.000;-40.39125
 832.81;  -48.460;    1.378;    0.000;-49.83750
 833.06;  -32.310;    4.117;    0.000;-36.42750
 833.31;  -42.420;    2.487;    0.000;-44.90750
 833.56;  -40.270;    0.243;    0.000;-40.51250
 833.81;  -33.600;    2.466;    0.000;-36.06625
 834.06;  -37.840;    1.622;    0.000;-39.46250
 834.31;  -43.380;    3.581;    0.000;-46.96125
 834.56;  -47.320;    4.500;    0.000;-51.82000
 834.81;  -55.400;    1.409;    0.000;-56.80875
 835.06;  -48.860;    0.406;    0.000;-49.26625
 835.31;  -35.740;    3.463;    0.000;-39.20250
 835.56;  -34.420;   -0.016;    0.000;-34.40375
 835.81;  -32.040;    2.260;    0.000;-34.30000
 836.06;  -35.250;    1.614;    0.000;-36.86375
 836.31;  -48.260;    2.148;    0.000;-50.40750
 836.56;  -57.770;    3.629;    0.000;-61.39875
 836.81;  -42.810;    2.047;    0.000;-44.85750
 837.06;  -36.610;    0.816;    0.000;-37.42625
 837.31;  -43.090;    1.456;    0.000;-44.54625
 837.56;  -45.800;    1.783;    0.000;-47.58250
 837.81;  -45.880;    2.975;    0.000;-48.85500
 838.06;  -45.820;    4.039;    0.000;-49.85875
 838.31;  -41.560;    0.147;    0.000;-41.70750
 838.56;  -61.200;    1.841;    0.000;-63.04125
 838.80;  -41.240;    2.314;    0.000;-43.55375
 839.05;  -44.490;    1.386;    0.000;-45.87625
 839.30;  -43.460;    0.001;    0.000;-43.46125
 839.55;  -54.220;    0.301;    0.000;-54.52125
 839.80;  -44.680;    3.539;    0.000;-48.21875
 840.05;  -43.560;    1.010;    0.000;-44.57000
 840.30;  -35.250;    4.226;    0.000;-39.47625
 840.55;  -48.660;    1.514;    0.000;-50.17375
 840.80;  -38.390;    4.875;    0.000;-43.26500
 841.05;  -43.300;    0.784;    0.000;-44.08375
 841.30;  -28.890;    3.494;    0.000;-32.38375
 841.55;  -50.150;   -0.995;    0.000;-49.15500
 841.80;  -48.850;    1.559;    0.000;-50.40875
 842.05;  -64.730;   -1.285;    0.000;-63.44500
 842.30;  -45.570;    2.414;    0.000;-47.98375
 842.55;  -51.170;    1.058;    0.000;-52.22750
 842.79;  -51.110;    1.925;    0.000;-53.03500
 843.04;  -38.610;    0.854;    0.000;-39.46375
 843.29;  -43.840;    2.419;    0.000;-46.25875
 843.54;  -44.750;    4.284;    0.000;-49.03375
 843.79;  -54.590;    1.813;    0.000;-56.40250
 844.04;  -52.760;    4.705;    0.000;-57.46500
 844.29;  -43.430;    2.770;    0.000;-46.20000
 844.54;  -55.090;    1.173;    0.000;-56.26250
 844.79;  -44.230;    3.172;    0.000;-47.40250
 845.04;  -44.160;   -1.031;    0.000;-43.12875
 845.28;  -48.120;    3.310;    0.000;-51.43000
 845.53;  -38.560;    1.750;    0.000;-40.31000
 845.78;  -36.840;    1.957;    0.000;-38.79750
 846.03;  -47.860;    1.346;    0.000;-49.20625
 846.28;  -44.220;    2.110;    0.000;-46.33000
 846.53;  -40.430;    0.154;    0.000;-40.58375
 846.78;  -38.500;    4.660;    0.000;-43.16000
 847.02;  -47.140;    2.714;    0.000;-49.85375
 847.27;  -45.220;    1.837;    0.000;-47.05750
 847.52;  -50.840;    3.047;    0.000;-53.88750
 847.77;  -47.510;    3.314;    0.000;-50.82375
 848.02;  -51.460;   -0.440;    0.000;-51.02000
 848.27;  -47.910;    3.787;    0.000;-51.69750
 848.52;  -55.900;    2.264;    0.000;-58.16375
 848.76;  -48.280;    0.844;    0.000;-49.12375
 849.01;  -48.920;    2.570;    0.000;-51.49000
 849.26;  -51.350;    0.859;    0.000;-52.20875
 849.51;  -54.880;    3.328;    0.000;-58.20750
 849.76;  -51.930;    1.469;    0.000;-53.39875
 850.01;  -54.420;    0.701;    0.000;-55.12125
 850.25;  -53.420;    0.585;    0.000;-54.00500
 850.50;  -51.830;    0.848;    0.000;-52.67750
 850.75;  -51.520;    1.875;    0.000;-53.39500
 851.00;  -54.930;   -0.499;    0.000;-54.43125
 851.25;  -45.730;    3.796;    0.000;-49.52625
 851.49;  -50.980;    3.533;    0.000;-54.51250
 851.74;  -56.810;   -0.102;    0.000;-56.70750
 851.99;  -47.490;    2.578;    0.000;-50.06750
 852.24;  -59.010;    0.231;    0.000;-59.24125
 852.49;  -56.700;    0.465;    0.000;-57.16500
 852.73;  -58.920;    2.121;    0.000;-61.04125
 852.98;  -58.340;    0.601;    0.000;-58.94125
 853.23;  -45.780;    4.595;    0.000;-50.37500
 853.48;  -61.620;   -0.339;    0.000;-61.28125
 853.73;  -50.480;    1.725;    0.000;-52.20500
 853.97;  -61.050;    1.999;    0.000;-63.04875
 854.22;  -62.230;    2.446;    0.000;-64.67625
 854.47;  -63.910;    2.151;    0.000;-66.06125
 854.72;  -54.920;    1.765;    0.000;-56.68500
 854.96;  -50.840;    2.703;    0.000;-53.54250
 855.21;  -51.660;    1.244;    0.000;-52.90375
 855.46;  -48.550;    0.944;    0.000;-49.49375
 855.71;  -62.130;    0.262;    0.000;-62.39250
 855.95;  -57.220;    2.922;    0.000;-60.14250
 856.20;  -51.550;    2.591;    0.000;-54.14125
 856.45;  -60.570;    1.355;    0.000;-61.92500
 856.70;  -58.670;    4.641;    0.000;-63.31125
 856.94;  -60.380;    1.589;    0.000;-61.96875
 857.19;  -44.530;    2.404;    0.000;-46.93375
 857.44;  -56.740;    1.933;    0.000;-58.67250
 857.69;  -55.880;    5.104;    0.000;-60.98375
 857.93;  -57.050;    3.511;    0.000;-60.56125
 858.18;  -47.180;    1.986;    0.000;-49.16625
 858.43;  -58.370;   -0.159;    0.000;-58.21125
 858.67;  -48.870;    5.415;    0.000;-54.28500
 858.92;  -59.140;    1.999;    0.000;-61.13875
 859.17;  -40.950;    4.201;    0.000;-45.15125
 859.42;  -59.550;    0.545;    0.000;-60.09500
 859.66;  -63.560;    3.158;    0.000;-66.71750
 859.91;  -58.270;   -0.270;    0.000;-58.00000
 860.16;  -65.520;    1.684;    0.000;-67.20375
 860.40;  -49.670;    1.197;    0.000;-50.86750
 860.65;  -64.040;    1.515;    0.000;-65.55500
 860.90;  -66.910;   -0.985;    0.000;-65.92500
 861.14;  -63.460;    0.160;    0.000;-63.62000
 861.39;  -63.320;    0.465;    0.000;-63.78500
 861.64;  -58.690;    3.563;    0.000;-62.25250
 861.88;  -70.840;    3.859;    0.000;-74.69875
 862.13;  -58.160;    2.254;    0.000;-60.41375
 862.38;  -70.690;    0.489;    0.000;-71.17875
 862.62;  -52.930;    1.619;    0.000;-54.54875
 862.87;  -57.930;    0.080;    0.000;-58.01000
 863.12;  -60.750;    0.527;    0.000;-61.27750
 863.36;  -66.260;    3.011;    0.000;-69.27125
 863.61;  -55.130;    2.111;    0.000;-57.24125
 863.86;  -61.370;    0.804;    0.000;-62.17375
 864.10;  -61.530;    2.416;    0.000;-63.94625
 864.35;  -65.220;    1.164;    0.000;-66.38375
 864.60;  -57.970;    0.605;    0.000;-58.57500
 864.84;  -64.060;    1.896;    0.000;-65.95625
 865.09;  -52.970;    2.196;    0.000;-55.16625
 865.33;  -63.420;    3.348;    0.000;-66.76750
 865.58;  -55.920;    3.236;    0.000;-59.15625
 865.83;  -61.630;    2.321;    0.000;-63.95125
 866.07;  -62.900;    2.855;    0.000;-65.75500
 866.32;  -36.690;    2.915;    0.000;-39.60500
 866.57;  -54.280;   -1.800;    0.000;-52.48000
 866.81;  -70.340;    1.764;    0.000;-72.10375
 867.06;  -60.970;   -0.352;    0.000;-60.61750
 867.30;  -68.360;   -0.220;    0.000;-68.14000
 867.55;  -64.230;    1.786;    0.000;-66.01625
 867.80;  -54.480;    2.810;    0.000;-57.29000
 868.04;  -59.640;    4.080;    0.000;-63.72000
 868.29;  -70.310;    3.003;    0.000;-73.31250
 868.53;  -49.330;    3.311;    0.000;-52.64125
 868.78;  -68.630;   -0.996;    0.000;-67.63375
 869.03;  -52.070;    2.876;    0.000;-54.94625
 869.27;  -64.240;    2.398;    0.000;-66.63750
 869.52;  -58.500;    3.370;    0.000;-61.87000
 869.76;  -60.790;    2.531;    0.000;-63.32125
 870.01;  -57.630;    3.679;    0.000;-61.30875
 870.25;  -56.810;    3.981;    0.000;-60.79125
 870.50;  -60.120;    2.935;    0.000;-63.05500
 870.75;  -60.310;    0.636;    0.000;-60.94625
 870.99;  -59.290;    0.940;    0.000;-60.23000
 871.24;  -59.320;    0.904;    0.000;-60.22375
 871.48;  -48.990;    5.313;    0.000;-54.30250
 871.73;  -56.970;    2.930;    0.000;-59.90000
 871.97;  -68.400;    2.589;    0.000;-70.98875
 872.22;  -66.540;    3.342;    0.000;-69.88250
 872.46;  -50.430;    2.088;    0.000;-52.51750
 872.71;  -69.840;    0.244;    0.000;-70.08375
 872.95;  -61.800;    2.320;    0.000;-64.12000
 873.20;  -57.990;    2.894;    0.000;-60.88375
 873.44;  -52.650;    4.470;    0.000;-57.12000
 873.69;  -68.600;    2.315;    0.000;-70.91500
 873.94;  -50.340;    3.934;    0.000;-54.27375
 874.18;  -64.290;    1.847;    0.000;-66.13750
 874.43;  -60.630;    2.386;    0.000;-63.01625
 874.67;  -61.130;   -0.515;    0.000;-60.61500
 874.92;  -49.740;    1.961;    0.000;-51.70125
 875.16;  -58.120;    4.129;    0.000;-62.24875
 875.41;  -60.400;    0.016;    0.000;-60.41625
 875.65;  -59.170;   -0.228;    0.000;-58.94250
 875.90;  -53.500;    5.189;    0.000;-58.68875
 876.14;  -62.380;    2.056;    0.000;-64.43625
 876.39;  -57.450;    3.029;    0.000;-60.47875
 876.63;  -69.620;    2.815;    0.000;-72.43500
 876.88;  -55.450;    1.354;    0.000;-56.80375
 877.12;  -62.140;    1.954;    0.000;-64.09375
 877.36;  -63.030;    1.592;    0.000;-64.62250
 877.61;  -70.610;    1.324;    0.000;-71.93375
 877.85;  -53.690;    3.668;    0.000;-57.35750
 878.10;  -64.720;    1.811;    0.000;-66.53125
 878.34;  -54.810;    4.662;    0.000;-59.47250
 878.59;  -54.800;    3.560;    0.000;-58.36000
 878.83;  -64.820;    3.334;    0.000;-68.15375
 879.08;  -55.080;    4.274;    0.000;-59.35375
 879.32;  -60.840;    3.205;    0.000;-64.04500
 879.57;  -55.940;    3.221;    0.000;-59.16125
 879.81;  -59.200;    0.571;    0.000;-59.77125
 880.05;  -49.890;    2.775;    0.000;-52.66500
 880.30;  -57.240;    1.899;    0.000;-59.13875
 880.54;  -63.450;    2.659;    0.000;-66.10875
 880.79;  -61.680;    1.919;    0.000;-63.59875
 881.03;  -56.490;    1.780;    0.000;-58.27000
 881.28;  -53.250;    4.125;    0.000;-57.37500
 881.52;  -64.200;    4.539;    0.000;-68.73875
 881.76;  -61.290;    2.729;    0.000;-64.01875
 882.01;  -61.500;    1.770;    0.000;-63.27000
 882.25;  -56.520;    5.285;    0.000;-61.80500
 882.50;  -59.730;    1.586;    0.000;-61.31625
 882.74;  -55.220;    1.505;    0.000;-56.72500
 882.98;  -58.440;    2.839;    0.000;-61.27875
 883.23;  -65.460;    1.059;    0.000;-66.51875
 883.47;  -54.050;    4.950;    0.000;-59.00000
 883.72;  -57.690;    4.606;    0.000;-62.29625
 883.96;  -51.250;    4.194;    0.000;-55.44375
 884.20;  -56.930;    1.607;    0.000;-58.53750
 884.45;  -61.090;    3.172;    0.000;-64.26250
 884.69;  -54.050;    5.045;    0.000;-59.09500
 884.94;  -51.020;    3.589;    0.000;-54.60875
 885.18;  -58.830;    2.435;    0.000;-61.26500
 885.42;  -51.410;    2.079;    0.000;-53.48875
 885.67;  -41.950;    3.995;    0.000;-45.94500
 885.91;  -64.070;    1.904;    0.000;-65.97375
 886.15;  -50.820;    1.859;    0.000;-52.67875
 886.40;  -55.990;    1.438;    0.000;-57.42750
 886.64;  -55.230;    3.661;    0.000;-58.89125
 886.88;  -57.620;    2.609;    0.000;-60.22875
 887.13;  -48.370;    3.316;    0.000;-51.68625
 887.37;  -57.190;    2.561;    0.000;-59.75125
 887.62;  -43.670;    4.399;    0.000;-48.06875
 887.86;  -56.840;    3.491;    0.000;-60.33125
 888.10;  -52.090;    5.320;    0.000;-57.41000
 888.35;  -51.040;    4.015;    0.000;-55.05500
 888.59;  -53.480;    5.435;    0.000;-58.91500
 888.83;  -55.030;    3.104;    0.000;-58.13375
 889.07;  -46.320;    3.310;    0.000;-49.63000
 889.32;  -52.990;    5.429;    0.000;-58.41875
 889.56;  -50.770;    3.888;    0.000;-54.65750
 889.80;  -56.500;    2.438;    0.000;-58.93750
 890.05;  -51.970;    2.096;    0.000;-54.06625
 890.29;  -56.330;    3.392;    0.000;-59.72250
 890.53;  -49.170;    4.108;    0.000;-53.27750
 890.78;  -59.420;    3.010;    0.000;-62.43000
 891.02;  -40.360;    3.884;    0.000;-44.24375
 891.26;  -60.760;    4.090;    0.000;-64.85000
 891.51;  -46.140;    3.727;    0.000;-49.86750
 891.75;  -41.540;    1.636;    0.000;-43.17625
 891.99;  -49.710;    4.133;    0.000;-53.84250
 892.23;  -64.060;    1.094;    0.000;-65.15375
 892.48;  -50.690;    6.174;    0.000;-56.86375
 892.72;  -45.660;    4.309;    0.000;-49.96875
 892.96;  -45.720;    6.463;    0.000;-52.18250
 893.20;  -55.110;    3.534;    0.000;-58.64375
 893.45;  -53.790;    4.674;    0.000;-58.46375
 893.69;  -46.250;    4.350;    0.000;-50.60000
 893.93;  -43.670;    3.811;    0.000;-47.48125
 894.17;  -48.080;    3.632;    0.000;-51.71250
 894.42;  -40.650;    3.563;    0.000;-44.21250
 894.66;  -45.830;    3.575;    0.000;-49.40500
 894.90;  -47.110;    4.434;    0.000;-51.54375
 895.14;  -41.640;    5.156;    0.000;-46.79625
 895.39;  -44.990;    2.453;    0.000;-47.44250
 895.63;  -34.880;    3.581;    0.000;-38.46125
 895.87;  -44.760;    2.703;    0.000;-47.46250
 896.11;  -45.550;    3.902;    0.000;-49.45250
 896.36;  -33.840;    4.361;    0.000;-38.20125
 896.60;  -50.390;    4.684;    0.000;-55.07375
 896.84;  -35.110;    7.503;    0.000;-42.61250
 897.08;  -29.960;    7.704;    0.000;-37.66375
 897.32;  -30.580;    6.090;    0.000;-36.67000
 897.57;  -32.600;    5.235;    0.000;-37.83500
 897.81;  -28.240;    6.305;    0.000;-34.54500
 898.05;  -38.070;    6.220;    0.000;-44.29000
 898.29;  -22.610;    6.834;    0.000;-29.44375
 898.53;  -26.580;    5.426;    0.000;-32.00625
 898.78;  -17.480;    7.475;    0.000;-24.95500
 899.02;  -35.430;    5.856;    0.000;-41.28625
 899.26;  -13.550;    8.570;    0.000;-22.12000
 899.50;   -0.270;    7.455;    0.000;-7.72500
 899.74;  -14.370;    5.930;    0.000;-20.30000
 899.99;  -11.900;    9.002;    0.000;-20.90250
 900.23;   -0.260;    9.759;    0.000;-10.01875
 900.47;  -14.570;    9.193;    0.000;-23.76250
 900.71;    5.130;    9.520;    0.000;-4.39000
 900.95;   13.270;    9.591;    0.000; 3.67875
 901.19;   16.650;    9.936;    0.000; 6.71375
 901.44;   18.200;   11.654;    0.000; 6.54625
 901.68;   37.290;   11.363;    0.000;25.92750
 901.92;   29.850;   12.930;    0.000;16.92000
 902.16;   43.870;   12.275;    0.000;31.59500
 902.40;   55.200;   15.089;    0.000;40.11125
 902.64;   80.840;   18.999;    0.000;61.84125
 902.88;   96.850;   18.346;    0.000;78.50375
 903.13;  118.170;   19.689;    0.000;98.48125

