p3
Integration time [ms]:  20.000
Averaging Nr. [scans]: 50
Smoothing Nr. [pixels]: 0
Data measured with spectrometer [name]: 1307077U2
Wave   ;Sample   ;Dark     ;Reference;Scope Corrected for Dark
[nm]   ;[counts] ;[counts] ;[counts] 

 350.80;   17.940;   -3.950;    0.000;21.89000
 351.10;   12.520;    2.790;    0.000; 9.73000
 351.39;    8.500;   -5.780;    0.000;14.28000
 351.69;  -17.720;   -6.710;    0.000;-11.01000
 351.99;    9.500;  -10.760;    0.000;20.26000
 352.28;  -12.520;  -11.870;    0.000;-0.65000
 352.58;    3.160;    2.640;    0.000; 0.52000
 352.88;   -3.200;   -3.560;    0.000; 0.36000
 353.17;   12.320;   -1.460;    0.000;13.78000
 353.47;   -8.880;   -7.300;    0.000;-1.58000
 353.76;    9.620;    3.730;    0.000; 5.89000
 354.06;    2.040;    1.480;    0.000; 0.56000
 354.36;    8.820;    2.120;    0.000; 6.70000
 354.65;   22.240;   12.260;    0.000; 9.98000
 354.95;    4.880;    1.380;    0.000; 3.50000
 355.24;    6.540;   -7.520;    0.000;14.06000
 355.54;    7.340;   -6.140;    0.000;13.48000
 355.84;    0.640;    1.010;    0.000;-0.37000
 356.13;   34.960;    1.060;    0.000;33.90000
 356.43;  -10.500;   -3.280;    0.000;-7.22000
 356.72;    7.660;   -7.820;    0.000;15.48000
 357.02;   -4.400;    1.340;    0.000;-5.74000
 357.31;   28.060;    4.400;    0.000;23.66000
 357.61;   16.140;    0.390;    0.000;15.75000
 357.91;   -4.020;   -9.460;    0.000; 5.44000
 358.20;    1.940;   -6.210;    0.000; 8.15000
 358.50;    2.100;   -0.320;    0.000; 2.42000
 358.79;   -8.860;   -0.240;    0.000;-8.62000
 359.09;   13.920;    4.600;    0.000; 9.32000
 359.38;   -2.780;   -4.910;    0.000; 2.13000
 359.68;   -6.920;   -6.920;    0.000; 0.00000
 359.98;    5.600;   -3.210;    0.000; 8.81000
 360.27;   12.820;   -5.880;    0.000;18.70000
 360.57;  -11.880;   -6.850;    0.000;-5.03000
 360.86;   17.260;   -3.030;    0.000;20.29000
 361.16;  -14.580;  -10.940;    0.000;-3.64000
 361.45;   14.600;   -3.610;    0.000;18.21000
 361.75;  -11.320;   -6.330;    0.000;-4.99000
 362.04;   41.980;    7.330;    0.000;34.65000
 362.34;   -4.280;   -8.080;    0.000; 3.80000
 362.64;    6.740;   -4.150;    0.000;10.89000
 362.93;  -14.760;  -11.650;    0.000;-3.11000
 363.23;   -3.380;   -3.380;    0.000; 0.00000
 363.52;   -1.960;   -7.930;    0.000; 5.97000
 363.82;    2.960;   -3.630;    0.000; 6.59000
 364.11;   -4.560;   -3.640;    0.000;-0.92000
 364.41;   -2.900;   -7.090;    0.000; 4.19000
 364.70;   -2.720;   -9.000;    0.000; 6.28000
 365.00;   14.840;    0.260;    0.000;14.58000
 365.29;   -2.520;   -7.370;    0.000; 4.85000
 365.59;   -3.740;   -3.180;    0.000;-0.56000
 365.88;   -3.040;  -15.140;    0.000;12.10000
 366.18;   11.060;   -3.430;    0.000;14.49000
 366.47;   -9.160;   -8.280;    0.000;-0.88000
 366.77;   10.160;   -6.540;    0.000;16.70000
 367.06;    0.440;   -3.040;    0.000; 3.48000
 367.36;   15.700;   -6.830;    0.000;22.53000
 367.65;    6.880;   -1.150;    0.000; 8.03000
 367.95;    4.920;   -6.850;    0.000;11.77000
 368.24;    0.580;   -4.930;    0.000; 5.51000
 368.54;   -5.160;  -13.980;    0.000; 8.82000
 368.83;   14.080;   -1.360;    0.000;15.44000
 369.13;   12.780;   -2.650;    0.000;15.43000
 369.42;   -9.500;   -5.530;    0.000;-3.97000
 369.72;    0.020;   -9.410;    0.000; 9.43000
 370.01;    0.180;   -1.870;    0.000; 2.05000
 370.31;   11.280;    2.490;    0.000; 8.79000
 370.60;   18.220;   -0.490;    0.000;18.71000
 370.90;   12.060;   -4.910;    0.000;16.97000
 371.19;  -15.680;   -8.640;    0.000;-7.04000
 371.49;   -9.760;  -15.270;    0.000; 5.51000
 371.78;    0.700;  -12.190;    0.000;12.89000
 372.08;   14.980;   -4.150;    0.000;19.13000
 372.37;   -8.400;   -7.430;    0.000;-0.97000
 372.67;   14.460;   -1.910;    0.000;16.37000
 372.96;   -8.140;   -4.090;    0.000;-4.05000
 373.26;    2.800;  -11.210;    0.000;14.01000
 373.55;    0.420;   -3.340;    0.000; 3.76000
 373.85;    9.380;  -14.000;    0.000;23.38000
 374.14;    2.320;   -0.440;    0.000; 2.76000
 374.43;    5.480;   -4.860;    0.000;10.34000
 374.73;    4.040;   -5.870;    0.000; 9.91000
 375.02;   11.600;   -6.640;    0.000;18.24000
 375.32;   -8.760;   -8.860;    0.000; 0.10000
 375.61;    2.360;   -4.690;    0.000; 7.05000
 375.91;   -6.980;   -6.400;    0.000;-0.58000
 376.20;  -13.660;   -8.800;    0.000;-4.86000
 376.50;  -13.200;   -2.750;    0.000;-10.45000
 376.79;   -5.260;  -12.990;    0.000; 7.73000
 377.08;   -7.080;   -9.810;    0.000; 2.73000
 377.38;    2.720;   -9.410;    0.000;12.13000
 377.67;   -3.240;  -15.820;    0.000;12.58000
 377.97;    2.060;  -12.430;    0.000;14.49000
 378.26;   -6.560;   -3.550;    0.000;-3.01000
 378.56;    1.060;  -11.760;    0.000;12.82000
 378.85;    2.080;   -6.770;    0.000; 8.85000
 379.14;    6.040;  -10.870;    0.000;16.91000
 379.44;   -7.680;   -7.950;    0.000; 0.27000
 379.73;   -1.360;  -12.070;    0.000;10.71000
 380.03;   -4.840;  -10.640;    0.000; 5.80000
 380.32;   -6.320;  -10.740;    0.000; 4.42000
 380.62;   -8.480;  -11.160;    0.000; 2.68000
 380.91;   15.380;   -2.790;    0.000;18.17000
 381.20;   -4.340;   -6.380;    0.000; 2.04000
 381.50;   -0.240;   -6.110;    0.000; 5.87000
 381.79;   -8.880;   -7.870;    0.000;-1.01000
 382.09;    4.000;   -7.030;    0.000;11.03000
 382.38;  -14.660;  -10.330;    0.000;-4.33000
 382.67;   -1.540;  -10.730;    0.000; 9.19000
 382.97;   -4.360;   -5.370;    0.000; 1.01000
 383.26;   -3.640;   -3.260;    0.000;-0.38000
 383.56;    4.380;   -3.260;    0.000; 7.64000
 383.85;   -4.280;  -12.650;    0.000; 8.37000
 384.14;    5.980;    0.820;    0.000; 5.16000
 384.44;   -9.020;   -6.530;    0.000;-2.49000
 384.73;  -10.040;   -5.430;    0.000;-4.61000
 385.02;   -3.140;   -6.450;    0.000; 3.31000
 385.32;   -0.340;   -4.570;    0.000; 4.23000
 385.61;   -5.840;  -16.270;    0.000;10.43000
 385.91;   14.620;   -9.440;    0.000;24.06000
 386.20;    0.960;  -10.110;    0.000;11.07000
 386.49;  -11.520;  -14.900;    0.000; 3.38000
 386.79;    1.760;   -7.340;    0.000; 9.10000
 387.08;   -5.120;   -6.300;    0.000; 1.18000
 387.37;    9.220;   -8.420;    0.000;17.64000
 387.67;   -6.420;   -6.130;    0.000;-0.29000
 387.96;   -4.840;   -9.280;    0.000; 4.44000
 388.25;   -8.940;   -1.410;    0.000;-7.53000
 388.55;    2.380;  -10.080;    0.000;12.46000
 388.84;  -11.140;  -12.690;    0.000; 1.55000
 389.14;   -2.060;  -11.090;    0.000; 9.03000
 389.43;   -2.800;   -9.030;    0.000; 6.23000
 389.72;  -23.620;  -13.300;    0.000;-10.32000
 390.02;  -21.160;   -9.420;    0.000;-11.74000
 390.31;    2.400;   -2.070;    0.000; 4.47000
 390.60;   -1.620;   -4.250;    0.000; 2.63000
 390.90;   -4.320;  -15.000;    0.000;10.68000
 391.19;   -9.200;   -8.270;    0.000;-0.93000
 391.48;    5.600;  -13.200;    0.000;18.80000
 391.78;  -10.480;   -9.570;    0.000;-0.91000
 392.07;   77.440;   16.810;    0.000;60.63000
 392.36;   10.640;   -1.800;    0.000;12.44000
 392.66;   -8.900;  -11.850;    0.000; 2.95000
 392.95;  -15.120;  -10.380;    0.000;-4.74000
 393.24;   -8.540;  -20.110;    0.000;11.57000
 393.53;   -7.480;   -8.500;    0.000; 1.02000
 393.83;  -12.180;  -10.870;    0.000;-1.31000
 394.12;  -20.140;  -16.700;    0.000;-3.44000
 394.41;   -7.480;  -13.050;    0.000; 5.57000
 394.71;   -3.880;   -7.960;    0.000; 4.08000
 395.00;   -3.760;  -12.500;    0.000; 8.74000
 395.29;   -4.980;   -8.400;    0.000; 3.42000
 395.59;   -7.520;  -20.950;    0.000;13.43000
 395.88;  -12.540;  -16.060;    0.000; 3.52000
 396.17;   -5.800;   -8.460;    0.000; 2.66000
 396.46;   10.700;   -3.560;    0.000;14.26000
 396.76;   -8.120;  -13.050;    0.000; 4.93000
 397.05;   18.760;    2.180;    0.000;16.58000
 397.34;   -8.880;  -20.090;    0.000;11.21000
 397.64;  -13.560;   -9.050;    0.000;-4.51000
 397.93;   -6.420;  -18.420;    0.000;12.00000
 398.22;  -16.720;  -12.920;    0.000;-3.80000
 398.51;    1.440;   -9.770;    0.000;11.21000
 398.81;  -14.920;  -12.510;    0.000;-2.41000
 399.10;    2.820;   -2.690;    0.000; 5.51000
 399.39;   -9.800;  -11.900;    0.000; 2.10000
 399.69;    4.860;  -13.740;    0.000;18.60000
 399.98;    6.380;   -4.100;    0.000;10.48000
 400.27;   -6.420;  -13.520;    0.000; 7.10000
 400.56;   -3.880;  -16.060;    0.000;12.18000
 400.86;   -7.720;  -13.820;    0.000; 6.10000
 401.15;    8.380;   -4.180;    0.000;12.56000
 401.44;   -1.420;  -15.730;    0.000;14.31000
 401.73;   17.380;   -2.540;    0.000;19.92000
 402.03;    2.480;  -10.300;    0.000;12.78000
 402.32;  -21.020;  -17.030;    0.000;-3.99000
 402.61;   -3.060;   -9.950;    0.000; 6.89000
 402.90;  -14.940;  -11.420;    0.000;-3.52000
 403.20;    2.660;   -6.220;    0.000; 8.88000
 403.49;   -5.720;   -6.030;    0.000; 0.31000
 403.78;    0.820;  -11.040;    0.000;11.86000
 404.07;  -12.120;  -18.650;    0.000; 6.53000
 404.37;    4.260;  -10.470;    0.000;14.73000
 404.66;   -1.760;  -14.960;    0.000;13.20000
 404.95;    1.600;   -0.330;    0.000; 1.93000
 405.24;  -12.220;  -15.620;    0.000; 3.40000
 405.53;    5.700;  -15.660;    0.000;21.36000
 405.83;   11.200;   -4.700;    0.000;15.90000
 406.12;   -4.060;  -10.900;    0.000; 6.84000
 406.41;    5.080;   -6.740;    0.000;11.82000
 406.70;  -10.780;  -12.650;    0.000; 1.87000
 407.00;    7.660;   -5.150;    0.000;12.81000
 407.29;   -6.340;  -10.150;    0.000; 3.81000
 407.58;  -27.480;  -15.850;    0.000;-11.63000
 407.87;    2.780;  -15.280;    0.000;18.06000
 408.16;  -18.060;  -17.930;    0.000;-0.13000
 408.46;   -7.260;  -11.550;    0.000; 4.29000
 408.75;   -9.920;  -11.910;    0.000; 1.99000
 409.04;    1.400;   -9.380;    0.000;10.78000
 409.33;  -13.140;   -5.530;    0.000;-7.61000
 409.62;    3.600;   -9.060;    0.000;12.66000
 409.92;    0.980;   -7.890;    0.000; 8.87000
 410.21;  -10.160;  -11.510;    0.000; 1.35000
 410.50;  -13.860;  -15.240;    0.000; 1.38000
 410.79;   11.140;   -3.910;    0.000;15.05000
 411.08;   -6.100;  -18.230;    0.000;12.13000
 411.37;  -20.680;  -12.950;    0.000;-7.73000
 411.67;  -12.280;  -15.120;    0.000; 2.84000
 411.96;   -2.620;  -13.530;    0.000;10.91000
 412.25;  -11.240;  -11.720;    0.000; 0.48000
 412.54;    0.320;  -14.570;    0.000;14.89000
 412.83;  -11.540;  -15.690;    0.000; 4.15000
 413.13;   -2.260;  -12.520;    0.000;10.26000
 413.42;  -10.640;  -11.540;    0.000; 0.90000
 413.71;    3.500;  -16.160;    0.000;19.66000
 414.00;  -13.820;  -15.050;    0.000; 1.23000
 414.29;   -4.880;  -10.400;    0.000; 5.52000
 414.58;  -12.360;  -20.050;    0.000; 7.69000
 414.87;   -5.020;  -11.570;    0.000; 6.55000
 415.17;   -8.580;  -14.460;    0.000; 5.88000
 415.46;   -9.940;  -14.740;    0.000; 4.80000
 415.75;    0.720;  -15.050;    0.000;15.77000
 416.04;   -1.040;  -19.580;    0.000;18.54000
 416.33;   -5.420;  -10.240;    0.000; 4.82000
 416.62;  -16.860;  -16.750;    0.000;-0.11000
 416.91;   -7.220;   -9.630;    0.000; 2.41000
 417.21;   -9.200;   -9.770;    0.000; 0.57000
 417.50;  -16.900;  -22.390;    0.000; 5.49000
 417.79;   -7.660;  -14.440;    0.000; 6.78000
 418.08;  -10.500;  -16.260;    0.000; 5.76000
 418.37;   -3.920;  -12.710;    0.000; 8.79000
 418.66;   -4.760;  -14.780;    0.000;10.02000
 418.95;    6.920;  -12.220;    0.000;19.14000
 419.24;   -9.960;  -16.910;    0.000; 6.95000
 419.54;   -6.900;  -14.290;    0.000; 7.39000
 419.83;  -12.760;   -7.000;    0.000;-5.76000
 420.12;   -5.600;  -17.080;    0.000;11.48000
 420.41;   12.480;   -6.120;    0.000;18.60000
 420.70;  -22.200;  -15.970;    0.000;-6.23000
 420.99;   -6.860;   -7.860;    0.000; 1.00000
 421.28;    3.240;  -14.590;    0.000;17.83000
 421.57;   -7.220;  -13.670;    0.000; 6.45000
 421.86;   14.660;   -3.720;    0.000;18.38000
 422.16;    2.820;   -4.790;    0.000; 7.61000
 422.45;   -3.180;   -7.870;    0.000; 4.69000
 422.74;  -12.480;  -11.510;    0.000;-0.97000
 423.03;    3.180;   -8.230;    0.000;11.41000
 423.32;  -18.980;  -16.280;    0.000;-2.70000
 423.61;   19.020;  -10.700;    0.000;29.72000
 423.90;  -12.680;  -18.810;    0.000; 6.13000
 424.19;   37.800;    3.040;    0.000;34.76000
 424.48;  -12.020;  -13.640;    0.000; 1.62000
 424.77;   -4.900;  -15.110;    0.000;10.21000
 425.06;   -6.980;   -8.550;    0.000; 1.57000
 425.35;   10.020;  -12.070;    0.000;22.09000
 425.65;   -4.600;  -12.850;    0.000; 8.25000
 425.94;   -8.500;  -13.500;    0.000; 5.00000
 426.23;  -15.600;  -18.630;    0.000; 3.03000
 426.52;  -17.320;  -18.760;    0.000; 1.44000
 426.81;    8.380;   -4.960;    0.000;13.34000
 427.10;  -16.560;  -18.640;    0.000; 2.08000
 427.39;   -8.260;  -17.730;    0.000; 9.47000
 427.68;   -4.880;   -6.060;    0.000; 1.18000
 427.97;    6.340;   -9.970;    0.000;16.31000
 428.26;  -15.320;  -21.550;    0.000; 6.23000
 428.55;    7.860;   -7.010;    0.000;14.87000
 428.84;   -0.800;  -15.510;    0.000;14.71000
 429.13;  -11.820;  -21.800;    0.000; 9.98000
 429.42;   -1.840;   -6.430;    0.000; 4.59000
 429.71;   -8.200;  -12.900;    0.000; 4.70000
 430.00;   -3.420;  -27.260;    0.000;23.84000
 430.29;  -18.660;  -18.790;    0.000; 0.13000
 430.58;   -6.660;  -19.950;    0.000;13.29000
 430.87;  -12.280;  -18.710;    0.000; 6.43000
 431.16;   -7.140;  -27.130;    0.000;19.99000
 431.46;    6.460;  -12.580;    0.000;19.04000
 431.75;  -12.560;  -16.460;    0.000; 3.90000
 432.04;    4.020;  -12.750;    0.000;16.77000
 432.33;  -11.920;  -15.960;    0.000; 4.04000
 432.62;   -4.660;  -16.610;    0.000;11.95000
 432.91;   -9.840;  -15.280;    0.000; 5.44000
 433.20;   -3.600;  -14.090;    0.000;10.49000
 433.49;   -0.560;  -21.180;    0.000;20.62000
 433.78;  -20.100;  -15.380;    0.000;-4.72000
 434.07;   -0.700;  -18.570;    0.000;17.87000
 434.36;  -11.340;  -18.360;    0.000; 7.02000
 434.65;  -23.020;  -19.110;    0.000;-3.91000
 434.94;  -13.620;  -16.660;    0.000; 3.04000
 435.23;    7.940;  -14.870;    0.000;22.81000
 435.52;   -5.060;  -15.280;    0.000;10.22000
 435.81;   -7.660;  -19.590;    0.000;11.93000
 436.10;   -8.920;   -8.920;    0.000; 0.00000
 436.39;    6.440;   -9.090;    0.000;15.53000
 436.68;   -1.940;   -9.150;    0.000; 7.21000
 436.97;  -15.260;  -17.940;    0.000; 2.68000
 437.26;   -5.540;  -11.060;    0.000; 5.52000
 437.55;    4.760;  -14.150;    0.000;18.91000
 437.83;  -12.160;  -20.360;    0.000; 8.20000
 438.12;  -23.960;  -19.980;    0.000;-3.98000
 438.41;  -14.840;  -18.690;    0.000; 3.85000
 438.70;   35.700;   -6.450;    0.000;42.15000
 438.99;   15.740;   -3.000;    0.000;18.74000
 439.28;   -6.660;  -13.960;    0.000; 7.30000
 439.57;   -2.600;   -8.660;    0.000; 6.06000
 439.86;   -5.100;  -20.460;    0.000;15.36000
 440.15;   -3.860;  -10.490;    0.000; 6.63000
 440.44;    2.380;  -14.790;    0.000;17.17000
 440.73;   -8.660;  -19.990;    0.000;11.33000
 441.02;   -2.120;  -18.940;    0.000;16.82000
 441.31;   -3.400;  -17.020;    0.000;13.62000
 441.60;   -7.480;  -10.820;    0.000; 3.34000
 441.89;  -13.320;  -18.180;    0.000; 4.86000
 442.18;   -0.440;  -11.380;    0.000;10.94000
 442.47;   -7.300;  -20.660;    0.000;13.36000
 442.76;   -7.300;  -17.440;    0.000;10.14000
 443.05;    3.800;   -6.670;    0.000;10.47000
 443.34;   -0.140;  -21.050;    0.000;20.91000
 443.63;  -19.820;  -21.060;    0.000; 1.24000
 443.91;   -0.900;  -24.010;    0.000;23.11000
 444.20;   -8.540;  -15.210;    0.000; 6.67000
 444.49;  -10.020;  -17.150;    0.000; 7.13000
 444.78;   -3.400;  -10.890;    0.000; 7.49000
 445.07;   10.540;  -13.040;    0.000;23.58000
 445.36;  -22.540;  -25.850;    0.000; 3.31000
 445.65;    1.940;  -13.460;    0.000;15.40000
 445.94;   -9.380;  -17.420;    0.000; 8.04000
 446.23;   10.840;  -14.150;    0.000;24.99000
 446.52;    0.320;  -19.520;    0.000;19.84000
 446.81;   -0.620;  -16.560;    0.000;15.94000
 447.10;  -16.320;  -13.040;    0.000;-3.28000
 447.38;    0.260;  -16.320;    0.000;16.58000
 447.67;   -1.860;  -14.960;    0.000;13.10000
 447.96;   -0.460;  -20.220;    0.000;19.76000
 448.25;  -10.960;  -17.610;    0.000; 6.65000
 448.54;   -8.880;  -20.490;    0.000;11.61000
 448.83;   -5.540;  -21.650;    0.000;16.11000
 449.12;   -8.620;  -24.330;    0.000;15.71000
 449.41;   -4.480;  -17.380;    0.000;12.90000
 449.70;   -6.160;  -19.200;    0.000;13.04000
 449.98;   -3.680;  -18.990;    0.000;15.31000
 450.27;    7.340;  -10.630;    0.000;17.97000
 450.56;  -17.160;  -19.350;    0.000; 2.19000
 450.85;   -6.200;  -18.980;    0.000;12.78000
 451.14;   -4.660;  -18.310;    0.000;13.65000
 451.43;   -5.640;  -19.640;    0.000;14.00000
 451.72;  -19.440;  -20.630;    0.000; 1.19000
 452.01;    3.020;  -12.200;    0.000;15.22000
 452.29;  -27.960;  -18.350;    0.000;-9.61000
 452.58;   -5.260;  -25.270;    0.000;20.01000
 452.87;  -18.460;  -19.090;    0.000; 0.63000
 453.16;   -2.640;  -11.330;    0.000; 8.69000
 453.45;    9.680;  -14.720;    0.000;24.40000
 453.74;    0.060;  -10.690;    0.000;10.75000
 454.03;   -2.200;  -21.930;    0.000;19.73000
 454.31;  -12.060;  -22.490;    0.000;10.43000
 454.60;  -18.220;  -21.160;    0.000; 2.94000
 454.89;    6.340;  -12.560;    0.000;18.90000
 455.18;   -7.200;  -24.060;    0.000;16.86000
 455.47;  -18.140;  -26.150;    0.000; 8.01000
 455.76;  -13.720;  -27.400;    0.000;13.68000
 456.04;    3.580;  -25.580;    0.000;29.16000
 456.33;  -12.540;  -25.270;    0.000;12.73000
 456.62;   -5.900;  -18.480;    0.000;12.58000
 456.91;  -28.440;  -23.960;    0.000;-4.48000
 457.20;    0.760;  -15.140;    0.000;15.90000
 457.49;  -10.720;  -14.830;    0.000; 4.11000
 457.77;  -22.040;  -20.000;    0.000;-2.04000
 458.06;    3.360;  -12.460;    0.000;15.82000
 458.35;  -14.520;  -24.180;    0.000; 9.66000
 458.64;  -11.600;  -11.000;    0.000;-0.60000
 458.93;   -5.020;  -15.890;    0.000;10.87000
 459.21;  -16.280;  -21.440;    0.000; 5.16000
 459.50;   -3.680;  -22.030;    0.000;18.35000
 459.79;  -14.340;  -19.740;    0.000; 5.40000
 460.08;   -6.440;  -20.210;    0.000;13.77000
 460.37;   -6.320;  -17.330;    0.000;11.01000
 460.65;    1.780;  -20.980;    0.000;22.76000
 460.94;  -22.560;  -24.100;    0.000; 1.54000
 461.23;   -8.580;  -16.720;    0.000; 8.14000
 461.52;   20.100;  -10.800;    0.000;30.90000
 461.81;    2.440;  -18.200;    0.000;20.64000
 462.09;   -0.060;  -16.530;    0.000;16.47000
 462.38;  -17.620;  -21.390;    0.000; 3.77000
 462.67;  -11.720;  -25.110;    0.000;13.39000
 462.96;   -7.660;  -24.230;    0.000;16.57000
 463.24;  -11.420;  -23.650;    0.000;12.23000
 463.53;    2.780;  -17.480;    0.000;20.26000
 463.82;  -15.540;  -19.800;    0.000; 4.26000
 464.11;  -14.560;  -21.730;    0.000; 7.17000
 464.40;  -16.480;  -22.130;    0.000; 5.65000
 464.68;  -18.360;  -21.480;    0.000; 3.12000
 464.97;  -17.440;  -19.470;    0.000; 2.03000
 465.26;    6.180;  -17.460;    0.000;23.64000
 465.55;  -10.520;  -20.890;    0.000;10.37000
 465.83;   -7.040;  -20.920;    0.000;13.88000
 466.12;  -22.280;  -22.340;    0.000; 0.06000
 466.41;   -0.920;  -21.380;    0.000;20.46000
 466.70;   -7.800;  -23.610;    0.000;15.81000
 466.98;  -11.440;  -20.090;    0.000; 8.65000
 467.27;   -1.840;  -18.760;    0.000;16.92000
 467.56;    9.140;  -20.980;    0.000;30.12000
 467.85;  -10.920;  -15.930;    0.000; 5.01000
 468.13;   -9.240;  -14.330;    0.000; 5.09000
 468.42;   -4.160;  -17.700;    0.000;13.54000
 468.71;   -1.480;  -20.100;    0.000;18.62000
 468.99;   -0.800;  -17.320;    0.000;16.52000
 469.28;   -3.480;  -22.330;    0.000;18.85000
 469.57;  -14.160;  -21.170;    0.000; 7.01000
 469.86;    7.220;  -18.660;    0.000;25.88000
 470.14;  -24.000;  -24.400;    0.000; 0.40000
 470.43;   10.540;  -16.250;    0.000;26.79000
 470.72;  -24.700;  -27.700;    0.000; 3.00000
 471.00;   -4.540;  -21.470;    0.000;16.93000
 471.29;   17.760;  -12.190;    0.000;29.95000
 471.58;   12.100;  -14.440;    0.000;26.54000
 471.87;  -10.920;  -20.260;    0.000; 9.34000
 472.15;   -6.240;  -27.280;    0.000;21.04000
 472.44;   16.940;  -13.550;    0.000;30.49000
 472.73;  -17.520;  -28.340;    0.000;10.82000
 473.01;   -7.680;  -26.320;    0.000;18.64000
 473.30;    7.760;  -23.100;    0.000;30.86000
 473.59;  -15.360;  -19.590;    0.000; 4.23000
 473.87;   -1.460;  -19.240;    0.000;17.78000
 474.16;   -8.560;  -20.110;    0.000;11.55000
 474.45;  -13.960;  -30.440;    0.000;16.48000
 474.74;  -13.980;  -22.750;    0.000; 8.77000
 475.02;   -1.240;  -15.460;    0.000;14.22000
 475.31;    0.600;  -20.200;    0.000;20.80000
 475.60;   -0.280;  -27.200;    0.000;26.92000
 475.88;    1.440;  -25.920;    0.000;27.36000
 476.17;   10.660;  -16.890;    0.000;27.55000
 476.46;   -2.720;  -20.900;    0.000;18.18000
 476.74;   -0.420;  -23.070;    0.000;22.65000
 477.03;  -23.560;  -22.890;    0.000;-0.67000
 477.32;    9.500;  -21.040;    0.000;30.54000
 477.60;  -10.940;  -24.890;    0.000;13.95000
 477.89;    1.200;  -14.910;    0.000;16.11000
 478.18;    4.220;  -15.900;    0.000;20.12000
 478.46;   10.160;  -19.520;    0.000;29.68000
 478.75;   -5.960;  -18.520;    0.000;12.56000
 479.03;   -8.640;  -17.330;    0.000; 8.69000
 479.32;   -0.600;  -26.670;    0.000;26.07000
 479.61;   -9.980;  -32.440;    0.000;22.46000
 479.89;  -16.320;  -24.740;    0.000; 8.42000
 480.18;   -1.220;  -21.450;    0.000;20.23000
 480.47;   11.720;  -18.220;    0.000;29.94000
 480.75;   -4.040;  -29.820;    0.000;25.78000
 481.04;    4.920;  -20.400;    0.000;25.32000
 481.33;   13.880;  -16.240;    0.000;30.12000
 481.61;   -4.840;  -20.830;    0.000;15.99000
 481.90;   -7.580;  -33.240;    0.000;25.66000
 482.18;    7.360;  -23.490;    0.000;30.85000
 482.47;   15.740;  -18.580;    0.000;34.32000
 482.76;   -2.960;  -24.650;    0.000;21.69000
 483.04;   18.580;  -22.560;    0.000;41.14000
 483.33;    1.300;  -27.450;    0.000;28.75000
 483.61;   10.300;  -18.390;    0.000;28.69000
 483.90;    4.840;  -22.630;    0.000;27.47000
 484.19;    0.320;  -31.890;    0.000;32.21000
 484.47;   22.160;  -27.650;    0.000;49.81000
 484.76;   10.580;  -22.480;    0.000;33.06000
 485.05;   16.360;  -15.900;    0.000;32.26000
 485.33;   24.340;  -20.520;    0.000;44.86000
 485.62;    5.520;  -23.220;    0.000;28.74000
 485.90;   21.900;  -19.330;    0.000;41.23000
 486.19;    1.440;  -21.960;    0.000;23.40000
 486.47;   61.780;  -17.750;    0.000;79.53000
 486.76;   32.780;  -32.110;    0.000;64.89000
 487.05;   48.480;  -21.590;    0.000;70.07000
 487.33;   42.180;  -24.120;    0.000;66.30000
 487.62;   44.040;  -27.370;    0.000;71.41000
 487.90;   42.120;  -24.640;    0.000;66.76000
 488.19;   70.340;  -17.250;    0.000;87.59000
 488.47;   85.560;  -20.280;    0.000;105.84000
 488.76;   78.700;  -22.200;    0.000;100.90000
 489.05;  106.740;  -13.720;    0.000;120.46000
 489.33;   86.140;  -24.060;    0.000;110.20000
 489.62;  107.800;  -27.760;    0.000;135.56000
 489.90;  114.420;  -29.230;    0.000;143.65000
 490.19;  130.100;  -20.080;    0.000;150.18001
 490.47;  148.980;  -27.170;    0.000;176.15000
 490.76;  156.340;  -30.390;    0.000;186.73000
 491.05;  179.380;  -18.700;    0.000;198.08001
 491.33;  206.920;  -19.160;    0.000;226.08000
 491.62;  200.140;  -30.080;    0.000;230.22000
 491.90;  230.020;  -24.970;    0.000;254.99000
 492.19;  249.580;  -29.880;    0.000;279.46000
 492.47;  258.820;  -26.010;    0.000;284.83001
 492.76;  302.860;  -25.800;    0.000;328.65998
 493.04;  327.560;  -23.090;    0.000;350.65000
 493.33;  355.640;  -29.680;    0.000;385.32001
 493.61;  389.800;  -28.280;    0.000;418.07999
 493.90;  437.300;  -25.470;    0.000;462.76999
 494.18;  457.800;  -21.360;    0.000;479.15999
 494.47;  502.360;  -21.500;    0.000;523.85999
 494.75;  508.160;  -25.740;    0.000;533.90000
 495.04;  577.580;  -25.010;    0.000;602.59002
 495.32;  590.600;  -24.280;    0.000;614.87998
 495.61;  645.700;  -26.390;    0.000;672.09001
 495.89;  697.820;  -25.210;    0.000;723.03001
 496.18;  749.480;  -24.900;    0.000;774.37998
 496.46;  811.200;  -25.570;    0.000;836.77001
 496.75;  853.660;  -19.200;    0.000;872.85997
 497.03;  903.840;  -21.850;    0.000;925.69003
 497.32;  975.960;  -28.930;    0.000;1004.89002
 497.60; 1013.220;  -27.460;    0.000;1040.67997
 497.89; 1103.800;  -26.060;    0.000;1129.86005
 498.17; 1155.360;  -23.200;    0.000;1178.55999
 498.46; 1240.980;  -31.150;    0.000;1272.12998
 498.74; 1313.240;  -21.420;    0.000;1334.65999
 499.03; 1388.520;  -27.500;    0.000;1416.02002
 499.31; 1446.900;  -33.980;    0.000;1480.88002
 499.60; 1555.140;  -26.560;    0.000;1581.70001
 499.88; 1658.180;  -13.310;    0.000;1671.49005
 500.17; 1707.700;  -32.950;    0.000;1740.64995
 500.45; 1799.080;  -26.850;    0.000;1825.92996
 500.74; 1908.520;  -32.110;    0.000;1940.63002
 501.02; 1966.940;  -28.340;    0.000;1995.27994
 501.31; 2091.220;  -30.740;    0.000;2121.95997
 501.59; 2176.960;  -22.990;    0.000;2199.94996
 501.88; 2288.980;  -24.540;    0.000;2313.51998
 502.16; 2397.840;  -33.190;    0.000;2431.03009
 502.45; 2509.520;  -27.850;    0.000;2537.37002
 502.73; 2615.420;  -30.030;    0.000;2645.44992
 503.01; 2726.400;  -26.800;    0.000;2753.19990
 503.30; 2810.360;  -26.540;    0.000;2836.90011
 503.58; 2958.240;  -37.970;    0.000;2996.20999
 503.87; 3066.680;  -21.070;    0.000;3087.74993
 504.15; 3191.440;  -31.700;    0.000;3223.13994
 504.44; 3318.880;  -22.380;    0.000;3341.25988
 504.72; 3470.720;  -16.240;    0.000;3486.95997
 505.00; 3571.520;  -31.090;    0.000;3602.61002
 505.29; 3726.320;  -18.750;    0.000;3745.07007
 505.57; 3826.760;  -26.120;    0.000;3852.88001
 505.86; 3962.500;  -30.130;    0.000;3992.63000
 506.14; 4114.780;  -40.580;    0.000;4155.35979
 506.43; 4264.960;  -16.980;    0.000;4281.93996
 506.71; 4423.580;  -26.380;    0.000;4449.96008
 506.99; 4533.540;  -33.030;    0.000;4566.57004
 507.28; 4668.640;  -27.620;    0.000;4696.26014
 507.56; 4844.340;  -28.400;    0.000;4872.73984
 507.85; 4968.920;  -26.630;    0.000;4995.54992
 508.13; 5114.600;  -23.390;    0.000;5137.99010
 508.41; 5292.180;  -13.300;    0.000;5305.48018
 508.70; 5408.440;  -30.090;    0.000;5438.52994
 508.98; 5556.280;  -29.260;    0.000;5585.53979
 509.27; 5772.360;  -34.820;    0.000;5807.17986
 509.55; 5900.040;  -20.900;    0.000;5920.94004
 509.83; 6025.500;  -32.250;    0.000;6057.75000
 510.12; 6229.000;  -25.080;    0.000;6254.08000
 510.40; 6376.480;  -26.530;    0.000;6403.00998
 510.69; 6535.280;  -26.360;    0.000;6561.63979
 510.97; 6687.440;  -25.960;    0.000;6713.39994
 511.25; 6854.440;  -25.560;    0.000;6879.99994
 511.54; 6994.320;  -32.180;    0.000;7026.49982
 511.82; 7177.000;  -23.410;    0.000;7200.41000
 512.11; 7331.460;  -28.130;    0.000;7359.58996
 512.39; 7464.020;  -32.100;    0.000;7496.12002
 512.67; 7654.200;  -23.390;    0.000;7677.59019
 512.96; 7837.760;  -27.360;    0.000;7865.11977
 513.24; 7937.840;  -25.540;    0.000;7963.37984
 513.52; 8133.600;  -20.710;    0.000;8154.31010
 513.81; 8261.720;  -27.450;    0.000;8289.16973
 514.09; 8363.780;  -31.630;    0.000;8395.41027
 514.37; 8553.040;  -28.900;    0.000;8581.94004
 514.66; 8726.840;  -26.830;    0.000;8753.66984
 514.94; 8815.920;  -30.930;    0.000;8846.84992
 515.22; 8989.960;  -20.740;    0.000;9010.69996
 515.51; 9150.660;  -28.110;    0.000;9178.77016
 515.79; 9329.840;  -30.680;    0.000;9360.51984
 516.07; 9468.940;  -21.420;    0.000;9490.36043
 516.36; 9625.520;  -30.450;    0.000;9655.96953
 516.64; 9756.080;  -27.560;    0.000;9783.64008
 516.92; 9959.140;  -28.140;    0.000;9987.27965
 517.21;10142.160;  -33.670;    0.000;10175.83015
 517.49;10303.400;  -21.660;    0.000;10325.06039
 517.77;10513.920;  -23.850;    0.000;10537.76992
 518.06;10641.240;  -35.280;    0.000;10676.52023
 518.34;10849.540;  -22.260;    0.000;10871.80004
 518.62;10939.340;  -18.090;    0.000;10957.42984
 518.91;11136.840;  -25.090;    0.000;11161.92984
 519.19;11240.460;  -29.320;    0.000;11269.77996
 519.47;11423.700;  -25.890;    0.000;11449.59019
 519.76;11555.640;  -20.890;    0.000;11576.52965
 520.04;11725.720;  -27.100;    0.000;11752.81973
 520.32;11834.540;  -24.040;    0.000;11858.58004
 520.61;11982.560;  -17.280;    0.000;11999.83957
 520.89;12115.640;  -26.150;    0.000;12141.78965
 521.17;12205.460;  -27.250;    0.000;12232.70996
 521.45;12390.360;  -26.190;    0.000;12416.55035
 521.74;12508.460;  -27.770;    0.000;12536.22996
 522.02;12702.240;  -32.340;    0.000;12734.58023
 522.30;12811.100;  -30.190;    0.000;12841.28961
 522.59;12930.580;  -17.950;    0.000;12948.53008
 522.87;13020.840;  -35.830;    0.000;13056.66985
 523.15;13175.760;  -22.330;    0.000;13198.08977
 523.43;13254.400;  -36.850;    0.000;13291.25039
 523.72;13463.200;  -22.470;    0.000;13485.67019
 524.00;13577.020;  -26.840;    0.000;13603.85953
 524.28;13690.480;  -30.100;    0.000;13720.58047
 524.57;13859.780;  -28.250;    0.000;13888.03027
 524.85;13889.380;  -33.210;    0.000;13922.58988
 525.13;14020.920;  -28.900;    0.000;14049.81992
 525.41;14148.800;  -26.930;    0.000;14175.72980
 525.70;14284.680;  -39.770;    0.000;14324.44969
 525.98;14368.080;  -28.770;    0.000;14396.85008
 526.26;14483.940;  -28.530;    0.000;14512.47043
 526.54;14543.040;  -37.240;    0.000;14580.28004
 526.83;14685.360;  -31.260;    0.000;14716.62035
 527.11;14784.680;  -29.840;    0.000;14814.51969
 527.39;14911.680;  -27.920;    0.000;14939.59969
 527.67;15035.600;  -33.060;    0.000;15068.65961
 527.96;15151.260;  -33.590;    0.000;15184.84977
 528.24;15237.020;  -30.660;    0.000;15267.67953
 528.52;15393.260;  -24.870;    0.000;15418.12977
 528.80;15481.640;  -28.750;    0.000;15510.38965
 529.08;15563.160;  -34.880;    0.000;15598.04016
 529.37;15687.620;  -25.970;    0.000;15713.59012
 529.65;15755.580;  -21.850;    0.000;15777.43008
 529.93;15855.480;  -27.970;    0.000;15883.45047
 530.21;15903.940;  -33.080;    0.000;15937.02043
 530.50;16001.840;  -30.560;    0.000;16032.39984
 530.78;16109.420;  -27.290;    0.000;16136.70992
 531.06;16249.320;  -32.640;    0.000;16281.96031
 531.34;16327.600;  -31.410;    0.000;16359.00961
 531.62;16399.260;  -29.810;    0.000;16429.06977
 531.91;16467.859;  -33.270;    0.000;16501.12938
 532.19;16573.561;  -28.780;    0.000;16602.34055
 532.47;16724.980;  -30.330;    0.000;16755.31047
 532.75;16729.881;  -25.280;    0.000;16755.16086
 533.03;16820.439;  -26.860;    0.000;16847.29945
 533.32;16885.859;  -23.280;    0.000;16909.13938
 533.60;17071.721;  -34.090;    0.000;17105.81070
 533.88;17085.961;  -20.750;    0.000;17106.71094
 534.16;17167.539;  -30.960;    0.000;17198.49906
 534.44;17242.020;  -26.490;    0.000;17268.50953
 534.72;17275.619;  -32.560;    0.000;17308.17914
 535.01;17366.859;  -25.270;    0.000;17392.12938
 535.29;17402.580;  -23.350;    0.000;17425.93008
 535.57;17502.561;  -25.910;    0.000;17528.47055
 535.85;17599.500;  -23.170;    0.000;17622.67000
 536.13;17708.721;  -28.940;    0.000;17737.66070
 536.42;17703.240;  -27.660;    0.000;17730.90023
 536.70;17804.740;  -35.120;    0.000;17839.86023
 536.98;17942.619;  -22.910;    0.000;17965.52914
 537.26;17965.660;  -19.290;    0.000;17984.95016
 537.54;18094.920;  -26.340;    0.000;18121.25992
 537.82;18085.320;  -21.930;    0.000;18107.25031
 538.10;18169.260;  -27.700;    0.000;18196.95977
 538.39;18306.600;  -28.600;    0.000;18335.19961
 538.67;18324.801;  -27.310;    0.000;18352.11078
 538.95;18368.340;  -30.120;    0.000;18398.45984
 539.23;18400.641;  -22.970;    0.000;18423.61062
 539.51;18394.600;  -22.060;    0.000;18416.65961
 539.79;18496.400;  -26.640;    0.000;18523.04039
 540.07;18613.000;  -22.100;    0.000;18635.10000
 540.36;18715.721;  -30.750;    0.000;18746.47070
 540.64;18727.020;  -22.510;    0.000;18749.52953
 540.92;18812.539;  -30.820;    0.000;18843.35906
 541.20;18845.760;  -29.640;    0.000;18875.39977
 541.48;18955.760;  -12.470;    0.000;18968.22977
 541.76;18954.420;  -26.780;    0.000;18981.19992
 542.04;19081.439;  -23.270;    0.000;19104.70945
 542.32;19127.779;  -24.220;    0.000;19151.99930
 542.61;19194.600;  -33.520;    0.000;19228.11961
 542.89;19199.320;  -17.240;    0.000;19216.56031
 543.17;19257.740;  -25.240;    0.000;19282.98023
 543.45;19282.141;  -24.660;    0.000;19306.80062
 543.73;19422.420;  -28.070;    0.000;19450.48992
 544.01;19312.461;  -29.250;    0.000;19341.71094
 544.29;19411.801;  -19.640;    0.000;19431.44078
 544.57;19520.160;  -34.410;    0.000;19554.57016
 544.85;19479.881;  -23.490;    0.000;19503.37086
 545.13;19588.279;  -25.150;    0.000;19613.42930
 545.42;19590.000;  -24.120;    0.000;19614.12000
 545.70;19577.080;  -20.880;    0.000;19597.96008
 545.98;19631.340;  -22.690;    0.000;19654.02984
 546.26;19699.760;  -22.680;    0.000;19722.43977
 546.54;19690.721;  -26.680;    0.000;19717.40070
 546.82;19802.779;  -22.560;    0.000;19825.33930
 547.10;19827.420;  -25.490;    0.000;19852.90992
 547.38;19833.881;  -18.460;    0.000;19852.34086
 547.66;19841.500;  -24.450;    0.000;19865.95000
 547.94;19880.119;  -22.110;    0.000;19902.22914
 548.22;19911.520;  -28.020;    0.000;19939.53953
 548.50;19999.420;  -35.840;    0.000;20035.25992
 548.78;19965.340;  -28.210;    0.000;19993.54984
 549.06;19995.240;  -25.700;    0.000;20020.94024
 549.34;19952.320;  -30.930;    0.000;19983.25031
 549.63;20117.500;  -17.470;    0.000;20134.97000
 549.91;20105.141;  -26.020;    0.000;20131.16063
 550.19;20085.641;  -30.840;    0.000;20116.48063
 550.47;20154.779;  -33.570;    0.000;20188.34930
 550.75;20109.539;  -29.150;    0.000;20138.68906
 551.03;20175.539;  -31.230;    0.000;20206.76906
 551.31;20148.961;  -27.700;    0.000;20176.66094
 551.59;20183.039;  -27.320;    0.000;20210.35906
 551.87;20222.279;  -25.060;    0.000;20247.33930
 552.15;20235.141;  -29.650;    0.000;20264.79062
 552.43;20296.600;  -17.690;    0.000;20314.28961
 552.71;20263.279;  -26.730;    0.000;20290.00930
 552.99;20324.961;  -27.320;    0.000;20352.28094
 553.27;20347.301;  -33.900;    0.000;20381.20078
 553.55;20376.439;  -29.130;    0.000;20405.56945
 553.83;20340.039;  -34.100;    0.000;20374.13906
 554.11;20370.539;  -29.070;    0.000;20399.60906
 554.39;20402.561;  -17.350;    0.000;20419.91055
 554.67;20375.920;  -31.140;    0.000;20407.05992
 554.95;20431.061;  -15.790;    0.000;20446.85055
 555.23;20321.881;  -19.190;    0.000;20341.07086
 555.51;20387.340;  -23.860;    0.000;20411.19984
 555.79;20370.760;  -26.610;    0.000;20397.36977
 556.07;20284.061;  -33.750;    0.000;20317.81055
 556.35;20312.119;  -33.080;    0.000;20345.19914
 556.63;20365.600;  -23.190;    0.000;20388.78961
 556.91;20273.561;  -20.140;    0.000;20293.70055
 557.19;20355.660;  -33.420;    0.000;20389.08015
 557.47;20273.301;  -26.860;    0.000;20300.16078
 557.75;20287.180;  -27.600;    0.000;20314.77969
 558.03;20316.221;  -23.720;    0.000;20339.94070
 558.31;20323.660;  -32.820;    0.000;20356.48016
 558.59;20384.439;  -28.200;    0.000;20412.63945
 558.87;20332.801;  -31.300;    0.000;20364.10078
 559.15;20390.660;  -29.920;    0.000;20420.58016
 559.43;20414.500;  -31.700;    0.000;20446.20000
 559.71;20412.359;  -29.390;    0.000;20441.74937
 559.99;20388.840;  -29.950;    0.000;20418.78984
 560.27;20371.279;  -31.860;    0.000;20403.13930
 560.55;20416.520;  -27.330;    0.000;20443.84953
 560.82;20365.680;  -30.590;    0.000;20396.26969
 561.10;20328.641;  -35.810;    0.000;20364.45063
 561.38;20270.641;  -27.550;    0.000;20298.19062
 561.66;20322.900;  -27.770;    0.000;20350.67039
 561.94;20202.141;  -36.790;    0.000;20238.93063
 562.22;20298.260;  -29.270;    0.000;20327.52977
 562.50;20227.461;  -25.730;    0.000;20253.19094
 562.78;20236.160;  -28.210;    0.000;20264.37016
 563.06;20154.381;  -32.200;    0.000;20186.58086
 563.34;20110.260;  -32.310;    0.000;20142.56977
 563.62;20154.340;  -26.420;    0.000;20180.75984
 563.90;20030.740;  -33.310;    0.000;20064.05024
 564.18;20106.641;  -30.050;    0.000;20136.69062
 564.46;19988.000;  -33.070;    0.000;20021.07000
 564.74;19982.381;  -26.370;    0.000;20008.75086
 565.01;20039.020;  -34.630;    0.000;20073.64953
 565.29;19924.480;  -30.890;    0.000;19955.37047
 565.57;19945.820;  -27.770;    0.000;19973.59031
 565.85;19861.279;  -26.540;    0.000;19887.81930
 566.13;19823.500;  -35.020;    0.000;19858.52000
 566.41;19839.100;  -27.970;    0.000;19867.06961
 566.69;19754.920;  -26.850;    0.000;19781.76992
 566.97;19826.439;  -35.710;    0.000;19862.14945
 567.25;19746.160;  -26.920;    0.000;19773.08016
 567.53;19674.801;  -31.550;    0.000;19706.35078
 567.80;19641.461;  -29.830;    0.000;19671.29094
 568.08;19683.859;  -23.950;    0.000;19707.80938
 568.36;19581.900;  -39.610;    0.000;19621.51039
 568.64;19501.641;  -31.690;    0.000;19533.33063
 568.92;19517.980;  -24.250;    0.000;19542.23047
 569.20;19455.439;  -32.220;    0.000;19487.65945
 569.48;19390.840;  -33.550;    0.000;19424.38984
 569.76;19317.939;  -41.820;    0.000;19359.75945
 570.03;19306.279;  -26.520;    0.000;19332.79930
 570.31;19265.500;  -33.390;    0.000;19298.89000
 570.59;19226.260;  -29.380;    0.000;19255.63976
 570.87;19155.840;  -30.810;    0.000;19186.64984
 571.15;19126.900;  -35.650;    0.000;19162.55039
 571.43;19077.600;  -28.530;    0.000;19106.12961
 571.71;19073.961;  -40.130;    0.000;19114.09094
 571.98;18969.820;  -30.700;    0.000;19000.52031
 572.26;18919.980;  -33.520;    0.000;18953.50047
 572.54;18847.199;  -36.750;    0.000;18883.94922
 572.82;18831.279;  -35.020;    0.000;18866.29930
 573.10;18780.820;  -32.420;    0.000;18813.24031
 573.38;18767.580;  -33.880;    0.000;18801.46008
 573.66;18700.561;  -34.190;    0.000;18734.75055
 573.93;18631.020;  -33.870;    0.000;18664.88953
 574.21;18537.980;  -31.820;    0.000;18569.80047
 574.49;18555.619;  -31.910;    0.000;18587.52914
 574.77;18478.699;  -29.890;    0.000;18508.58922
 575.05;18410.400;  -22.870;    0.000;18433.27039
 575.33;18361.420;  -31.620;    0.000;18393.03992
 575.60;18272.881;  -29.990;    0.000;18302.87086
 575.88;18251.119;  -30.640;    0.000;18281.75914
 576.16;18155.840;  -31.370;    0.000;18187.20984
 576.44;18085.859;  -30.170;    0.000;18116.02938
 576.72;18016.801;  -30.330;    0.000;18047.13078
 576.99;18011.119;  -35.380;    0.000;18046.49914
 577.27;17926.439;  -32.010;    0.000;17958.44945
 577.55;17918.859;  -20.740;    0.000;17939.59937
 577.83;17791.000;  -38.350;    0.000;17829.35000
 578.11;17693.801;  -30.600;    0.000;17724.40078
 578.38;17689.859;  -33.300;    0.000;17723.15937
 578.66;17620.160;  -33.190;    0.000;17653.35015
 578.94;17498.461;  -34.250;    0.000;17532.71094
 579.22;17432.480;  -36.890;    0.000;17469.37047
 579.50;17430.180;  -16.500;    0.000;17446.67969
 579.77;17311.400;  -27.820;    0.000;17339.22039
 580.05;17273.721;  -33.860;    0.000;17307.58070
 580.33;17226.680;  -36.230;    0.000;17262.90969
 580.61;17145.619;  -31.810;    0.000;17177.42914
 580.88;17105.721;  -31.550;    0.000;17137.27070
 581.16;17019.100;  -30.380;    0.000;17049.47961
 581.44;16923.240;  -26.740;    0.000;16949.98023
 581.72;16836.381;  -36.870;    0.000;16873.25086
 581.99;16800.160;  -28.000;    0.000;16828.16016
 582.27;16789.381;  -32.620;    0.000;16822.00086
 582.55;16599.260;  -39.650;    0.000;16638.90977
 582.83;16590.760;  -31.420;    0.000;16622.17977
 583.10;16468.600;  -34.040;    0.000;16502.63961
 583.38;16412.980;  -33.790;    0.000;16446.77047
 583.66;16310.940;  -23.360;    0.000;16334.30043
 583.94;16251.440;  -37.120;    0.000;16288.56043
 584.21;16221.320;  -36.200;    0.000;16257.52031
 584.49;16072.400;  -31.210;    0.000;16103.61039
 584.77;16026.320;  -41.490;    0.000;16067.81031
 585.05;15920.300;  -41.880;    0.000;15962.17981
 585.32;15847.980;  -40.900;    0.000;15888.88047
 585.60;15857.300;  -35.320;    0.000;15892.61980
 585.88;15724.820;  -36.100;    0.000;15760.92031
 586.16;15665.000;  -33.460;    0.000;15698.46000
 586.43;15491.780;  -23.040;    0.000;15514.82027
 586.71;15552.180;  -33.020;    0.000;15585.19969
 586.99;15374.600;  -38.700;    0.000;15413.29961
 587.26;15283.820;  -39.100;    0.000;15322.92031
 587.54;15188.420;  -29.820;    0.000;15218.23992
 587.82;15162.340;  -31.730;    0.000;15194.06984
 588.10;15046.980;  -35.850;    0.000;15082.83047
 588.37;14903.420;  -41.630;    0.000;14945.04992
 588.65;14845.120;  -32.470;    0.000;14877.59012
 588.93;14815.480;  -32.150;    0.000;14847.63047
 589.20;14727.100;  -34.030;    0.000;14761.12961
 589.48;14651.520;  -34.930;    0.000;14686.44953
 589.76;14580.260;  -15.830;    0.000;14596.08977
 590.03;14481.680;  -40.290;    0.000;14521.96969
 590.31;14372.700;  -33.480;    0.000;14406.18019
 590.59;14318.100;  -33.000;    0.000;14351.09961
 590.86;14160.800;  -31.500;    0.000;14192.29980
 591.14;14119.020;  -37.450;    0.000;14156.46953
 591.42;14008.940;  -37.920;    0.000;14046.86043
 591.70;13926.140;  -32.300;    0.000;13958.43965
 591.97;13873.480;  -26.470;    0.000;13899.95047
 592.25;13819.860;  -31.490;    0.000;13851.35035
 592.53;13664.080;  -39.370;    0.000;13703.45008
 592.80;13602.680;  -30.970;    0.000;13633.64969
 593.08;13499.640;  -28.190;    0.000;13527.82965
 593.36;13443.080;  -33.690;    0.000;13476.77008
 593.63;13350.120;  -28.510;    0.000;13378.63012
 593.91;13288.780;  -39.300;    0.000;13328.08027
 594.18;13182.400;  -30.740;    0.000;13213.14039
 594.46;13113.440;  -37.200;    0.000;13150.64043
 594.74;13056.300;  -35.270;    0.000;13091.56981
 595.01;12917.700;  -39.910;    0.000;12957.61020
 595.29;12767.680;  -37.830;    0.000;12805.50969
 595.57;12811.960;  -30.310;    0.000;12842.26996
 595.84;12678.660;  -34.070;    0.000;12712.73016
 596.12;12602.900;  -35.950;    0.000;12638.85039
 596.40;12473.420;  -47.400;    0.000;12520.81992
 596.67;12421.480;  -33.240;    0.000;12454.72047
 596.95;12303.960;  -31.840;    0.000;12335.79996
 597.22;12256.360;  -42.200;    0.000;12298.56035
 597.50;12172.760;  -33.310;    0.000;12206.06977
 597.78;12073.420;  -35.870;    0.000;12109.28992
 598.05;11998.500;  -42.370;    0.000;12040.87000
 598.33;11910.360;  -31.360;    0.000;11941.72035
 598.61;11860.660;  -34.100;    0.000;11894.76015
 598.88;11780.800;  -43.010;    0.000;11823.80980
 599.16;11651.820;  -38.270;    0.000;11690.09031
 599.43;11558.560;  -44.250;    0.000;11602.80957
 599.71;11522.520;  -31.350;    0.000;11553.86953
 599.99;11419.900;  -40.440;    0.000;11460.34039
 600.26;11260.720;  -34.480;    0.000;11295.19973
 600.54;11292.760;  -35.880;    0.000;11328.63977
 600.81;11156.360;  -30.800;    0.000;11187.16035
 601.09;11122.420;  -38.420;    0.000;11160.83992
 601.36;10979.960;  -43.640;    0.000;11023.59996
 601.64;10925.580;  -36.270;    0.000;10961.85008
 601.92;10843.440;  -40.290;    0.000;10883.73043
 602.19;10789.620;  -43.490;    0.000;10833.11012
 602.47;10665.940;  -41.720;    0.000;10707.66043
 602.74;10657.620;  -33.580;    0.000;10691.20012
 603.02;10553.980;  -30.880;    0.000;10584.86047
 603.29;10424.140;  -30.150;    0.000;10454.28965
 603.57;10421.400;  -38.680;    0.000;10460.08039
 603.85;10343.180;  -36.240;    0.000;10379.41969
 604.12;10301.620;  -25.740;    0.000;10327.36012
 604.40;10227.120;  -37.040;    0.000;10264.16012
 604.67;10116.840;  -31.720;    0.000;10148.55984
 604.95;10003.740;  -36.850;    0.000;10040.59023
 605.22;10019.220;  -36.400;    0.000;10055.61973
 605.50; 9904.420;  -42.480;    0.000;9946.89992
 605.77; 9860.360;  -37.250;    0.000;9897.61035
 606.05; 9735.200;  -39.640;    0.000;9774.84019
 606.33; 9719.360;  -35.100;    0.000;9754.46035
 606.60; 9626.040;  -44.280;    0.000;9670.32004
 606.88; 9545.340;  -33.550;    0.000;9578.88984
 607.15; 9468.140;  -35.810;    0.000;9503.94965
 607.43; 9433.880;  -38.570;    0.000;9472.44988
 607.70; 9411.180;  -33.540;    0.000;9444.71969
 607.98; 9238.620;  -38.040;    0.000;9276.66012
 608.25; 9225.020;  -39.360;    0.000;9264.37953
 608.53; 9228.840;  -46.700;    0.000;9275.53984
 608.80; 9078.260;  -39.200;    0.000;9117.45977
 609.08; 9092.560;  -41.820;    0.000;9134.37957
 609.35; 9002.960;  -35.520;    0.000;9038.47996
 609.63; 8905.100;  -44.390;    0.000;8949.48961
 609.90; 8905.640;  -36.930;    0.000;8942.56965
 610.18; 8835.800;  -28.100;    0.000;8863.89981
 610.45; 8778.200;  -47.230;    0.000;8825.43019
 610.73; 8757.180;  -40.590;    0.000;8797.76969
 611.00; 8666.840;  -28.940;    0.000;8695.77984
 611.28; 8568.300;  -41.770;    0.000;8610.06981
 611.55; 8515.100;  -47.150;    0.000;8562.24961
 611.83; 8535.300;  -42.410;    0.000;8577.70980
 612.10; 8464.500;  -47.870;    0.000;8512.37000
 612.38; 8376.860;  -43.330;    0.000;8420.19035
 612.65; 8376.120;  -38.760;    0.000;8414.88012
 612.93; 8255.860;  -46.440;    0.000;8302.30035
 613.20; 8262.060;  -40.520;    0.000;8302.57957
 613.48; 8231.640;  -42.680;    0.000;8274.31965
 613.75; 8143.360;  -49.140;    0.000;8192.49986
 614.03; 8136.120;  -35.760;    0.000;8171.88012
 614.30; 8020.780;  -49.280;    0.000;8070.05978
 614.57; 8035.060;  -47.070;    0.000;8082.13006
 614.85; 7974.200;  -40.710;    0.000;8014.91019
 615.12; 7977.700;  -40.130;    0.000;8017.83020
 615.40; 7903.400;  -45.350;    0.000;7948.74990
 615.67; 7849.360;  -41.120;    0.000;7890.47986
 615.95; 7771.680;  -42.780;    0.000;7814.46017
 616.22; 7723.720;  -39.310;    0.000;7763.03022
 616.50; 7675.700;  -36.190;    0.000;7711.89019
 616.77; 7608.060;  -39.210;    0.000;7647.27006
 617.05; 7588.320;  -40.130;    0.000;7628.44983
 617.32; 7553.580;  -41.510;    0.000;7595.09008
 617.59; 7450.680;  -39.270;    0.000;7489.95018
 617.87; 7347.540;  -46.440;    0.000;7393.98004
 618.14; 7249.320;  -39.430;    0.000;7288.74982
 618.42; 7217.640;  -48.270;    0.000;7265.91014
 618.69; 7129.420;  -42.280;    0.000;7171.69992
 618.97; 7047.200;  -50.160;    0.000;7097.36020
 619.24; 6968.320;  -46.580;    0.000;7014.89983
 619.51; 6866.040;  -37.650;    0.000;6903.69004
 619.79; 6779.940;  -40.650;    0.000;6820.58994
 620.06; 6651.820;  -36.470;    0.000;6688.28983
 620.34; 6455.140;  -42.190;    0.000;6497.33014
 620.61; 6411.660;  -36.840;    0.000;6448.50016
 620.88; 6344.280;  -52.820;    0.000;6397.09978
 621.16; 6456.000;  -38.520;    0.000;6494.52000
 621.43; 6557.860;  -40.070;    0.000;6597.92986
 621.71; 6533.520;  -40.440;    0.000;6573.96002
 621.98; 6464.300;  -42.920;    0.000;6507.21980
 622.25; 6378.640;  -42.110;    0.000;6420.75014
 622.53; 6387.500;  -43.900;    0.000;6431.40000
 622.80; 6326.940;  -48.280;    0.000;6375.21994
 623.08; 6252.280;  -48.410;    0.000;6300.68979
 623.35; 6253.600;  -42.130;    0.000;6295.73010
 623.62; 6200.940;  -41.870;    0.000;6242.80994
 623.90; 6156.340;  -44.400;    0.000;6200.73985
 624.17; 6132.020;  -45.690;    0.000;6177.71002
 624.44; 6051.880;  -37.610;    0.000;6089.48988
 624.72; 6040.000;  -46.110;    0.000;6086.11000
 624.99; 5985.920;  -46.780;    0.000;6032.69992
 625.26; 6068.760;  -48.840;    0.000;6117.59977
 625.54; 6070.980;  -34.500;    0.000;6105.47998
 625.81; 6102.820;  -39.400;    0.000;6142.21983
 626.09; 6062.020;  -42.260;    0.000;6104.28002
 626.36; 6053.660;  -45.970;    0.000;6099.63016
 626.63; 6063.880;  -41.260;    0.000;6105.13988
 626.91; 6040.660;  -45.500;    0.000;6086.16016
 627.18; 6009.260;  -36.360;    0.000;6045.61977
 627.45; 6010.480;  -44.240;    0.000;6054.71998
 627.73; 5946.760;  -37.730;    0.000;5984.48977
 628.00; 5932.620;  -50.130;    0.000;5982.75012
 628.27; 5886.940;  -40.330;    0.000;5927.26994
 628.55; 5923.700;  -44.630;    0.000;5968.33020
 628.82; 5850.560;  -48.870;    0.000;5899.43006
 629.09; 5878.280;  -49.850;    0.000;5928.12978
 629.37; 5829.300;  -48.480;    0.000;5877.77980
 629.64; 5856.800;  -48.280;    0.000;5905.07980
 629.91; 5817.500;  -45.620;    0.000;5863.12000
 630.18; 5757.780;  -51.830;    0.000;5809.60979
 630.46; 5790.420;  -36.850;    0.000;5827.26992
 630.73; 5722.260;  -39.860;    0.000;5762.11977
 631.00; 5739.980;  -47.900;    0.000;5787.87998
 631.28; 5688.840;  -49.040;    0.000;5737.87984
 631.55; 5680.460;  -43.760;    0.000;5724.21996
 631.82; 5679.620;  -44.290;    0.000;5723.91012
 632.10; 5676.940;  -39.890;    0.000;5716.82994
 632.37; 5638.560;  -43.540;    0.000;5682.10006
 632.64; 5617.180;  -40.290;    0.000;5657.47018
 632.91; 5590.720;  -40.250;    0.000;5630.97021
 633.19; 5577.120;  -41.720;    0.000;5618.84012
 633.46; 5522.720;  -51.730;    0.000;5574.45021
 633.73; 5521.540;  -38.000;    0.000;5559.54004
 634.01; 5492.600;  -45.300;    0.000;5537.90010
 634.28; 5488.940;  -41.280;    0.000;5530.21994
 634.55; 5478.020;  -41.150;    0.000;5519.17002
 634.82; 5470.340;  -47.530;    0.000;5517.86984
 635.10; 5433.540;  -39.270;    0.000;5472.81004
 635.37; 5420.600;  -47.120;    0.000;5467.72010
 635.64; 5416.640;  -54.360;    0.000;5471.00014
 635.91; 5415.860;  -48.020;    0.000;5463.87986
 636.19; 5403.400;  -44.600;    0.000;5447.99990
 636.46; 5392.980;  -48.800;    0.000;5441.77998
 636.73; 5458.800;  -39.570;    0.000;5498.36980
 637.00; 5433.640;  -42.160;    0.000;5475.80014
 637.28; 5409.340;  -50.320;    0.000;5459.65984
 637.55; 5395.240;  -43.570;    0.000;5438.81023
 637.82; 5362.520;  -46.760;    0.000;5409.28002
 638.09; 5257.100;  -39.060;    0.000;5296.16010
 638.37; 5199.980;  -46.470;    0.000;5246.44998
 638.64; 5160.240;  -47.310;    0.000;5207.55024
 638.91; 5183.860;  -41.310;    0.000;5225.16986
 639.18; 5114.960;  -43.470;    0.000;5158.42996
 639.46; 5090.060;  -48.390;    0.000;5138.45006
 639.73; 5035.100;  -39.780;    0.000;5074.88010
 640.00; 5010.520;  -45.530;    0.000;5056.05002
 640.27; 4986.900;  -46.560;    0.000;5033.45990
 640.54; 4947.400;  -51.660;    0.000;4999.05990
 640.82; 4887.140;  -48.560;    0.000;4935.70014
 641.09; 4901.120;  -48.760;    0.000;4949.88012
 641.36; 4840.740;  -46.200;    0.000;4886.94024
 641.63; 4814.940;  -55.600;    0.000;4870.53994
 641.91; 4749.760;  -46.400;    0.000;4796.15977
 642.18; 4701.200;  -52.210;    0.000;4753.41019
 642.45; 4605.180;  -52.490;    0.000;4657.67018
 642.72; 4589.700;  -53.360;    0.000;4643.06020
 642.99; 4540.280;  -36.570;    0.000;4576.84978
 643.26; 4534.040;  -47.650;    0.000;4581.69004
 643.54; 4498.960;  -40.710;    0.000;4539.66996
 643.81; 4457.280;  -55.630;    0.000;4512.90979
 644.08; 4426.360;  -47.930;    0.000;4474.28986
 644.35; 4424.260;  -48.850;    0.000;4473.10976
 644.62; 4338.880;  -49.000;    0.000;4387.87988
 644.90; 4320.160;  -43.820;    0.000;4363.98016
 645.17; 4292.980;  -51.370;    0.000;4344.34998
 645.44; 4287.860;  -47.130;    0.000;4334.98986
 645.71; 4239.080;  -49.200;    0.000;4288.28008
 645.98; 4207.680;  -46.690;    0.000;4254.37017
 646.25; 4195.920;  -46.940;    0.000;4242.85992
 646.53; 4146.500;  -50.370;    0.000;4196.87000
 646.80; 4115.060;  -42.780;    0.000;4157.84006
 647.07; 4089.540;  -59.170;    0.000;4148.71004
 647.34; 4086.220;  -47.590;    0.000;4133.80997
 647.61; 4064.000;  -45.690;    0.000;4109.69000
 647.88; 4075.200;  -38.410;    0.000;4113.60995
 648.15; 4021.900;  -51.900;    0.000;4073.79990
 648.43; 3958.080;  -52.460;    0.000;4010.54008
 648.70; 3952.100;  -50.870;    0.000;4002.97010
 648.97; 3905.160;  -44.090;    0.000;3949.24991
 649.24; 3903.060;  -46.570;    0.000;3949.63006
 649.51; 3854.940;  -56.440;    0.000;3911.37994
 649.78; 3836.440;  -48.510;    0.000;3884.94994
 650.05; 3853.400;  -44.310;    0.000;3897.70990
 650.32; 3876.460;  -21.090;    0.000;3897.54996
 650.60; 3777.560;  -47.320;    0.000;3824.88006
 650.87; 3736.920;  -50.640;    0.000;3787.55992
 651.14; 3713.240;  -54.410;    0.000;3767.64999
 651.41; 3701.300;  -54.500;    0.000;3755.80005
 651.68; 3694.640;  -50.510;    0.000;3745.14989
 651.95; 3679.260;  -48.670;    0.000;3727.93001
 652.22; 3641.060;  -53.000;    0.000;3694.06006
 652.49; 3589.580;  -58.480;    0.000;3648.06008
 652.76; 3586.700;  -53.540;    0.000;3640.23995
 653.03; 3590.500;  -48.460;    0.000;3638.96000
 653.31; 3542.280;  -50.850;    0.000;3593.13003
 653.58; 3509.020;  -50.660;    0.000;3559.68002
 653.85; 3507.940;  -53.770;    0.000;3561.70994
 654.12; 3471.800;  -52.700;    0.000;3524.50005
 654.39; 3440.840;  -49.080;    0.000;3489.92009
 654.66; 3452.460;  -44.350;    0.000;3496.80996
 654.93; 3432.180;  -40.020;    0.000;3472.19993
 655.20; 3400.340;  -51.700;    0.000;3452.04009
 655.47; 3357.720;  -52.020;    0.000;3409.73997
 655.74; 3377.800;  -46.170;    0.000;3423.97005
 656.01; 3312.100;  -53.270;    0.000;3365.37010
 656.28; 3298.720;  -53.920;    0.000;3352.63997
 656.55; 3299.040;  -44.780;    0.000;3343.82004
 656.83; 3255.040;  -54.700;    0.000;3309.74004
 657.10; 3234.100;  -54.950;    0.000;3289.05010
 657.37; 3214.740;  -45.470;    0.000;3260.20999
 657.64; 3186.360;  -50.040;    0.000;3236.40011
 657.91; 3176.420;  -54.530;    0.000;3230.94992
 658.18; 3156.360;  -48.090;    0.000;3204.45011
 658.45; 3149.780;  -53.800;    0.000;3203.58003
 658.72; 3132.000;  -49.560;    0.000;3181.56000
 658.99; 3093.880;  -52.810;    0.000;3146.68988
 659.26; 3116.860;  -44.460;    0.000;3161.32011
 659.53; 3035.720;  -53.390;    0.000;3089.10997
 659.80; 3012.800;  -50.980;    0.000;3063.78005
 660.07; 3019.160;  -41.400;    0.000;3060.55991
 660.34; 3016.860;  -52.590;    0.000;3069.45011
 660.61; 2957.000;  -54.010;    0.000;3011.01000
 660.88; 2977.580;  -49.010;    0.000;3026.59008
 661.15; 2977.660;  -45.510;    0.000;3023.16991
 661.42; 2926.300;  -52.000;    0.000;2978.30005
 661.69; 2896.420;  -51.660;    0.000;2948.07992
 661.96; 2895.800;  -53.540;    0.000;2949.34005
 662.23; 2888.000;  -54.210;    0.000;2942.21000
 662.50; 2882.920;  -55.200;    0.000;2938.11992
 662.77; 2818.220;  -57.340;    0.000;2875.55997
 663.04; 2797.740;  -55.460;    0.000;2853.19999
 663.31; 2803.220;  -53.020;    0.000;2856.23997
 663.58; 2763.120;  -53.790;    0.000;2816.91012
 663.85; 2774.560;  -48.190;    0.000;2822.75006
 664.12; 2742.700;  -49.170;    0.000;2791.86995
 664.39; 2722.380;  -57.490;    0.000;2779.86988
 664.66; 2692.140;  -56.420;    0.000;2748.55989
 664.93; 2655.520;  -57.810;    0.000;2713.33002
 665.20; 2689.200;  -45.510;    0.000;2734.70995
 665.47; 2654.120;  -47.500;    0.000;2701.62012
 665.74; 2610.360;  -56.240;    0.000;2666.60011
 666.01; 2621.380;  -52.970;    0.000;2674.34988
 666.28; 2598.700;  -53.610;    0.000;2652.30995
 666.55; 2583.200;  -48.340;    0.000;2631.53995
 666.82; 2548.740;  -58.560;    0.000;2607.29999
 667.09; 2536.640;  -54.770;    0.000;2591.40989
 667.36; 2493.580;  -51.960;    0.000;2545.54008
 667.63; 2514.680;  -48.120;    0.000;2562.79993
 667.90; 2498.580;  -50.500;    0.000;2549.08008
 668.16; 2457.220;  -51.760;    0.000;2508.97997
 668.43; 2423.780;  -52.290;    0.000;2476.07003
 668.70; 2421.260;  -50.190;    0.000;2471.45001
 668.97; 2432.260;  -54.900;    0.000;2487.16001
 669.24; 2405.460;  -50.670;    0.000;2456.12996
 669.51; 2419.140;  -47.280;    0.000;2466.41989
 669.78; 2361.020;  -57.020;    0.000;2418.04002
 670.05; 2346.320;  -53.780;    0.000;2400.10007
 670.32; 2318.980;  -47.630;    0.000;2366.60998
 670.59; 2277.580;  -59.380;    0.000;2336.96008
 670.86; 2280.460;  -54.490;    0.000;2334.94996
 671.13; 2238.140;  -53.370;    0.000;2291.50989
 671.40; 2255.020;  -52.030;    0.000;2307.05002
 671.67; 2263.000;  -50.040;    0.000;2313.04000
 671.93; 2211.260;  -55.350;    0.000;2266.61001
 672.20; 2191.420;  -58.000;    0.000;2249.41992
 672.47; 2209.600;  -49.890;    0.000;2259.49010
 672.74; 2159.720;  -48.940;    0.000;2208.65997
 673.01; 2159.980;  -62.990;    0.000;2222.96998
 673.28; 2152.100;  -53.910;    0.000;2206.01010
 673.55; 2149.380;  -54.610;    0.000;2203.98988
 673.82; 2087.580;  -51.100;    0.000;2138.68008
 674.09; 2079.280;  -52.250;    0.000;2131.53003
 674.35; 2062.740;  -58.740;    0.000;2121.47999
 674.62; 2064.440;  -44.900;    0.000;2109.33994
 674.89; 2043.160;  -53.110;    0.000;2096.27003
 675.16; 2034.120;  -47.910;    0.000;2082.02999
 675.43; 2041.200;  -52.020;    0.000;2093.21995
 675.70; 2044.720;  -36.370;    0.000;2081.08997
 675.97; 1982.060;  -55.340;    0.000;2037.40006
 676.24; 1998.920;  -47.960;    0.000;2046.88004
 676.50; 1956.000;  -59.330;    0.000;2015.33000
 676.77; 1922.780;  -60.020;    0.000;1982.80003
 677.04; 1935.160;  -47.110;    0.000;1982.27003
 677.31; 1900.200;  -55.920;    0.000;1956.11995
 677.58; 1891.180;  -52.120;    0.000;1943.30005
 677.85; 1877.320;  -48.990;    0.000;1926.30995
 678.12; 1868.000;  -52.160;    0.000;1920.16000
 678.38; 1873.600;  -54.140;    0.000;1927.73997
 678.65; 1840.580;  -60.680;    0.000;1901.25996
 678.92; 1834.160;  -53.340;    0.000;1887.50003
 679.19; 1829.620;  -39.870;    0.000;1869.48999
 679.46; 1819.100;  -46.760;    0.000;1865.85997
 679.73; 1780.040;  -59.180;    0.000;1839.22004
 679.99; 1785.060;  -56.270;    0.000;1841.33006
 680.26; 1761.600;  -54.520;    0.000;1816.11998
 680.53; 1748.900;  -59.650;    0.000;1808.55003
 680.80; 1738.120;  -56.750;    0.000;1794.87000
 681.07; 1738.540;  -55.340;    0.000;1793.88004
 681.33; 1717.360;  -54.670;    0.000;1772.02998
 681.60; 1719.320;  -52.230;    0.000;1771.54995
 681.87; 1688.540;  -54.620;    0.000;1743.16004
 682.14; 1642.440;  -52.270;    0.000;1694.70994
 682.41; 1662.600;  -57.990;    0.000;1720.58998
 682.67; 1649.120;  -50.450;    0.000;1699.57000
 682.94; 1608.960;  -59.360;    0.000;1668.31996
 683.21; 1613.720;  -53.700;    0.000;1667.41997
 683.48; 1601.720;  -55.450;    0.000;1657.16997
 683.75; 1616.800;  -47.950;    0.000;1664.75005
 684.01; 1592.560;  -46.370;    0.000;1638.93006
 684.28; 1573.820;  -57.410;    0.000;1631.22995
 684.55; 1579.420;  -54.400;    0.000;1633.82005
 684.82; 1531.240;  -62.610;    0.000;1593.84999
 685.09; 1536.820;  -45.320;    0.000;1582.13995
 685.35; 1549.480;  -50.950;    0.000;1600.42998
 685.62; 1527.440;  -53.810;    0.000;1581.24994
 685.89; 1505.680;  -50.790;    0.000;1556.47005
 686.16; 1468.580;  -60.890;    0.000;1529.46996
 686.42; 1494.620;  -53.860;    0.000;1548.48000
 686.69; 1475.340;  -49.770;    0.000;1525.10997
 686.96; 1456.100;  -58.350;    0.000;1514.44997
 687.23; 1454.500;  -53.370;    0.000;1507.87000
 687.49; 1452.920;  -46.350;    0.000;1499.27004
 687.76; 1422.800;  -56.190;    0.000;1478.99005
 688.03; 1414.000;  -57.270;    0.000;1471.27000
 688.30; 1402.280;  -63.910;    0.000;1466.19003
 688.56; 1393.780;  -49.760;    0.000;1443.54003
 688.83; 1363.480;  -58.260;    0.000;1421.73998
 689.10; 1369.120;  -59.880;    0.000;1429.00000
 689.37; 1329.440;  -60.250;    0.000;1389.68994
 689.63; 1359.120;  -58.120;    0.000;1417.23999
 689.90; 1341.200;  -42.960;    0.000;1384.15995
 690.17; 1345.940;  -57.170;    0.000;1403.10994
 690.44; 1290.620;  -53.100;    0.000;1343.71999
 690.70; 1316.080;  -64.370;    0.000;1380.44996
 690.97; 1289.000;  -52.060;    0.000;1341.06000
 691.24; 1290.780;  -45.640;    0.000;1336.42003
 691.50; 1272.960;  -63.810;    0.000;1336.76996
 691.77; 1253.620;  -61.380;    0.000;1315.00000
 692.04; 1237.940;  -50.390;    0.000;1288.32994
 692.30; 1237.740;  -61.100;    0.000;1298.83999
 692.57; 1210.900;  -55.730;    0.000;1266.63002
 692.84; 1202.400;  -60.990;    0.000;1263.39003
 693.11; 1206.400;  -51.860;    0.000;1258.26003
 693.37; 1189.540;  -50.850;    0.000;1240.39004
 693.64; 1150.420;  -63.550;    0.000;1213.97004
 693.91; 1161.100;  -52.450;    0.000;1213.54998
 694.17; 1152.760;  -52.150;    0.000;1204.91001
 694.44; 1151.060;  -55.600;    0.000;1206.66006
 694.71; 1118.800;  -66.220;    0.000;1185.02005
 694.97; 1142.800;  -60.180;    0.000;1202.98005
 695.24; 1081.420;  -60.420;    0.000;1141.84004
 695.51; 1090.640;  -64.250;    0.000;1154.89001
 695.77; 1098.080;  -53.070;    0.000;1151.14996
 696.04; 1074.180;  -57.450;    0.000;1131.63005
 696.31; 1071.820;  -55.850;    0.000;1127.66994
 696.57; 1067.520;  -48.360;    0.000;1115.88002
 696.84; 1053.060;  -56.540;    0.000;1109.60006
 697.11; 1049.080;  -49.450;    0.000;1098.52996
 697.37; 1020.280;  -52.390;    0.000;1072.67003
 697.64; 1010.740;  -50.550;    0.000;1061.28999
 697.91;  992.240;  -63.040;    0.000;1055.27999
 698.17;  998.500;  -58.460;    0.000;1056.96000
 698.44;  987.760;  -54.420;    0.000;1042.18001
 698.71;  971.460;  -60.630;    0.000;1032.09002
 698.97;  948.020;  -56.130;    0.000;1004.15002
 699.24;  961.680;  -57.190;    0.000;1018.86999
 699.50;  918.940;  -63.610;    0.000;982.55000
 699.77;  918.420;  -63.480;    0.000;981.89998
 700.04;  888.580;  -56.390;    0.000;944.97002
 700.30;  904.640;  -57.580;    0.000;962.22002
 700.57;  871.900;  -57.160;    0.000;929.06002
 700.84;  874.600;  -52.700;    0.000;927.29998
 701.10;  850.000;  -55.650;    0.000;905.65000
 701.37;  854.440;  -57.060;    0.000;911.50000
 701.63;  825.800;  -60.840;    0.000;886.63999
 701.90;  847.760;  -55.460;    0.000;903.22001
 702.17;  828.420;  -46.530;    0.000;874.94998
 702.43;  807.440;  -56.900;    0.000;864.34000
 702.70;  816.800;  -43.080;    0.000;859.87999
 702.96;  781.060;  -57.550;    0.000;838.61000
 703.23;  758.960;  -63.900;    0.000;822.86002
 703.50;  747.160;  -57.740;    0.000;804.89997
 703.76;  764.720;  -60.140;    0.000;824.85997
 704.03;  740.580;  -62.000;    0.000;802.58002
 704.29;  730.340;  -56.620;    0.000;786.96003
 704.56;  717.740;  -66.340;    0.000;784.07999
 704.82;  701.800;  -61.140;    0.000;762.93999
 705.09;  722.560;  -50.240;    0.000;772.80000
 705.36;  670.880;  -63.730;    0.000;734.61000
 705.62;  722.480;  -45.100;    0.000;767.57998
 705.89;  652.620;  -57.710;    0.000;710.32999
 706.15;  635.060;  -52.660;    0.000;687.72000
 706.42;  644.400;  -49.750;    0.000;694.15002
 706.68;  615.020;  -59.540;    0.000;674.56002
 706.95;  615.120;  -55.380;    0.000;670.50000
 707.21;  597.900;  -63.590;    0.000;661.49002
 707.48;  590.360;  -61.770;    0.000;652.12999
 707.75;  597.040;  -54.600;    0.000;651.63998
 708.01;  577.860;  -64.580;    0.000;642.43999
 708.28;  568.360;  -55.470;    0.000;623.82999
 708.54;  538.120;  -64.490;    0.000;602.60999
 708.81;  559.000;  -52.630;    0.000;611.63000
 709.07;  548.320;  -58.430;    0.000;606.75001
 709.34;  529.480;  -63.150;    0.000;592.62998
 709.60;  504.540;  -59.760;    0.000;564.30001
 709.87;  557.300;  -51.730;    0.000;609.02999
 710.13;  502.420;  -58.250;    0.000;560.67001
 710.40;  495.500;  -67.870;    0.000;563.37000
 710.66;  498.700;  -58.170;    0.000;556.87001
 710.93;  490.340;  -58.390;    0.000;548.73000
 711.19;  465.740;  -60.660;    0.000;526.39999
 711.46;  484.280;  -53.110;    0.000;537.39000
 711.72;  480.500;  -53.100;    0.000;533.60000
 711.99;  473.020;  -64.700;    0.000;537.71999
 712.25;  464.080;  -54.480;    0.000;518.55999
 712.52;  459.760;  -51.400;    0.000;511.16001
 712.78;  452.940;  -54.830;    0.000;507.77000
 713.05;  437.620;  -61.310;    0.000;498.93000
 713.31;  429.180;  -54.880;    0.000;484.05999
 713.58;  423.640;  -56.790;    0.000;480.43002
 713.84;  430.760;  -53.100;    0.000;483.86001
 714.11;  424.560;  -62.430;    0.000;486.99000
 714.37;  418.520;  -52.180;    0.000;470.69999
 714.64;  403.460;  -54.400;    0.000;457.85999
 714.90;  414.000;  -53.310;    0.000;467.31000
 715.17;  397.560;  -57.550;    0.000;455.11000
 715.43;  397.260;  -50.260;    0.000;447.52001
 715.70;  389.100;  -55.710;    0.000;444.81001
 715.96;  393.900;  -54.690;    0.000;448.58999
 716.22;  376.320;  -61.380;    0.000;437.70001
 716.49;  379.080;  -58.790;    0.000;437.86999
 716.75;  360.680;  -62.550;    0.000;423.22999
 717.02;  386.440;  -58.140;    0.000;444.58000
 717.28;  365.900;  -63.690;    0.000;429.58999
 717.55;  366.040;  -62.720;    0.000;428.76001
 717.81;  382.640;  -56.110;    0.000;438.75002
 718.08;  351.560;  -58.860;    0.000;410.42000
 718.34;  358.420;  -65.190;    0.000;423.61002
 718.60;  357.200;  -51.960;    0.000;409.16001
 718.87;  346.420;  -58.480;    0.000;404.90001
 719.13;  352.140;  -63.390;    0.000;415.53001
 719.40;  360.900;  -57.650;    0.000;418.55000
 719.66;  333.500;  -60.260;    0.000;393.76000
 719.93;  349.220;  -56.900;    0.000;406.12000
 720.19;  339.000;  -67.380;    0.000;406.38000
 720.45;  348.380;  -62.750;    0.000;411.13000
 720.72;  343.400;  -57.950;    0.000;401.34999
 720.98;  357.400;  -55.200;    0.000;412.59999
 721.25;  323.280;  -64.310;    0.000;387.59000
 721.51;  342.900;  -68.290;    0.000;411.18999
 721.77;  328.380;  -60.350;    0.000;388.73000
 722.04;  351.060;  -45.030;    0.000;396.09000
 722.30;  351.220;  -55.770;    0.000;406.99000
 722.57;  337.260;  -60.430;    0.000;397.69001
 722.83;  340.040;  -62.410;    0.000;402.45001
 723.09;  336.540;  -64.170;    0.000;400.71001
 723.36;  331.520;  -64.180;    0.000;395.69999
 723.62;  325.280;  -58.620;    0.000;383.90000
 723.88;  333.380;  -56.860;    0.000;390.24001
 724.15;  340.100;  -56.520;    0.000;396.62001
 724.41;  332.840;  -63.620;    0.000;396.46000
 724.68;  319.860;  -62.790;    0.000;382.64999
 724.94;  349.960;  -49.670;    0.000;399.62999
 725.20;  337.340;  -59.760;    0.000;397.09999
 725.47;  325.520;  -61.790;    0.000;387.30999
 725.73;  322.720;  -57.560;    0.000;380.28000
 725.99;  312.980;  -62.280;    0.000;375.26001
 726.26;  335.560;  -48.740;    0.000;384.30000
 726.52;  303.860;  -52.300;    0.000;356.15998
 726.78;  320.560;  -64.050;    0.000;384.61000
 727.05;  324.060;  -58.610;    0.000;382.67000
 727.31;  319.180;  -65.490;    0.000;384.66999
 727.57;  313.460;  -61.120;    0.000;374.57999
 727.84;  313.980;  -54.090;    0.000;368.07001
 728.10;  311.640;  -57.090;    0.000;368.73001
 728.36;  319.440;  -62.130;    0.000;381.57000
 728.63;  313.020;  -64.770;    0.000;377.78999
 728.89;  294.040;  -68.210;    0.000;362.25001
 729.15;  301.780;  -60.940;    0.000;362.72000
 729.42;  292.320;  -64.380;    0.000;356.70000
 729.68;  312.800;  -59.120;    0.000;371.91999
 729.94;  291.900;  -61.710;    0.000;353.60999
 730.21;  290.160;  -63.750;    0.000;353.91000
 730.47;  297.520;  -65.420;    0.000;362.93999
 730.73;  298.020;  -62.120;    0.000;360.13999
 731.00;  281.260;  -57.710;    0.000;338.97001
 731.26;  292.580;  -55.830;    0.000;348.40999
 731.52;  291.480;  -65.480;    0.000;356.96001
 731.78;  266.720;  -64.150;    0.000;330.87000
 732.05;  271.920;  -63.760;    0.000;335.68001
 732.31;  286.340;  -66.150;    0.000;352.49000
 732.57;  299.660;  -62.040;    0.000;361.70000
 732.84;  267.820;  -65.060;    0.000;332.88000
 733.10;  267.120;  -61.680;    0.000;328.80000
 733.36;  263.100;  -65.560;    0.000;328.66000
 733.62;  271.960;  -68.590;    0.000;340.54999
 733.89;  267.980;  -60.690;    0.000;328.67001
 734.15;  273.820;  -62.020;    0.000;335.84001
 734.41;  274.720;  -59.170;    0.000;333.89000
 734.67;  281.120;  -65.610;    0.000;346.73000
 734.94;  261.420;  -64.100;    0.000;325.52001
 735.20;  279.820;  -64.260;    0.000;344.08001
 735.46;  254.200;  -61.760;    0.000;315.96000
 735.73;  256.080;  -62.280;    0.000;318.35999
 735.99;  255.760;  -63.580;    0.000;319.34000
 736.25;  247.640;  -65.330;    0.000;312.97000
 736.51;  226.280;  -64.780;    0.000;291.06000
 736.77;  251.260;  -59.870;    0.000;311.12999
 737.04;  239.500;  -62.400;    0.000;301.90000
 737.30;  234.180;  -60.030;    0.000;294.20999
 737.56;  249.580;  -57.690;    0.000;307.27000
 737.82;  245.500;  -62.400;    0.000;307.90000
 738.09;  215.260;  -61.080;    0.000;276.34000
 738.35;  230.140;  -65.060;    0.000;295.20000
 738.61;  232.060;  -60.770;    0.000;292.83000
 738.87;  231.820;  -61.660;    0.000;293.48001
 739.14;  219.680;  -59.450;    0.000;279.12999
 739.40;  230.460;  -66.620;    0.000;297.08001
 739.66;  226.980;  -65.480;    0.000;292.46000
 739.92;  225.840;  -64.110;    0.000;289.95000
 740.18;  208.440;  -58.910;    0.000;267.35000
 740.45;  215.060;  -66.570;    0.000;281.63000
 740.71;  210.760;  -64.190;    0.000;274.95000
 740.97;  221.100;  -61.620;    0.000;282.72001
 741.23;  194.920;  -64.440;    0.000;259.36000
 741.49;  206.340;  -61.870;    0.000;268.21000
 741.76;  191.700;  -69.670;    0.000;261.37000
 742.02;  198.760;  -70.580;    0.000;269.34000
 742.28;  202.840;  -67.810;    0.000;270.64999
 742.54;  193.060;  -67.320;    0.000;260.38000
 742.80;  187.100;  -66.940;    0.000;254.04001
 743.06;  203.500;  -60.220;    0.000;263.72000
 743.33;  202.800;  -60.250;    0.000;263.05000
 743.59;  186.000;  -71.210;    0.000;257.21000
 743.85;  179.920;  -63.280;    0.000;243.20000
 744.11;  180.640;  -65.520;    0.000;246.16000
 744.37;  188.720;  -63.300;    0.000;252.02000
 744.63;  188.080;  -62.430;    0.000;250.51000
 744.90;  171.020;  -61.300;    0.000;232.32000
 745.16;  169.160;  -61.400;    0.000;230.56001
 745.42;  174.880;  -69.410;    0.000;244.29001
 745.68;  175.080;  -62.770;    0.000;237.85000
 745.94;  186.060;  -54.740;    0.000;240.80000
 746.20;  180.000;  -62.940;    0.000;242.94000
 746.46;  177.600;  -58.490;    0.000;236.09001
 746.72;  177.900;  -60.020;    0.000;237.91999
 746.99;  160.300;  -59.340;    0.000;219.64000
 747.25;  178.180;  -54.110;    0.000;232.28999
 747.51;  142.240;  -63.240;    0.000;205.48001
 747.77;  167.000;  -66.010;    0.000;233.01000
 748.03;  151.340;  -65.590;    0.000;216.92999
 748.29;  149.160;  -63.300;    0.000;212.46000
 748.55;  154.140;  -63.610;    0.000;217.75000
 748.81;  148.260;  -65.400;    0.000;213.66000
 749.08;  150.140;  -61.140;    0.000;211.28000
 749.34;  149.580;  -61.020;    0.000;210.60000
 749.60;  144.540;  -61.090;    0.000;205.62999
 749.86;  152.280;  -62.460;    0.000;214.74000
 750.12;  125.280;  -58.080;    0.000;183.36000
 750.38;  149.040;  -66.740;    0.000;215.77999
 750.64;  111.460;  -64.990;    0.000;176.45000
 750.90;  150.480;  -61.010;    0.000;211.48999
 751.16;  115.440;  -66.030;    0.000;181.47000
 751.42;  133.460;  -63.820;    0.000;197.28001
 751.68;  132.740;  -57.490;    0.000;190.23001
 751.95;  113.280;  -66.360;    0.000;179.64000
 752.21;  107.200;  -68.570;    0.000;175.77000
 752.47;  119.720;  -59.310;    0.000;179.03000
 752.73;  103.540;  -72.150;    0.000;175.69000
 752.99;  102.020;  -62.330;    0.000;164.35000
 753.25;   99.060;  -68.210;    0.000;167.27000
 753.51;  105.940;  -66.540;    0.000;172.48000
 753.77;  103.120;  -65.250;    0.000;168.37000
 754.03;  104.440;  -63.310;    0.000;167.75000
 754.29;   80.900;  -69.830;    0.000;150.73000
 754.55;   97.160;  -73.220;    0.000;170.38000
 754.81;   95.260;  -65.730;    0.000;160.99001
 755.07;   98.640;  -60.480;    0.000;159.12000
 755.33;   97.600;  -68.640;    0.000;166.24000
 755.59;  102.660;  -69.750;    0.000;172.41000
 755.85;   93.500;  -61.550;    0.000;155.05000
 756.11;   95.860;  -66.180;    0.000;162.04000
 756.37;   79.460;  -68.200;    0.000;147.66000
 756.63;  116.880;  -52.880;    0.000;169.76000
 756.89;   74.600;  -77.540;    0.000;152.14000
 757.15;   92.760;  -67.220;    0.000;159.98000
 757.41;  108.180;  -51.850;    0.000;160.03000
 757.68;   69.800;  -69.940;    0.000;139.74001
 757.94;   82.140;  -61.100;    0.000;143.24000
 758.20;   88.340;  -60.850;    0.000;149.18999
 758.46;   62.700;  -65.120;    0.000;127.82000
 758.72;   76.860;  -70.550;    0.000;147.41000
 758.98;   70.460;  -58.450;    0.000;128.91000
 759.24;   84.600;  -62.840;    0.000;147.44000
 759.50;   74.780;  -60.370;    0.000;135.15000
 759.76;   82.700;  -58.150;    0.000;140.85000
 760.02;   77.280;  -64.840;    0.000;142.12000
 760.27;   76.800;  -64.360;    0.000;141.16000
 760.53;   69.460;  -61.770;    0.000;131.23000
 760.79;   72.140;  -58.420;    0.000;130.56000
 761.05;   67.800;  -59.730;    0.000;127.53000
 761.31;   78.640;  -68.970;    0.000;147.61000
 761.57;   71.860;  -64.760;    0.000;136.62000
 761.83;   61.260;  -63.850;    0.000;125.11000
 762.09;   36.040;  -60.800;    0.000;96.84000
 762.35;   56.460;  -73.160;    0.000;129.62000
 762.61;   62.340;  -65.790;    0.000;128.13000
 762.87;   72.620;  -64.790;    0.000;137.41000
 763.13;   44.180;  -65.200;    0.000;109.38000
 763.39;   64.120;  -58.510;    0.000;122.63000
 763.65;   58.340;  -65.790;    0.000;124.13000
 763.91;   62.360;  -68.850;    0.000;131.21000
 764.17;   54.700;  -61.550;    0.000;116.25000
 764.43;   50.360;  -65.120;    0.000;115.48000
 764.69;   42.320;  -67.690;    0.000;110.01000
 764.95;   58.100;  -65.290;    0.000;123.39000
 765.21;   37.760;  -64.710;    0.000;102.47000
 765.47;   46.240;  -60.070;    0.000;106.31000
 765.73;   43.440;  -63.090;    0.000;106.53000
 765.98;   53.660;  -62.060;    0.000;115.72000
 766.24;   34.400;  -71.710;    0.000;106.11000
 766.50;   42.220;  -70.390;    0.000;112.61000
 766.76;   43.200;  -59.140;    0.000;102.34000
 767.02;   34.020;  -67.650;    0.000;101.67000
 767.28;   32.920;  -62.770;    0.000;95.69000
 767.54;   33.980;  -65.130;    0.000;99.11000
 767.80;   39.240;  -67.980;    0.000;107.22001
 768.06;   48.160;  -57.150;    0.000;105.31000
 768.32;   31.960;  -55.090;    0.000;87.05000
 768.58;   40.580;  -72.460;    0.000;113.04000
 768.83;   24.960;  -67.770;    0.000;92.73000
 769.09;   36.100;  -63.610;    0.000;99.71000
 769.35;   31.160;  -63.310;    0.000;94.47000
 769.61;   24.020;  -65.500;    0.000;89.52000
 769.87;   27.380;  -60.230;    0.000;87.61000
 770.13;   34.260;  -65.920;    0.000;100.18000
 770.39;   10.720;  -67.330;    0.000;78.05000
 770.65;   41.200;  -65.630;    0.000;106.83000
 770.90;   18.880;  -71.040;    0.000;89.92000
 771.16;   25.680;  -65.650;    0.000;91.33000
 771.42;   23.020;  -60.610;    0.000;83.63000
 771.68;   22.420;  -72.120;    0.000;94.54000
 771.94;   27.600;  -64.270;    0.000;91.87000
 772.20;   24.740;  -71.570;    0.000;96.31000
 772.46;    7.260;  -70.450;    0.000;77.71000
 772.71;   18.220;  -62.790;    0.000;81.01000
 772.97;   45.700;  -61.450;    0.000;107.15000
 773.23;   24.820;  -66.880;    0.000;91.70000
 773.49;   32.300;  -61.900;    0.000;94.20000
 773.75;   20.400;  -66.690;    0.000;87.09000
 774.01;   10.420;  -66.730;    0.000;77.15000
 774.26;    6.540;  -70.110;    0.000;76.65000
 774.52;   25.800;  -57.630;    0.000;83.43000
 774.78;   18.900;  -67.870;    0.000;86.77000
 775.04;   38.340;  -57.380;    0.000;95.72000
 775.30;   13.860;  -70.620;    0.000;84.48000
 775.56;   -5.520;  -62.130;    0.000;56.61000
 775.81;   18.580;  -62.360;    0.000;80.94000
 776.07;    5.140;  -63.320;    0.000;68.46000
 776.33;   14.860;  -66.810;    0.000;81.67000
 776.59;    1.900;  -72.310;    0.000;74.21000
 776.85;    6.800;  -72.330;    0.000;79.13000
 777.10;    9.780;  -66.910;    0.000;76.69000
 777.36;    2.060;  -70.350;    0.000;72.41000
 777.62;   20.040;  -66.270;    0.000;86.31000
 777.88;    8.800;  -66.450;    0.000;75.25000
 778.14;    3.080;  -67.860;    0.000;70.94000
 778.39;    6.060;  -69.450;    0.000;75.51000
 778.65;    6.360;  -66.470;    0.000;72.83000
 778.91;   -2.880;  -72.700;    0.000;69.82000
 779.17;    7.120;  -59.560;    0.000;66.68000
 779.42;   -1.100;  -73.390;    0.000;72.29000
 779.68;    0.240;  -69.660;    0.000;69.90000
 779.94;    3.040;  -68.700;    0.000;71.74000
 780.20;   -8.240;  -73.010;    0.000;64.77000
 780.46;   -6.280;  -73.730;    0.000;67.45000
 780.71;   19.120;  -65.500;    0.000;84.62000
 780.97;    5.420;  -67.720;    0.000;73.14000
 781.23;    1.380;  -68.470;    0.000;69.85000
 781.49;    5.200;  -65.070;    0.000;70.27000
 781.74;  -12.440;  -62.670;    0.000;50.23000
 782.00;  -11.580;  -71.050;    0.000;59.47000
 782.26;    1.640;  -61.940;    0.000;63.58000
 782.52;    5.180;  -67.400;    0.000;72.58000
 782.77;   -3.600;  -63.130;    0.000;59.53000
 783.03;  -10.920;  -72.070;    0.000;61.15000
 783.29;  -10.320;  -67.470;    0.000;57.15000
 783.54;   -3.140;  -69.510;    0.000;66.37000
 783.80;    3.460;  -61.520;    0.000;64.98000
 784.06;   -5.900;  -72.390;    0.000;66.49000
 784.32;   -9.720;  -69.850;    0.000;60.13000
 784.57;   30.320;  -57.390;    0.000;87.71000
 784.83;  -24.980;  -75.500;    0.000;50.52000
 785.09;  -19.420;  -75.670;    0.000;56.25000
 785.34;  -19.560;  -67.830;    0.000;48.27000
 785.60;    7.800;  -68.990;    0.000;76.79000
 785.86;  -17.700;  -65.770;    0.000;48.07000
 786.12;   -2.600;  -64.000;    0.000;61.40000
 786.37;    7.560;  -58.590;    0.000;66.15000
 786.63;  -25.700;  -70.160;    0.000;44.46000
 786.89;   -4.100;  -64.130;    0.000;60.03000
 787.14;    1.120;  -68.600;    0.000;69.72000
 787.40;  -17.860;  -65.120;    0.000;47.26000
 787.66;   -2.840;  -69.570;    0.000;66.73000
 787.91;    8.680;  -54.980;    0.000;63.66000
 788.17;  -26.100;  -74.240;    0.000;48.14000
 788.43;  -26.420;  -65.670;    0.000;39.25000
 788.68;  -23.800;  -66.800;    0.000;43.00000
 788.94;  -17.380;  -64.460;    0.000;47.08000
 789.20;   -4.580;  -67.690;    0.000;63.11000
 789.45;  -24.900;  -75.860;    0.000;50.96000
 789.71;  -27.020;  -77.270;    0.000;50.25000
 789.97;  -16.820;  -62.650;    0.000;45.83000
 790.22;  -22.580;  -70.660;    0.000;48.08000
 790.48;  -35.560;  -66.280;    0.000;30.72000
 790.74;   -5.220;  -69.070;    0.000;63.85000
 790.99;  -16.440;  -67.310;    0.000;50.87000
 791.25;  -31.660;  -72.320;    0.000;40.66000
 791.51;  -30.200;  -69.110;    0.000;38.91000
 791.76;   -6.880;  -60.800;    0.000;53.92000
 792.02;  -23.840;  -69.930;    0.000;46.09000
 792.27;   -9.080;  -63.120;    0.000;54.04000
 792.53;  -16.420;  -67.640;    0.000;51.22000
 792.79;  -15.800;  -74.900;    0.000;59.10000
 793.04;  -27.040;  -66.410;    0.000;39.37000
 793.30;  -24.220;  -72.290;    0.000;48.07000
 793.56;  -26.760;  -64.850;    0.000;38.09000
 793.81;   -6.600;  -64.930;    0.000;58.33000
 794.07;  -38.020;  -78.310;    0.000;40.29000
 794.32;  -18.320;  -65.850;    0.000;47.53000
 794.58;  -36.720;  -64.290;    0.000;27.57000
 794.84;  -22.200;  -73.370;    0.000;51.17000
 795.09;  -22.100;  -63.290;    0.000;41.19000
 795.35;  -11.080;  -68.300;    0.000;57.22000
 795.60;  -24.400;  -67.650;    0.000;43.25000
 795.86;  -28.000;  -68.830;    0.000;40.83000
 796.12;  -45.100;  -75.900;    0.000;30.80000
 796.37;  -28.160;  -66.550;    0.000;38.39000
 796.63;  -23.740;  -68.700;    0.000;44.96000
 796.88;  -23.740;  -72.950;    0.000;49.21000
 797.14;  -26.020;  -65.230;    0.000;39.21000
 797.39;  -20.520;  -61.460;    0.000;40.94000
 797.65;  -31.660;  -68.500;    0.000;36.84000
 797.91;  -30.440;  -79.560;    0.000;49.12000
 798.16;  -27.980;  -69.310;    0.000;41.33000
 798.42;  -28.440;  -73.060;    0.000;44.62000
 798.67;  -33.120;  -75.160;    0.000;42.04000
 798.93;  -30.440;  -72.820;    0.000;42.38000
 799.18;  -37.120;  -69.660;    0.000;32.54000
 799.44;  -35.680;  -74.410;    0.000;38.73000
 799.69;  -31.440;  -72.570;    0.000;41.13000
 799.95;  -41.640;  -76.750;    0.000;35.11000
 800.21;  -36.600;  -71.490;    0.000;34.89000
 800.46;   -4.220;  -60.670;    0.000;56.45000
 800.72;  -37.020;  -74.550;    0.000;37.53000
 800.97;  -37.280;  -66.080;    0.000;28.80000
 801.23;  -35.920;  -69.050;    0.000;33.13000
 801.48;  -47.660;  -80.230;    0.000;32.57000
 801.74;  -28.620;  -70.650;    0.000;42.03000
 801.99;  -18.120;  -69.570;    0.000;51.45000
 802.25;  -35.060;  -68.120;    0.000;33.06000
 802.50;  -23.640;  -69.760;    0.000;46.12000
 802.76;  -25.220;  -68.390;    0.000;43.17000
 803.01;  -37.140;  -73.710;    0.000;36.57000
 803.27;  -43.200;  -68.660;    0.000;25.46000
 803.52;  -22.900;  -67.380;    0.000;44.48000
 803.78;  -24.620;  -65.800;    0.000;41.18000
 804.03;  -26.740;  -64.730;    0.000;37.99000
 804.29;  -57.640;  -73.690;    0.000;16.05000
 804.54;  -33.860;  -72.140;    0.000;38.28000
 804.80;  -31.640;  -70.710;    0.000;39.07000
 805.05;  -37.600;  -78.700;    0.000;41.10000
 805.31;  -29.240;  -64.860;    0.000;35.62000
 805.56;  -14.880;  -61.820;    0.000;46.94000
 805.82;  -42.960;  -75.510;    0.000;32.55000
 806.07;  -22.100;  -71.590;    0.000;49.49000
 806.33;  -45.420;  -63.430;    0.000;18.01000
 806.58;  -55.160;  -76.420;    0.000;21.26000
 806.84;  -38.220;  -67.110;    0.000;28.89000
 807.09;  -42.000;  -70.810;    0.000;28.81000
 807.34;  -39.500;  -71.760;    0.000;32.26000
 807.60;  -30.400;  -72.510;    0.000;42.11000
 807.85;  -36.800;  -66.100;    0.000;29.30000
 808.11;  -52.060;  -65.900;    0.000;13.84000
 808.36;  -28.260;  -56.490;    0.000;28.23000
 808.62;  -38.280;  -69.320;    0.000;31.04000
 808.87;  -44.160;  -69.730;    0.000;25.57000
 809.13;  -39.640;  -72.860;    0.000;33.22000
 809.38;  -20.800;  -63.580;    0.000;42.78000
 809.63;  -53.820;  -74.820;    0.000;21.00000
 809.89;  -29.020;  -65.740;    0.000;36.72000
 810.14;  -34.400;  -75.130;    0.000;40.73000
 810.40;  -40.660;  -66.270;    0.000;25.61000
 810.65;  -31.400;  -71.440;    0.000;40.04000
 810.91;  -54.060;  -76.930;    0.000;22.87000
 811.16;  -22.880;  -65.800;    0.000;42.92000
 811.41;  -37.640;  -58.080;    0.000;20.44000
 811.67;  -46.380;  -71.200;    0.000;24.82000
 811.92;  -26.060;  -67.900;    0.000;41.84000
 812.18;  -47.320;  -70.620;    0.000;23.30000
 812.43;  -46.400;  -69.170;    0.000;22.77000
 812.68;  -41.300;  -72.250;    0.000;30.95000
 812.94;  -51.740;  -70.010;    0.000;18.27000
 813.19;  -46.460;  -73.690;    0.000;27.23000
 813.45;   -0.920;  -54.460;    0.000;53.54000
 813.70;  -47.440;  -73.310;    0.000;25.87000
 813.95;  -38.860;  -69.970;    0.000;31.11000
 814.21;  -51.120;  -72.990;    0.000;21.87000
 814.46;  -45.060;  -66.200;    0.000;21.14000
 814.71;  -49.500;  -77.220;    0.000;27.72000
 814.97;  -48.880;  -71.610;    0.000;22.73000
 815.22;  -36.180;  -73.660;    0.000;37.48000
 815.48;  -57.780;  -74.930;    0.000;17.15000
 815.73;  -30.440;  -70.320;    0.000;39.88000
 815.98;  -47.840;  -72.260;    0.000;24.42000
 816.24;  -51.860;  -73.690;    0.000;21.83000
 816.49;  -41.260;  -67.570;    0.000;26.31000
 816.74;  -41.340;  -66.060;    0.000;24.72000
 817.00;  -12.800;  -65.110;    0.000;52.31000
 817.25;  -33.080;  -64.360;    0.000;31.28000
 817.50;  -54.580;  -71.190;    0.000;16.61000
 817.76;  -47.520;  -73.870;    0.000;26.35000
 818.01;  -61.100;  -74.140;    0.000;13.04000
 818.26;  -55.240;  -77.660;    0.000;22.42000
 818.52;  -60.340;  -71.160;    0.000;10.82000
 818.77;  -46.100;  -70.450;    0.000;24.35000
 819.02;  132.700;   -1.560;    0.000;134.26000
 819.28;  -43.580;  -76.850;    0.000;33.27000
 819.53;  -62.600;  -76.810;    0.000;14.21000
 819.78;  -39.360;  -71.320;    0.000;31.96000
 820.04;  -52.180;  -76.120;    0.000;23.94000
 820.29;  -49.600;  -69.520;    0.000;19.92000
 820.54;  -41.000;  -71.830;    0.000;30.83000
 820.79;  -43.440;  -68.430;    0.000;24.99000
 821.05;  -70.200;  -73.180;    0.000; 2.98000
 821.30;  -24.000;  -60.740;    0.000;36.74000
 821.55;  -30.340;  -56.870;    0.000;26.53000
 821.81;  -48.440;  -72.250;    0.000;23.81000
 822.06;  -52.020;  -64.240;    0.000;12.22000
 822.31;  -21.700;  -64.090;    0.000;42.39000
 822.56;  -54.660;  -71.570;    0.000;16.91000
 822.82;  -51.340;  -74.760;    0.000;23.42000
 823.07;  -62.640;  -77.000;    0.000;14.36000
 823.32;  -57.120;  -86.470;    0.000;29.35000
 823.58;  -38.220;  -70.830;    0.000;32.61000
 823.83;  -45.340;  -68.440;    0.000;23.10000
 824.08;  -58.020;  -68.700;    0.000;10.68000
 824.33;  -63.800;  -78.080;    0.000;14.28000
 824.59;  -53.780;  -75.110;    0.000;21.33000
 824.84;  -55.200;  -73.820;    0.000;18.62000
 825.09;  -58.500;  -71.350;    0.000;12.85000
 825.34;  -54.980;  -78.610;    0.000;23.63000
 825.60;  -52.880;  -76.840;    0.000;23.96000
 825.85;  -56.720;  -72.800;    0.000;16.08000
 826.10;  -65.360;  -75.820;    0.000;10.46000
 826.35;  -46.020;  -78.380;    0.000;32.36000
 826.61;  -62.000;  -69.170;    0.000; 7.17000
 826.86;  -60.280;  -74.300;    0.000;14.02000
 827.11;  -67.900;  -73.210;    0.000; 5.31000
 827.36;  -55.680;  -79.440;    0.000;23.76000
 827.61;  -61.140;  -77.970;    0.000;16.83000
 827.87;  -50.240;  -73.890;    0.000;23.65000
 828.12;  -53.060;  -78.790;    0.000;25.73000
 828.37;  -43.480;  -76.470;    0.000;32.99000
 828.62;  -55.940;  -66.780;    0.000;10.84000
 828.88;  -40.260;  -68.950;    0.000;28.69000
 829.13;  -57.400;  -65.460;    0.000; 8.06000
 829.38;  -54.980;  -74.310;    0.000;19.33000
 829.63;  -62.580;  -76.380;    0.000;13.80000
 829.88;  -56.260;  -77.840;    0.000;21.58000
 830.14;  -59.200;  -68.400;    0.000; 9.20000
 830.39;  -46.580;  -67.150;    0.000;20.57000
 830.64;  -69.580;  -73.500;    0.000; 3.92000
 830.89;  -35.400;  -63.930;    0.000;28.53000
 831.14;  -56.920;  -65.130;    0.000; 8.21000
 831.39;  -63.100;  -80.200;    0.000;17.10000
 831.65;  -68.180;  -73.680;    0.000; 5.50000
 831.90;  -56.780;  -76.450;    0.000;19.67000
 832.15;  -57.800;  -74.460;    0.000;16.66000
 832.40;  -49.360;  -71.070;    0.000;21.71000
 832.65;  -57.920;  -65.920;    0.000; 8.00000
 832.90;  -63.400;  -71.420;    0.000; 8.02000
 833.16;  -66.860;  -70.920;    0.000; 4.06000
 833.41;  -53.100;  -68.270;    0.000;15.17000
 833.66;  -70.540;  -80.480;    0.000; 9.94000
 833.91;  -53.380;  -69.470;    0.000;16.09000
 834.16;  -60.780;  -74.480;    0.000;13.70000
 834.41;  -57.840;  -78.330;    0.000;20.49000
 834.66;  -54.880;  -73.780;    0.000;18.90000
 834.92;  -69.440;  -76.420;    0.000; 6.98000
 835.17;  -79.960;  -79.700;    0.000;-0.26000
 835.42;  -50.340;  -74.750;    0.000;24.41000
 835.67;  -52.780;  -67.620;    0.000;14.84000
 835.92;  -71.200;  -76.180;    0.000; 4.98000
 836.17;  -72.320;  -73.070;    0.000; 0.75000
 836.42;  -68.440;  -80.720;    0.000;12.28000
 836.67;  -69.020;  -72.910;    0.000; 3.89001
 836.93;  -57.280;  -67.370;    0.000;10.09000
 837.18;  -57.580;  -68.480;    0.000;10.90000
 837.43;  -56.700;  -77.570;    0.000;20.87000
 837.68;  -52.140;  -75.250;    0.000;23.11000
 837.93;  -69.860;  -77.620;    0.000; 7.76000
 838.18;  -72.860;  -72.720;    0.000;-0.14000
 838.43;  -68.960;  -77.330;    0.000; 8.37000
 838.68;  -60.620;  -75.400;    0.000;14.78000
 838.93;  -73.860;  -76.840;    0.000; 2.98000
 839.18;  -43.060;  -68.870;    0.000;25.81000
 839.43;  -51.040;  -68.920;    0.000;17.88000
 839.69;  -68.440;  -75.200;    0.000; 6.75999
 839.94;  -69.860;  -75.060;    0.000; 5.20000
 840.19;  -61.300;  -64.900;    0.000; 3.60000
 840.44;  -52.500;  -74.590;    0.000;22.09000
 840.69;  -57.480;  -67.680;    0.000;10.20000
 840.94;  -55.580;  -78.800;    0.000;23.22000
 841.19;  -46.900;  -66.410;    0.000;19.51000
 841.44;  -53.120;  -70.390;    0.000;17.27000
 841.69;  -51.020;  -69.710;    0.000;18.69000
 841.94;  -58.980;  -72.650;    0.000;13.67000
 842.19;  -73.460;  -74.280;    0.000; 0.82000
 842.44;  -63.320;  -72.650;    0.000; 9.33000
 842.69;  -55.860;  -68.330;    0.000;12.47000
 842.94;  -60.440;  -71.610;    0.000;11.17000
 843.19;  -80.740;  -78.190;    0.000;-2.55000
 843.44;  -66.800;  -74.710;    0.000; 7.91000
 843.69;  -72.440;  -76.520;    0.000; 4.07999
 843.94;   16.100;  -44.550;    0.000;60.65000
 844.19;  -77.640;  -77.910;    0.000; 0.27000
 844.44;  -43.200;  -71.510;    0.000;28.31000
 844.69;  -74.540;  -73.310;    0.000;-1.23000
 844.95;  -60.220;  -74.630;    0.000;14.41000
 845.20;  -74.860;  -82.130;    0.000; 7.27000
 845.45;  -54.120;  -68.000;    0.000;13.88000
 845.70;  -71.300;  -72.870;    0.000; 1.57000
 845.95;  -63.700;  -74.560;    0.000;10.86000
 846.20;  -67.020;  -71.730;    0.000; 4.71001
 846.45;  -66.080;  -77.390;    0.000;11.31000
 846.70;  -70.000;  -65.790;    0.000;-4.21000
 846.95;  -68.240;  -75.980;    0.000; 7.74001
 847.20;  -70.720;  -73.000;    0.000; 2.28000
 847.44;  -41.280;  -61.130;    0.000;19.85000
 847.69;  -73.100;  -79.180;    0.000; 6.08000
 847.94;  -61.420;  -71.950;    0.000;10.53000
 848.19;  -62.880;  -73.590;    0.000;10.71000
 848.44;  -56.340;  -70.960;    0.000;14.62000
 848.69;  -75.860;  -73.670;    0.000;-2.19000
 848.94;  -54.660;  -69.750;    0.000;15.09000
 849.19;  -72.000;  -80.480;    0.000; 8.48000
 849.44;  -55.720;  -73.190;    0.000;17.47000
 849.69;  -58.720;  -78.510;    0.000;19.79000
 849.94;  -69.080;  -72.940;    0.000; 3.86000
 850.19;  -51.880;  -63.930;    0.000;12.05000
 850.44;  -57.500;  -76.610;    0.000;19.11000
 850.69;  -74.380;  -69.690;    0.000;-4.68999
 850.94;  -68.740;  -77.600;    0.000; 8.86000
 851.19;  -72.720;  -72.230;    0.000;-0.49000
 851.44;  -69.720;  -76.080;    0.000; 6.36000
 851.69;  -78.980;  -76.040;    0.000;-2.94000
 851.94;  -65.780;  -79.190;    0.000;13.41000
 852.19;  -68.060;  -76.300;    0.000; 8.24001
 852.44;  -69.380;  -74.760;    0.000; 5.38000
 852.68;  -65.040;  -75.620;    0.000;10.58000
 852.93;  -58.280;  -70.590;    0.000;12.31000
 853.18;  -75.100;  -77.250;    0.000; 2.15000
 853.43;  -74.860;  -76.120;    0.000; 1.26000
 853.68;  -69.880;  -77.810;    0.000; 7.93000
 853.93;  -55.800;  -67.550;    0.000;11.75000
 854.18;  -53.360;  -66.630;    0.000;13.27000
 854.43;  -59.180;  -77.970;    0.000;18.79000
 854.68;  -71.060;  -75.490;    0.000; 4.43000
 854.93;  -45.740;  -66.450;    0.000;20.71000
 855.18;  -70.220;  -74.650;    0.000; 4.43000
 855.42;  -55.200;  -72.230;    0.000;17.03000
 855.67;  -63.040;  -71.310;    0.000; 8.27000
 855.92;  -69.500;  -74.510;    0.000; 5.01000
 856.17;  -60.300;  -67.440;    0.000; 7.14000
 856.42;  -54.180;  -76.160;    0.000;21.98000
 856.67;  -66.860;  -77.970;    0.000;11.11000
 856.92;  -57.620;  -79.620;    0.000;22.00000
 857.17;  -74.960;  -77.870;    0.000; 2.91000
 857.41;  -67.380;  -71.030;    0.000; 3.65000
 857.66;  -65.020;  -73.290;    0.000; 8.27000
 857.91;  -68.280;  -73.290;    0.000; 5.01000
 858.16;  -75.140;  -82.520;    0.000; 7.38000
 858.41;  -61.580;  -72.320;    0.000;10.74000
 858.66;  -67.160;  -69.160;    0.000; 2.00000
 858.91;  -58.700;  -77.930;    0.000;19.23000
 859.15;  -75.960;  -76.870;    0.000; 0.91000
 859.40;  -30.180;  -68.270;    0.000;38.09000
 859.65;  -77.780;  -84.460;    0.000; 6.68000
 859.90;  -67.500;  -79.390;    0.000;11.89000
 860.15;  -75.860;  -69.890;    0.000;-5.97000
 860.40;  -54.220;  -69.890;    0.000;15.67000
 860.64;  -59.880;  -70.370;    0.000;10.49000
 860.89;  -70.100;  -74.750;    0.000; 4.65000
 861.14;  -76.500;  -70.090;    0.000;-6.41000
 861.39;  -60.240;  -69.870;    0.000; 9.63000
 861.64;  -90.260;  -75.520;    0.000;-14.74001
 861.88;  -46.300;  -72.380;    0.000;26.08000
 862.13;  -72.600;  -76.230;    0.000; 3.63000
 862.38;  -68.480;  -72.450;    0.000; 3.96999
 862.63;  -78.220;  -74.260;    0.000;-3.96000
 862.88;  -68.320;  -69.530;    0.000; 1.21000
 863.12;  -62.000;  -67.960;    0.000; 5.96000
 863.37;  -61.240;  -71.990;    0.000;10.75000
 863.62;  -70.520;  -77.420;    0.000; 6.90000
 863.87;  -84.160;  -78.180;    0.000;-5.98000
 864.12;  -68.320;  -73.600;    0.000; 5.28000
 864.36;  -65.520;  -69.580;    0.000; 4.06001
 864.61;  -76.940;  -73.260;    0.000;-3.68000
 864.86;  -67.220;  -78.780;    0.000;11.56000
 865.11;  -55.840;  -68.440;    0.000;12.60000
 865.35;  -54.660;  -68.810;    0.000;14.15000
 865.60;  -58.680;  -71.930;    0.000;13.25000
 865.85;  -58.200;  -72.600;    0.000;14.40000
 866.10;  -81.020;  -75.090;    0.000;-5.93000
 866.34;  -58.360;  -74.150;    0.000;15.79000
 866.59;  -51.840;  -67.290;    0.000;15.45000
 866.84;  -64.080;  -74.630;    0.000;10.55000
 867.09;  -73.120;  -80.380;    0.000; 7.25999
 867.33;  -73.800;  -74.040;    0.000; 0.24000
 867.58;  -66.240;  -71.470;    0.000; 5.23000
 867.83;  -75.060;  -74.280;    0.000;-0.78000
 868.08;  -67.480;  -76.090;    0.000; 8.60999
 868.32;  -67.680;  -68.010;    0.000; 0.33000
 868.57;  -80.120;  -81.500;    0.000; 1.38000
 868.82;  -51.860;  -72.920;    0.000;21.06000
 869.07;  -82.760;  -81.160;    0.000;-1.60000
 869.31;  -53.480;  -69.490;    0.000;16.01000
 869.56;  -84.840;  -84.440;    0.000;-0.39999
 869.81;  -66.880;  -83.050;    0.000;16.17001
 870.05;  -75.820;  -79.990;    0.000; 4.17000
 870.30;  -48.220;  -76.070;    0.000;27.85000
 870.55;  -68.000;  -69.170;    0.000; 1.17000
 870.80;  -54.960;  -74.860;    0.000;19.90000
 871.04;  -72.500;  -69.280;    0.000;-3.22000
 871.29;  -66.200;  -73.970;    0.000; 7.77000
 871.54;  -71.120;  -72.650;    0.000; 1.53000
 871.78;  -82.040;  -75.650;    0.000;-6.39000
 872.03;  -62.320;  -76.460;    0.000;14.14000
 872.28;  -51.380;  -75.610;    0.000;24.23000
 872.52;  -66.120;  -63.940;    0.000;-2.18000
 872.77;  -62.040;  -68.280;    0.000; 6.24000
 873.02;  -73.640;  -78.210;    0.000; 4.57000
 873.26;  -67.340;  -75.910;    0.000; 8.57001
 873.51;  -55.480;  -67.060;    0.000;11.58000
 873.76;  -73.440;  -69.910;    0.000;-3.53000
 874.00;  -55.020;  -67.690;    0.000;12.67000
 874.25;  -68.780;  -75.800;    0.000; 7.02000
 874.50;  -90.400;  -80.100;    0.000;-10.30000
 874.74;  -70.920;  -73.380;    0.000; 2.46000
 874.99;  -85.460;  -77.690;    0.000;-7.77000
 875.24;  -42.480;  -71.860;    0.000;29.38000
 875.48;  -70.540;  -75.510;    0.000; 4.97000
 875.73;  -71.060;  -71.020;    0.000;-0.04000
 875.98;  -66.880;  -72.290;    0.000; 5.41000
 876.22;  -55.660;  -74.020;    0.000;18.36000
 876.47;  -65.480;  -73.180;    0.000; 7.70000
 876.71;  -51.440;  -66.650;    0.000;15.21000
 876.96;  -49.400;  -68.040;    0.000;18.64000
 877.21;  -62.740;  -80.560;    0.000;17.82000
 877.45;  -72.720;  -79.740;    0.000; 7.02000
 877.70;  -48.700;  -68.150;    0.000;19.45000
 877.95;  -48.640;  -71.420;    0.000;22.78000
 878.19;  -46.920;  -66.290;    0.000;19.37000
 878.44;  -71.420;  -73.630;    0.000; 2.21000
 878.68;  -24.420;  -58.820;    0.000;34.40000
 878.93;  -59.680;  -67.350;    0.000; 7.67000
 879.18;  -64.160;  -71.350;    0.000; 7.18999
 879.42;  -51.200;  -70.170;    0.000;18.97000
 879.67;  -71.140;  -73.850;    0.000; 2.71000
 879.91;  -57.480;  -67.960;    0.000;10.48000
 880.16;  -47.460;  -78.060;    0.000;30.60000
 880.40;  -60.800;  -65.360;    0.000; 4.56000
 880.65;  -43.080;  -71.790;    0.000;28.71000
 880.90;  -55.020;  -69.720;    0.000;14.70000
 881.14;  -56.760;  -65.060;    0.000; 8.30000
 881.39;  -71.840;  -72.620;    0.000; 0.78001
 881.63;  -66.440;  -68.980;    0.000; 2.54000
 881.88;  -52.420;  -70.790;    0.000;18.37000
 882.12;  -54.440;  -76.190;    0.000;21.75000
 882.37;  -56.540;  -72.930;    0.000;16.39000
 882.62;  -65.060;  -70.810;    0.000; 5.75000
 882.86;  -66.560;  -75.020;    0.000; 8.46000
 883.11;  -47.380;  -74.980;    0.000;27.60000
 883.35;  -55.060;  -71.230;    0.000;16.17000
 883.60;  -31.440;  -67.200;    0.000;35.76000
 883.84;  -59.560;  -73.170;    0.000;13.61000
 884.09;  -64.220;  -72.690;    0.000; 8.47000
 884.33;  -53.760;  -71.050;    0.000;17.29000
 884.58;  -53.220;  -70.670;    0.000;17.45000
 884.82;  -62.220;  -73.840;    0.000;11.62000
 885.07;  -48.020;  -75.950;    0.000;27.93000
 885.31;  -49.960;  -74.400;    0.000;24.44000
 885.56;  -34.660;  -65.280;    0.000;30.62000
 885.80;  -58.300;  -79.420;    0.000;21.12000
 886.05;  -60.760;  -70.300;    0.000; 9.54000
 886.29;  -46.880;  -61.930;    0.000;15.05000
 886.54;  -59.040;  -68.310;    0.000; 9.27000
 886.78;  -50.920;  -71.060;    0.000;20.14000
 887.03;  -50.020;  -67.810;    0.000;17.79000
 887.27;  -30.300;  -61.920;    0.000;31.62000
 887.52;  -42.560;  -70.160;    0.000;27.60000
 887.76;  -58.940;  -70.980;    0.000;12.04000
 888.01;  -39.520;  -70.270;    0.000;30.75000
 888.25;  -59.840;  -74.180;    0.000;14.34000
 888.50;  -42.360;  -70.460;    0.000;28.10000
 888.74;  -47.040;  -65.070;    0.000;18.03000
 888.99;  -42.680;  -75.410;    0.000;32.73000
 889.23;  -53.220;  -73.760;    0.000;20.54000
 889.48;  -48.680;  -67.050;    0.000;18.37000
 889.72;  -47.200;  -61.140;    0.000;13.94000
 889.97;  -42.860;  -67.890;    0.000;25.03000
 890.21;  -49.480;  -71.660;    0.000;22.18000
 890.46;  -40.700;  -67.310;    0.000;26.61000
 890.70;  -55.060;  -66.540;    0.000;11.48000
 890.94;  -40.440;  -66.690;    0.000;26.25000
 891.19;  -45.080;  -67.720;    0.000;22.64000
 891.43;  -33.520;  -60.230;    0.000;26.71000
 891.68;  -32.580;  -60.880;    0.000;28.30000
 891.92;  -37.660;  -66.740;    0.000;29.08000
 892.17;  -37.840;  -63.670;    0.000;25.83000
 892.41;  -35.980;  -64.550;    0.000;28.57000
 892.66;  -41.620;  -72.780;    0.000;31.16000
 892.90;   -7.760;  -53.850;    0.000;46.09000
 893.14;  -37.920;  -67.700;    0.000;29.78000
 893.39;  -38.980;  -61.520;    0.000;22.54000
 893.63;  -44.960;  -66.090;    0.000;21.13000
 893.88;  -31.700;  -64.750;    0.000;33.05000
 894.12;  -40.280;  -60.690;    0.000;20.41000
 894.36;  -32.280;  -52.460;    0.000;20.18000
 894.61;  -37.100;  -59.430;    0.000;22.33000
 894.85;  -25.880;  -59.970;    0.000;34.09000
 895.10;  -26.440;  -64.360;    0.000;37.92000
 895.34;  -36.640;  -59.380;    0.000;22.74000
 895.58;  -42.680;  -69.260;    0.000;26.58000
 895.83;  -16.140;  -62.800;    0.000;46.66000
 896.07;  -20.320;  -66.320;    0.000;46.00000
 896.32;  -30.480;  -58.720;    0.000;28.24000
 896.56;  -31.060;  -59.080;    0.000;28.02000
 896.80;  -27.580;  -64.120;    0.000;36.54000
 897.05;  -46.020;  -66.340;    0.000;20.32000
 897.29;  -16.340;  -51.230;    0.000;34.89000
 897.53;  -45.360;  -64.490;    0.000;19.13000
 897.78;  -25.320;  -59.400;    0.000;34.08000
 898.02;  -13.800;  -53.570;    0.000;39.77000
 898.26;  -22.680;  -63.930;    0.000;41.25000
 898.51;  -13.060;  -52.040;    0.000;38.98000
 898.75;  -26.760;  -56.010;    0.000;29.25000
 898.99;  -22.400;  -55.790;    0.000;33.39000
 899.24;  -12.900;  -49.180;    0.000;36.28000
 899.48;  -12.780;  -48.260;    0.000;35.48000
 899.73;   -6.840;  -54.040;    0.000;47.20000
 899.97;    3.920;  -42.750;    0.000;46.67000
 900.21;   17.520;  -44.210;    0.000;61.73000
 900.46;    7.560;  -41.230;    0.000;48.79000
 900.70;   21.540;  -40.060;    0.000;61.60000
 900.94;    1.160;  -49.340;    0.000;50.50000
 901.18;   16.540;  -43.690;    0.000;60.23000
 901.43;   17.160;  -40.290;    0.000;57.45000
 901.67;   29.040;  -38.410;    0.000;67.45000
 901.91;   22.760;  -29.050;    0.000;51.81000
 902.16;   23.620;  -39.250;    0.000;62.87000
 902.40;   39.260;  -35.010;    0.000;74.27000
 902.64;   40.000;  -28.700;    0.000;68.70000
 902.89;   31.140;  -28.120;    0.000;59.26000
 903.13;   56.340;  -20.830;    0.000;77.17000
 903.37;   63.980;  -22.230;    0.000;86.21000
 903.61;   85.720;   -7.810;    0.000;93.53000
 903.86;   73.900;   -9.670;    0.000;83.57000
 904.10;  102.720;   -7.290;    0.000;110.01000
 904.34;   97.560;    5.810;    0.000;91.75000
 904.59;  123.840;   17.270;    0.000;106.57000
 904.83;  142.620;   23.940;    0.000;118.67999
 905.07;  175.200;   39.780;    0.000;135.42000
 905.31;  200.740;   43.380;    0.000;157.36000
 905.56;  214.140;   56.080;    0.000;158.06000
 905.80;  257.840;   75.520;    0.000;182.32000

