p3
Integration time [ms]:  10.000
Averaging Nr. [scans]: 100
Smoothing Nr. [pixels]: 0
Data measured with spectrometer [name]: 1307078U2
Wave   ;Sample   ;Dark     ;Reference;Scope Corrected for Dark
[nm]   ;[counts] ;[counts] ;[counts] 

 351.07;   24.800;    0.420;    0.000;24.38000
 351.37;   11.100;    2.109;    0.000; 8.99125
 351.66;   18.610;    2.484;    0.000;16.12625
 351.95;   12.760;    0.324;    0.000;12.43625
 352.24;    5.380;    1.910;    0.000; 3.47000
 352.54;    6.520;    1.401;    0.000; 5.11875
 352.83;   15.390;   -0.629;    0.000;16.01875
 353.12;   12.490;    1.364;    0.000;11.12625
 353.42;    8.360;   -0.535;    0.000; 8.89500
 353.71;   12.800;    2.263;    0.000;10.53750
 354.00;   15.990;    3.929;    0.000;12.06125
 354.30;   14.100;    1.025;    0.000;13.07500
 354.59;   13.020;   -0.266;    0.000;13.28625
 354.88;    9.880;    5.190;    0.000; 4.69000
 355.17;    3.060;   -0.014;    0.000; 3.07375
 355.47;   -2.810;    2.134;    0.000;-4.94375
 355.76;   11.850;    0.416;    0.000;11.43375
 356.05;   17.330;    1.192;    0.000;16.13750
 356.35;   11.960;    1.587;    0.000;10.37250
 356.64;   21.430;    1.753;    0.000;19.67750
 356.93;   12.620;    1.768;    0.000;10.85250
 357.22;   24.530;    1.366;    0.000;23.16375
 357.52;    3.770;    3.320;    0.000; 0.45000
 357.81;   17.890;    1.643;    0.000;16.24750
 358.10;    8.090;   -0.600;    0.000; 8.69000
 358.39;   18.600;    1.461;    0.000;17.13875
 358.69;   13.610;    1.997;    0.000;11.61250
 358.98;    7.130;    0.317;    0.000; 6.81250
 359.27;   13.220;    1.446;    0.000;11.77375
 359.57;   15.310;    2.324;    0.000;12.98625
 359.86;    7.190;   -0.700;    0.000; 7.89000
 360.15;   19.830;    1.474;    0.000;18.35625
 360.44;    9.750;   -0.946;    0.000;10.69625
 360.74;   15.500;    1.480;    0.000;14.02000
 361.03;    3.050;   -0.345;    0.000; 3.39500
 361.32;   12.750;    2.919;    0.000; 9.83125
 361.61;    6.330;    2.338;    0.000; 3.99250
 361.91;   15.070;    2.645;    0.000;12.42500
 362.20;   -1.760;    1.590;    0.000;-3.35000
 362.49;   12.410;    1.854;    0.000;10.55625
 362.78;   19.940;    0.435;    0.000;19.50500
 363.08;   10.480;    1.149;    0.000; 9.33125
 363.37;    4.840;    0.004;    0.000; 4.83625
 363.66;   16.130;    3.439;    0.000;12.69125
 363.95;   -1.050;    2.359;    0.000;-3.40875
 364.24;   14.390;    2.213;    0.000;12.17750
 364.54;    8.390;   -0.068;    0.000; 8.45750
 364.83;    8.210;    2.066;    0.000; 6.14375
 365.12;   -2.270;   -0.624;    0.000;-1.64625
 365.41;   17.380;    3.152;    0.000;14.22750
 365.71;   15.470;    0.161;    0.000;15.30875
 366.00;    2.420;    1.484;    0.000; 0.93625
 366.29;    3.390;    0.876;    0.000; 2.51375
 366.58;    9.630;    2.200;    0.000; 7.43000
 366.87;   17.390;    3.334;    0.000;14.05625
 367.17;   16.830;    4.057;    0.000;12.77250
 367.46;    5.470;    1.112;    0.000; 4.35750
 367.75;    2.700;    0.207;    0.000; 2.49250
 368.04;    6.800;    2.296;    0.000; 4.50375
 368.34;    6.620;    3.155;    0.000; 3.46500
 368.63;    9.700;    1.982;    0.000; 7.71750
 368.92;   22.820;    4.579;    0.000;18.24125
 369.21;   15.300;    0.301;    0.000;14.99875
 369.50;   18.720;    4.056;    0.000;14.66375
 369.80;   12.780;    3.011;    0.000; 9.76875
 370.09;   16.490;    2.666;    0.000;13.82375
 370.38;    8.460;    1.489;    0.000; 6.97125
 370.67;   10.010;    2.949;    0.000; 7.06125
 370.96;   10.250;    1.915;    0.000; 8.33500
 371.26;    7.540;    3.515;    0.000; 4.02500
 371.55;    6.910;   -0.750;    0.000; 7.66000
 371.84;    5.150;    1.237;    0.000; 3.91250
 372.13;    6.290;    0.486;    0.000; 5.80375
 372.42;   19.430;    4.290;    0.000;15.14000
 372.71;   21.680;    2.305;    0.000;19.37500
 373.01;   17.040;    2.734;    0.000;14.30625
 373.30;    0.000;    0.909;    0.000;-0.90875
 373.59;   13.280;    4.401;    0.000; 8.87875
 373.88;    5.210;    0.729;    0.000; 4.48125
 374.17;   11.130;    5.426;    0.000; 5.70375
 374.46;    9.560;    2.037;    0.000; 7.52250
 374.76;   15.570;    3.602;    0.000;11.96750
 375.05;   31.330;    4.131;    0.000;27.19875
 375.34;    1.300;    4.778;    0.000;-3.47750
 375.63;   11.270;   -1.367;    0.000;12.63750
 375.92;   16.060;    1.354;    0.000;14.70625
 376.21;   -0.930;    0.181;    0.000;-1.11125
 376.51;    3.610;    0.475;    0.000; 3.13500
 376.80;   10.350;    3.346;    0.000; 7.00375
 377.09;   -3.230;    1.947;    0.000;-5.17750
 377.38;   10.310;    1.015;    0.000; 9.29500
 377.67;   11.820;    2.574;    0.000; 9.24625
 377.96;   12.070;    0.863;    0.000;11.20750
 378.25;    2.920;    3.033;    0.000;-0.11250
 378.55;   -0.300;    1.080;    0.000;-1.38000
 378.84;    7.480;    4.383;    0.000; 3.09750
 379.13;   15.000;    1.696;    0.000;13.30375
 379.42;   10.290;    4.142;    0.000; 6.14750
 379.71;    7.740;    1.695;    0.000; 6.04500
 380.00;   22.360;    4.409;    0.000;17.95125
 380.29;    5.360;    0.924;    0.000; 4.43625
 380.59;    4.190;    2.340;    0.000; 1.85000
 380.88;   13.830;    1.253;    0.000;12.57750
 381.17;    3.120;    2.536;    0.000; 0.58375
 381.46;   13.350;    2.259;    0.000;11.09125
 381.75;   16.520;    3.750;    0.000;12.77000
 382.04;   18.930;    3.304;    0.000;15.62625
 382.33;   13.150;    1.438;    0.000;11.71250
 382.62;    0.820;    2.980;    0.000;-2.16000
 382.91;   13.880;    3.025;    0.000;10.85500
 383.21;    1.560;   -1.186;    0.000; 2.74625
 383.50;   10.280;    1.279;    0.000; 9.00125
 383.79;   10.810;    3.581;    0.000; 7.22875
 384.08;   12.470;    1.620;    0.000;10.85000
 384.37;    8.010;    2.861;    0.000; 5.14875
 384.66;    9.290;    0.262;    0.000; 9.02750
 384.95;    1.110;    1.033;    0.000; 0.07750
 385.24;    7.790;    0.772;    0.000; 7.01750
 385.53;   14.870;   -1.732;    0.000;16.60250
 385.83;    0.270;    0.712;    0.000;-0.44250
 386.12;   13.490;    1.009;    0.000;12.48125
 386.41;    0.980;    2.080;    0.000;-1.10000
 386.70;    6.340;    0.155;    0.000; 6.18500
 386.99;    8.650;    0.820;    0.000; 7.83000
 387.28;   19.440;    3.057;    0.000;16.38250
 387.57;   20.060;    2.020;    0.000;18.04000
 387.86;   10.450;    1.317;    0.000; 9.13250
 388.15;    7.030;    2.237;    0.000; 4.79250
 388.44;   -0.040;    1.854;    0.000;-1.89375
 388.73;    7.800;    1.639;    0.000; 6.16125
 389.02;    7.310;    1.174;    0.000; 6.13625
 389.31;    4.030;    3.336;    0.000; 0.69375
 389.61;   11.560;    1.742;    0.000; 9.81750
 389.90;    5.560;    2.181;    0.000; 3.37875
 390.19;    6.640;    0.252;    0.000; 6.38750
 390.48;   10.490;    3.714;    0.000; 6.77625
 390.77;    8.340;    2.156;    0.000; 6.18375
 391.06;    3.800;    0.019;    0.000; 3.78125
 391.35;    8.550;    0.766;    0.000; 7.78375
 391.64;   21.340;    4.639;    0.000;16.70125
 391.93;    2.230;    0.449;    0.000; 1.78125
 392.22;    5.540;    2.592;    0.000; 2.94750
 392.51;   12.610;    1.247;    0.000;11.36250
 392.80;    4.090;    2.735;    0.000; 1.35500
 393.09;    1.620;    1.086;    0.000; 0.53375
 393.38;    5.980;    0.229;    0.000; 5.75125
 393.67;    6.390;    1.561;    0.000; 4.82875
 393.96;   10.280;    1.930;    0.000; 8.35000
 394.25;    7.050;    0.956;    0.000; 6.09375
 394.54;    8.650;    1.622;    0.000; 7.02750
 394.83;    7.270;    0.440;    0.000; 6.83000
 395.13;    3.730;    2.201;    0.000; 1.52875
 395.42;   10.690;    2.457;    0.000; 8.23250
 395.71;   13.730;    4.305;    0.000; 9.42500
 396.00;   14.890;    1.222;    0.000;13.66750
 396.29;   13.830;    1.178;    0.000;12.65250
 396.58;   12.280;    0.967;    0.000;11.31250
 396.87;    7.710;    1.986;    0.000; 5.72375
 397.16;    6.070;    1.911;    0.000; 4.15875
 397.45;    9.100;    3.014;    0.000; 6.08625
 397.74;    9.930;    2.689;    0.000; 7.24125
 398.03;   12.240;    2.170;    0.000;10.07000
 398.32;   -2.120;    1.844;    0.000;-3.96375
 398.61;   13.370;    3.154;    0.000;10.21625
 398.90;    5.020;    1.420;    0.000; 3.60000
 399.19;   17.380;    3.316;    0.000;14.06375
 399.48;    2.130;    0.412;    0.000; 1.71750
 399.77;    9.970;    1.786;    0.000; 8.18375
 400.06;   11.150;    2.120;    0.000; 9.03000
 400.35;    4.800;    3.961;    0.000; 0.83875
 400.64;    6.360;    2.411;    0.000; 3.94875
 400.93;   18.420;    3.304;    0.000;15.11625
 401.22;    6.540;    1.479;    0.000; 5.06125
 401.51;   17.900;    3.400;    0.000;14.50000
 401.80;   10.190;    1.049;    0.000; 9.14125
 402.09;    3.240;    1.710;    0.000; 1.53000
 402.38;    4.110;    1.655;    0.000; 2.45500
 402.67;    4.380;    2.055;    0.000; 2.32500
 402.96;    8.440;    1.381;    0.000; 7.05875
 403.25;   19.760;    4.099;    0.000;15.66125
 403.54;   12.390;    2.920;    0.000; 9.47000
 403.83;    9.000;    1.701;    0.000; 7.29875
 404.12;    7.590;    4.244;    0.000; 3.34625
 404.41;   13.870;    7.259;    0.000; 6.61125
 404.70;   11.310;    1.739;    0.000; 9.57125
 404.98;   14.060;    3.635;    0.000;10.42500
 405.27;   21.070;    2.116;    0.000;18.95375
 405.56;   20.840;    5.247;    0.000;15.59250
 405.85;    2.450;    1.905;    0.000; 0.54500
 406.14;   10.850;    2.216;    0.000; 8.63375
 406.43;   -2.260;    0.695;    0.000;-2.95500
 406.72;   11.470;    1.689;    0.000; 9.78125
 407.01;    3.480;    2.034;    0.000; 1.44625
 407.30;   12.370;    2.056;    0.000;10.31375
 407.59;   13.310;   -0.241;    0.000;13.55125
 407.88;   12.280;    1.026;    0.000;11.25375
 408.17;    2.160;    1.819;    0.000; 0.34125
 408.46;   11.540;    2.744;    0.000; 8.79625
 408.75;   18.620;    2.339;    0.000;16.28125
 409.04;    1.250;    1.809;    0.000;-0.55875
 409.33;    2.850;    1.810;    0.000; 1.04000
 409.62;   15.630;    3.089;    0.000;12.54125
 409.91;   -2.740;    0.704;    0.000;-3.44375
 410.20;    3.660;    1.890;    0.000; 1.77000
 410.48;   10.660;    1.309;    0.000; 9.35125
 410.77;    3.000;    2.919;    0.000; 0.08125
 411.06;   13.820;   -0.224;    0.000;14.04375
 411.35;   18.530;    2.226;    0.000;16.30375
 411.64;    8.110;    2.741;    0.000; 5.36875
 411.93;    9.710;   -0.534;    0.000;10.24375
 412.22;    2.240;    0.561;    0.000; 1.67875
 412.51;    6.620;    2.220;    0.000; 4.40000
 412.80;   15.290;    1.974;    0.000;13.31625
 413.09;    9.400;    0.749;    0.000; 8.65125
 413.38;   14.560;    3.604;    0.000;10.95625
 413.67;    6.430;    0.146;    0.000; 6.28375
 413.96;   -2.890;   -0.986;    0.000;-1.90375
 414.24;    8.220;    2.872;    0.000; 5.34750
 414.53;   11.360;    3.146;    0.000; 8.21375
 414.82;   11.290;    2.290;    0.000; 9.00000
 415.11;   23.070;    2.401;    0.000;20.66875
 415.40;    7.090;    0.995;    0.000; 6.09500
 415.69;   12.380;    2.255;    0.000;10.12500
 415.98;   -0.610;    3.622;    0.000;-4.23250
 416.27;    1.020;    2.026;    0.000;-1.00625
 416.56;   10.230;    2.160;    0.000; 8.07000
 416.84;    9.660;    1.849;    0.000; 7.81125
 417.13;    4.580;    1.085;    0.000; 3.49500
 417.42;   21.590;    2.255;    0.000;19.33500
 417.71;    9.490;    0.942;    0.000; 8.54750
 418.00;    7.380;   -0.894;    0.000; 8.27375
 418.29;    8.410;    2.760;    0.000; 5.65000
 418.58;   12.340;    1.184;    0.000;11.15625
 418.87;    8.190;    1.616;    0.000; 6.57375
 419.15;    8.650;    1.469;    0.000; 7.18125
 419.44;   10.200;    1.505;    0.000; 8.69500
 419.73;   14.030;   -0.203;    0.000;14.23250
 420.02;    7.640;    3.578;    0.000; 4.06250
 420.31;    5.520;    0.189;    0.000; 5.33125
 420.60;   23.320;    0.344;    0.000;22.97625
 420.89;    2.480;    1.889;    0.000; 0.59125
 421.18;   21.780;    0.249;    0.000;21.53125
 421.46;   12.060;    1.220;    0.000;10.84000
 421.75;    3.610;    1.529;    0.000; 2.08125
 422.04;   -1.960;    1.446;    0.000;-3.40625
 422.33;   17.860;    1.941;    0.000;15.91875
 422.62;    7.060;    4.503;    0.000; 2.55750
 422.91;    2.090;    4.043;    0.000;-1.95250
 423.19;    1.560;    3.485;    0.000;-1.92500
 423.48;   13.280;    1.274;    0.000;12.00625
 423.77;   12.370;    2.696;    0.000; 9.67375
 424.06;   -1.850;    3.234;    0.000;-5.08375
 424.35;   -1.030;    0.522;    0.000;-1.55250
 424.64;   22.180;    3.535;    0.000;18.64500
 424.93;    0.400;   -0.317;    0.000; 0.71750
 425.21;    8.950;    2.582;    0.000; 6.36750
 425.50;    6.130;    3.263;    0.000; 2.86750
 425.79;    8.020;    2.591;    0.000; 5.42875
 426.08;   16.650;    1.785;    0.000;14.86500
 426.37;   10.310;    1.579;    0.000; 8.73125
 426.65;   -1.390;    2.955;    0.000;-4.34500
 426.94;   11.410;    2.134;    0.000; 9.27625
 427.23;   11.550;    2.475;    0.000; 9.07500
 427.52;   10.640;    0.715;    0.000; 9.92500
 427.81;    4.590;   -0.177;    0.000; 4.76750
 428.10;   21.830;    2.043;    0.000;19.78750
 428.38;    4.250;    0.154;    0.000; 4.09625
 428.67;   15.840;    2.436;    0.000;13.40375
 428.96;    8.940;    1.938;    0.000; 7.00250
 429.25;    3.910;    2.326;    0.000; 1.58375
 429.54;   19.690;    2.418;    0.000;17.27250
 429.82;   18.660;    2.749;    0.000;15.91125
 430.11;    9.390;    0.755;    0.000; 8.63500
 430.40;   17.290;    2.376;    0.000;14.91375
 430.69;   10.020;    2.435;    0.000; 7.58500
 430.98;    2.950;    3.626;    0.000;-0.67625
 431.26;   12.600;    4.383;    0.000; 8.21750
 431.55;   15.720;    3.697;    0.000;12.02250
 431.84;    9.300;   -0.666;    0.000; 9.96625
 432.13;   11.320;    0.749;    0.000;10.57125
 432.41;    3.590;    2.846;    0.000; 0.74375
 432.70;   13.560;    2.501;    0.000;11.05875
 432.99;   15.360;    2.007;    0.000;13.35250
 433.28;    5.800;    4.089;    0.000; 1.71125
 433.57;   22.010;    0.668;    0.000;21.34250
 433.85;   16.890;    0.570;    0.000;16.32000
 434.14;    1.610;    1.510;    0.000; 0.10000
 434.43;   21.220;    4.943;    0.000;16.27750
 434.72;    7.760;    1.523;    0.000; 6.23750
 435.00;    3.390;    4.381;    0.000;-0.99125
 435.29;    8.000;    3.159;    0.000; 4.84125
 435.58;   15.720;    3.307;    0.000;12.41250
 435.87;    5.400;    0.380;    0.000; 5.02000
 436.15;    8.480;    2.906;    0.000; 5.57375
 436.44;    4.030;    2.568;    0.000; 1.46250
 436.73;   17.000;    4.294;    0.000;12.70625
 437.02;   -1.450;    2.537;    0.000;-3.98750
 437.30;   14.540;    2.334;    0.000;12.20625
 437.59;   11.340;    2.810;    0.000; 8.53000
 437.88;   12.880;    5.700;    0.000; 7.18000
 438.17;    1.360;   -0.534;    0.000; 1.89375
 438.45;    3.120;    3.159;    0.000;-0.03875
 438.74;    6.200;    0.505;    0.000; 5.69500
 439.03;   19.480;    2.618;    0.000;16.86250
 439.32;   -5.110;    3.250;    0.000;-8.36000
 439.60;    4.070;    0.890;    0.000; 3.18000
 439.89;    8.400;    2.642;    0.000; 5.75750
 440.18;   11.130;    2.490;    0.000; 8.64000
 440.46;    1.380;    0.183;    0.000; 1.19750
 440.75;   20.970;    2.443;    0.000;18.52750
 441.04;    2.800;    0.079;    0.000; 2.72125
 441.33;    8.460;    3.149;    0.000; 5.31125
 441.61;    3.170;    2.630;    0.000; 0.54000
 441.90;   25.120;    3.733;    0.000;21.38750
 442.19;   -3.920;   -0.200;    0.000;-3.72000
 442.47;    9.020;    3.862;    0.000; 5.15750
 442.76;   -1.380;    2.916;    0.000;-4.29625
 443.05;    8.080;    2.666;    0.000; 5.41375
 443.34;    3.200;    2.057;    0.000; 1.14250
 443.62;   12.230;    1.426;    0.000;10.80375
 443.91;    3.550;    0.027;    0.000; 3.52250
 444.20;   30.730;    6.335;    0.000;24.39500
 444.48;    0.270;    1.109;    0.000;-0.83875
 444.77;   28.140;    4.639;    0.000;23.50125
 445.06;    4.910;    1.806;    0.000; 3.10375
 445.34;    7.840;    0.406;    0.000; 7.43375
 445.63;    7.740;    0.630;    0.000; 7.11000
 445.92;   35.430;    1.935;    0.000;33.49500
 446.21;    7.930;    3.364;    0.000; 4.56625
 446.49;   18.360;    2.110;    0.000;16.25000
 446.78;   17.760;    2.021;    0.000;15.73875
 447.07;    3.650;    0.465;    0.000; 3.18500
 447.35;    2.300;    0.983;    0.000; 1.31750
 447.64;   12.060;    3.451;    0.000; 8.60875
 447.93;    0.370;    1.934;    0.000;-1.56375
 448.21;   10.720;    1.536;    0.000; 9.18375
 448.50;    4.210;    1.910;    0.000; 2.30000
 448.79;   -5.250;    1.992;    0.000;-7.24250
 449.07;   17.230;    3.325;    0.000;13.90500
 449.36;    5.660;    1.426;    0.000; 4.23375
 449.65;   -0.730;    0.134;    0.000;-0.86375
 449.93;   10.690;    3.255;    0.000; 7.43500
 450.22;    8.680;    1.070;    0.000; 7.61000
 450.51;    2.270;    3.435;    0.000;-1.16500
 450.79;    2.610;    2.901;    0.000;-0.29125
 451.08;   -0.490;    2.376;    0.000;-2.86625
 451.36;    2.330;   -0.282;    0.000; 2.61250
 451.65;    7.890;    4.582;    0.000; 3.30750
 451.94;    2.530;    2.245;    0.000; 0.28500
 452.22;   -8.260;    1.971;    0.000;-10.23125
 452.51;   11.540;    2.864;    0.000; 8.67625
 452.80;    4.680;    0.808;    0.000; 3.87250
 453.08;    0.560;    3.300;    0.000;-2.74000
 453.37;    1.640;    5.216;    0.000;-3.57625
 453.66;    5.370;    1.974;    0.000; 3.39625
 453.94;   10.480;    2.578;    0.000; 7.90250
 454.23;    3.150;    0.707;    0.000; 2.44250
 454.51;   19.900;    5.106;    0.000;14.79375
 454.80;    3.760;    1.065;    0.000; 2.69500
 455.09;   11.480;    3.789;    0.000; 7.69125
 455.37;   12.200;    2.000;    0.000;10.20000
 455.66;    6.770;    0.929;    0.000; 5.84125
 455.95;   10.530;    2.487;    0.000; 8.04250
 456.23;   11.400;    1.810;    0.000; 9.59000
 456.52;   -2.410;   -1.785;    0.000;-0.62500
 456.80;   10.060;    1.676;    0.000; 8.38375
 457.09;    0.730;    0.610;    0.000; 0.12000
 457.38;   23.410;    2.624;    0.000;20.78625
 457.66;   15.270;    2.954;    0.000;12.31625
 457.95;    1.440;    2.106;    0.000;-0.66625
 458.23;    8.710;   -0.848;    0.000; 9.55750
 458.52;   14.950;    3.451;    0.000;11.49875
 458.81;    7.220;    4.972;    0.000; 2.24750
 459.09;    6.350;    4.175;    0.000; 2.17500
 459.38;   -4.650;    0.647;    0.000;-5.29750
 459.66;    6.840;    2.150;    0.000; 4.69000
 459.95;   16.300;    3.480;    0.000;12.82000
 460.23;   10.440;    1.835;    0.000; 8.60500
 460.52;    5.100;   -0.050;    0.000; 5.15000
 460.81;    1.910;    3.735;    0.000;-1.82500
 461.09;    2.310;    2.649;    0.000;-0.33875
 461.38;    6.610;    0.196;    0.000; 6.41375
 461.66;    0.970;    2.040;    0.000;-1.07000
 461.95;    6.150;    2.691;    0.000; 3.45875
 462.23;   10.120;    2.905;    0.000; 7.21500
 462.52;    5.680;    1.970;    0.000; 3.71000
 462.81;    1.210;    1.775;    0.000;-0.56500
 463.09;    9.410;    2.996;    0.000; 6.41375
 463.38;   -0.820;    3.536;    0.000;-4.35625
 463.66;   -0.660;    2.416;    0.000;-3.07625
 463.95;   23.660;    0.976;    0.000;22.68375
 464.23;   14.830;    3.136;    0.000;11.69375
 464.52;   15.290;    0.415;    0.000;14.87500
 464.80;    8.840;    2.267;    0.000; 6.57250
 465.09;   10.890;    4.450;    0.000; 6.44000
 465.38;    1.540;    2.135;    0.000;-0.59500
 465.66;    3.790;    3.092;    0.000; 0.69750
 465.95;   12.040;    3.005;    0.000; 9.03500
 466.23;    5.760;    1.654;    0.000; 4.10625
 466.52;   -7.950;    2.730;    0.000;-10.68000
 466.80;   19.010;    4.429;    0.000;14.58125
 467.09;    7.390;    2.030;    0.000; 5.36000
 467.37;    0.760;    2.378;    0.000;-1.61750
 467.66;   14.550;    4.521;    0.000;10.02875
 467.94;    9.530;    1.929;    0.000; 7.60125
 468.23;    7.400;    1.577;    0.000; 5.82250
 468.51;   20.520;    3.882;    0.000;16.63750
 468.80;    6.090;    3.013;    0.000; 3.07750
 469.08;   17.570;    2.563;    0.000;15.00750
 469.37;   17.610;    3.146;    0.000;14.46375
 469.66;   13.050;    1.077;    0.000;11.97250
 469.94;    8.410;    0.594;    0.000; 7.81625
 470.23;   16.820;    0.586;    0.000;16.23375
 470.51;    9.070;    2.723;    0.000; 6.34750
 470.80;   13.400;    2.582;    0.000;10.81750
 471.08;   11.700;    3.061;    0.000; 8.63875
 471.37;   16.170;    2.378;    0.000;13.79250
 471.65;   25.910;    3.132;    0.000;22.77750
 471.94;    4.060;    0.899;    0.000; 3.16125
 472.22;    1.370;    1.457;    0.000;-0.08750
 472.51;   12.830;    1.730;    0.000;11.10000
 472.79;   14.220;    3.695;    0.000;10.52500
 473.08;    3.480;    0.592;    0.000; 2.88750
 473.36;    9.490;    3.221;    0.000; 6.26875
 473.64;    6.960;    1.619;    0.000; 5.34125
 473.93;    5.440;    3.253;    0.000; 2.18750
 474.21;   -1.130;    2.713;    0.000;-3.84250
 474.50;   15.160;    4.048;    0.000;11.11250
 474.78;   25.220;    2.095;    0.000;23.12500
 475.07;   19.940;    0.941;    0.000;18.99875
 475.35;   18.320;    3.199;    0.000;15.12125
 475.64;    8.810;    2.451;    0.000; 6.35875
 475.92;    9.770;    1.299;    0.000; 8.47125
 476.21;   17.480;    0.804;    0.000;16.67625
 476.49;   19.260;    2.276;    0.000;16.98375
 476.78;   18.960;    2.287;    0.000;16.67250
 477.06;   10.220;    2.473;    0.000; 7.74750
 477.35;   15.760;    3.790;    0.000;11.97000
 477.63;   11.210;    1.086;    0.000;10.12375
 477.91;   14.630;    1.760;    0.000;12.87000
 478.20;    7.430;    1.059;    0.000; 6.37125
 478.48;   17.080;    0.538;    0.000;16.54250
 478.77;   15.770;    3.499;    0.000;12.27125
 479.05;   12.840;    3.216;    0.000; 9.62375
 479.34;   22.320;    0.761;    0.000;21.55875
 479.62;   13.780;    3.401;    0.000;10.37875
 479.91;   12.350;   -0.785;    0.000;13.13500
 480.19;   22.100;    2.868;    0.000;19.23250
 480.47;    7.050;    0.215;    0.000; 6.83500
 480.76;   13.400;    5.134;    0.000; 8.26625
 481.04;   12.830;    2.594;    0.000;10.23625
 481.33;   32.470;    5.226;    0.000;27.24375
 481.61;   24.290;    0.775;    0.000;23.51500
 481.90;   17.750;    3.454;    0.000;14.29625
 482.18;   14.920;    1.354;    0.000;13.56625
 482.46;   28.400;    2.395;    0.000;26.00500
 482.75;   25.920;    3.819;    0.000;22.10125
 483.03;   23.670;    1.339;    0.000;22.33125
 483.32;   22.350;   -0.608;    0.000;22.95750
 483.60;   38.120;    2.681;    0.000;35.43875
 483.88;   31.560;    3.960;    0.000;27.60000
 484.17;   36.090;    1.490;    0.000;34.60000
 484.45;   25.360;    0.410;    0.000;24.95000
 484.74;   35.830;    2.251;    0.000;33.57875
 485.02;   46.530;    2.283;    0.000;44.24750
 485.30;   47.170;    1.720;    0.000;45.45000
 485.59;   50.450;    0.525;    0.000;49.92500
 485.87;   63.530;    1.050;    0.000;62.48000
 486.16;   62.940;    1.403;    0.000;61.53750
 486.44;   57.640;    2.604;    0.000;55.03625
 486.72;   73.680;    1.150;    0.000;72.53000
 487.01;   80.230;    3.671;    0.000;76.55875
 487.29;   89.220;    0.510;    0.000;88.71000
 487.58;  105.280;    5.654;    0.000;99.62625
 487.86;  115.180;    3.342;    0.000;111.83750
 488.14;  111.840;    3.932;    0.000;107.90750
 488.43;  134.200;    0.979;    0.000;133.22125
 488.71;  144.010;    0.730;    0.000;143.27999
 488.99;  162.840;    1.616;    0.000;161.22375
 489.28;  178.830;    0.715;    0.000;178.11500
 489.56;  199.060;    1.239;    0.000;197.82125
 489.85;  218.780;    2.350;    0.000;216.43000
 490.13;  241.420;    2.057;    0.000;239.36250
 490.41;  267.880;    4.855;    0.000;263.02500
 490.70;  297.090;    2.358;    0.000;294.73250
 490.98;  318.070;    1.931;    0.000;316.13876
 491.26;  351.270;   -0.796;    0.000;352.06624
 491.55;  390.390;    2.747;    0.000;387.64251
 491.83;  422.150;    2.797;    0.000;419.35249
 492.11;  471.100;    0.218;    0.000;470.88251
 492.40;  499.780;    1.774;    0.000;498.00625
 492.68;  544.130;    3.876;    0.000;540.25375
 492.96;  579.640;    2.506;    0.000;577.13376
 493.25;  637.670;    3.009;    0.000;634.66123
 493.53;  677.770;    1.435;    0.000;676.33502
 493.81;  745.320;    3.051;    0.000;742.26876
 494.10;  803.060;    2.372;    0.000;800.68750
 494.38;  876.460;    0.340;    0.000;876.12002
 494.66;  916.010;   -0.239;    0.000;916.24876
 494.95; 1011.350;    2.470;    0.000;1008.87998
 495.23; 1073.450;    3.210;    0.000;1070.23995
 495.51; 1154.070;    4.576;    0.000;1149.49370
 495.80; 1245.260;    2.500;    0.000;1242.76001
 496.08; 1322.940;    4.334;    0.000;1318.60619
 496.36; 1416.940;    2.381;    0.000;1414.55869
 496.65; 1486.680;    0.871;    0.000;1485.80880
 496.93; 1612.820;    2.741;    0.000;1610.07870
 497.21; 1689.310;    0.571;    0.000;1688.73881
 497.50; 1806.520;    3.068;    0.000;1803.45252
 497.78; 1892.680;    1.405;    0.000;1891.27505
 498.06; 2003.250;    0.853;    0.000;2002.39750
 498.34; 2119.790;    2.364;    0.000;2117.42629
 498.63; 2247.320;    3.320;    0.000;2244.00007
 498.91; 2403.140;    4.931;    0.000;2398.20864
 499.19; 2531.530;    1.158;    0.000;2530.37253
 499.48; 2633.510;    2.360;    0.000;2631.15001
 499.76; 2794.030;    3.057;    0.000;2790.97253
 500.04; 2922.720;    4.120;    0.000;2918.59997
 500.32; 3076.340;    3.015;    0.000;3073.32509
 500.61; 3196.810;    2.210;    0.000;3194.60006
 500.89; 3362.860;    2.584;    0.000;3360.27636
 501.17; 3533.470;    1.663;    0.000;3531.80747
 501.46; 3698.940;    3.491;    0.000;3695.44869
 501.74; 3849.080;    4.365;    0.000;3844.71508
 502.02; 4026.700;    3.974;    0.000;4022.72620
 502.30; 4215.790;    3.686;    0.000;4212.10379
 502.59; 4379.060;    3.149;    0.000;4375.91131
 502.87; 4566.500;    2.419;    0.000;4564.08125
 503.15; 4767.490;    3.114;    0.000;4764.37648
 503.43; 4975.650;    1.428;    0.000;4974.22240
 503.72; 5133.710;    1.790;    0.000;5131.91996
 504.00; 5348.820;    1.394;    0.000;5347.42607
 504.28; 5567.930;    2.723;    0.000;5565.20768
 504.56; 5771.610;    3.711;    0.000;5767.89861
 504.85; 5999.130;    1.084;    0.000;5998.04613
 505.13; 6177.550;    3.199;    0.000;6174.35105
 505.41; 6402.850;    1.260;    0.000;6401.59010
 505.69; 6626.150;    4.202;    0.000;6621.94740
 505.98; 6829.580;    2.303;    0.000;6827.27758
 506.26; 7071.570;    2.465;    0.000;7069.10482
 506.54; 7298.360;    1.691;    0.000;7296.66861
 506.82; 7554.720;    1.630;    0.000;7553.09021
 507.11; 7754.950;    2.685;    0.000;7752.26520
 507.39; 8003.130;    2.963;    0.000;8000.16738
 507.67; 8269.960;    2.545;    0.000;8267.41496
 507.95; 8501.860;    4.004;    0.000;8497.85660
 508.23; 8722.340;    1.665;    0.000;8720.67484
 508.52; 8960.450;    4.427;    0.000;8956.02270
 508.80; 9232.550;    2.648;    0.000;9229.90230
 509.08; 9498.800;    3.473;    0.000;9495.32730
 509.36; 9723.550;    0.114;    0.000;9723.43605
 509.65;10009.210;    2.144;    0.000;10007.06621
 509.93;10247.860;    1.548;    0.000;10246.31285
 510.21;10461.330;    1.577;    0.000;10459.75258
 510.49;10740.210;    2.626;    0.000;10737.58371
 510.77;10956.560;    2.529;    0.000;10954.03082
 511.06;11185.180;    1.059;    0.000;11184.12094
 511.34;11481.100;    1.541;    0.000;11479.55836
 511.62;11798.050;   -1.497;    0.000;11799.54730
 511.90;11973.620;    3.204;    0.000;11970.41637
 512.18;12219.060;    1.067;    0.000;12217.99207
 512.47;12507.580;    5.470;    0.000;12502.11008
 512.75;12770.660;    1.100;    0.000;12769.56016
 513.03;13007.100;    4.050;    0.000;13003.04961
 513.31;13263.970;    1.416;    0.000;13262.55348
 513.59;13496.370;    3.094;    0.000;13493.27637
 513.87;13713.350;    1.499;    0.000;13711.85086
 514.16;14028.350;    3.134;    0.000;14025.21586
 514.44;14251.380;    1.394;    0.000;14249.98613
 514.72;14490.830;    3.402;    0.000;14487.42758
 515.00;14777.380;    2.842;    0.000;14774.53738
 515.28;15019.060;    3.527;    0.000;15015.53207
 515.56;15220.110;    2.730;    0.000;15217.38035
 515.85;15495.600;    0.644;    0.000;15494.95586
 516.13;15752.350;    2.204;    0.000;15750.14586
 516.41;15974.100;    1.971;    0.000;15972.12836
 516.69;16201.630;    3.354;    0.000;16198.27613
 516.97;16496.760;    4.766;    0.000;16491.99352
 517.25;16700.199;    2.075;    0.000;16698.12422
 517.54;16912.250;    4.198;    0.000;16908.05250
 517.82;17119.301;    2.642;    0.000;17116.65828
 518.10;17344.420;    1.928;    0.000;17342.49242
 518.38;17625.510;    3.320;    0.000;17622.18977
 518.66;17831.711;    3.017;    0.000;17828.69344
 518.94;18055.689;   -0.038;    0.000;18055.72695
 519.22;18259.779;    3.063;    0.000;18256.71680
 519.51;18483.260;    0.155;    0.000;18483.10477
 519.79;18667.391;   -0.216;    0.000;18667.60688
 520.07;18878.779;    3.670;    0.000;18875.10930
 520.35;19106.641;    3.328;    0.000;19103.31312
 520.63;19335.279;    2.414;    0.000;19332.86555
 520.91;19533.180;    0.201;    0.000;19532.97844
 521.19;19725.539;    3.025;    0.000;19722.51406
 521.47;19951.359;    1.909;    0.000;19949.45062
 521.75;20089.590;    2.081;    0.000;20087.50859
 522.04;20354.881;    2.229;    0.000;20352.65211
 522.32;20520.600;    0.170;    0.000;20520.42961
 522.60;20781.850;    3.899;    0.000;20777.95086
 522.88;20903.240;    3.216;    0.000;20900.02398
 523.16;21073.590;    2.065;    0.000;21071.52484
 523.44;21288.109;    2.495;    0.000;21285.61438
 523.72;21442.420;    3.304;    0.000;21439.11617
 524.00;21651.631;    2.655;    0.000;21648.97586
 524.28;21858.801;    2.943;    0.000;21855.85828
 524.57;22011.150;    2.586;    0.000;22008.56414
 524.85;22179.150;    4.845;    0.000;22174.30539
 525.13;22311.420;    4.231;    0.000;22307.18867
 525.41;22538.490;    1.692;    0.000;22536.79773
 525.69;22711.359;    1.334;    0.000;22710.02562
 525.97;22845.279;    4.061;    0.000;22841.21805
 526.25;23008.369;    0.954;    0.000;23007.41539
 526.53;23188.699;    4.273;    0.000;23184.42672
 526.81;23329.980;    0.319;    0.000;23329.66172
 527.09;23482.381;    1.679;    0.000;23480.70211
 527.37;23580.631;    0.134;    0.000;23580.49711
 527.65;23807.359;    3.938;    0.000;23803.42188
 527.93;23931.980;    1.886;    0.000;23930.09422
 528.22;24051.801;    3.976;    0.000;24047.82453
 528.50;24225.330;    1.497;    0.000;24223.83258
 528.78;24387.320;    4.605;    0.000;24382.71531
 529.06;24464.189;    3.001;    0.000;24461.18820
 529.34;24665.770;    3.697;    0.000;24662.07203
 529.62;24755.109;    2.995;    0.000;24752.11438
 529.90;24929.141;    2.693;    0.000;24926.44812
 530.18;25059.471;    0.646;    0.000;25058.82445
 530.46;25194.650;    3.618;    0.000;25191.03289
 530.74;25296.160;    4.294;    0.000;25291.86641
 531.02;25516.500;    2.640;    0.000;25513.86000
 531.30;25619.189;    0.880;    0.000;25618.30945
 531.58;25726.100;    3.714;    0.000;25722.38586
 531.86;25883.400;    2.035;    0.000;25881.36539
 532.14;25994.381;    4.215;    0.000;25990.16586
 532.42;26097.430;    2.910;    0.000;26094.51969
 532.70;26175.920;    3.036;    0.000;26172.88367
 532.98;26262.449;    0.534;    0.000;26261.91547
 533.26;26376.189;    2.263;    0.000;26373.92695
 533.54;26473.779;    1.962;    0.000;26471.81680
 533.82;26654.920;    4.854;    0.000;26650.06617
 534.10;26766.971;    3.501;    0.000;26763.46945
 534.38;26883.391;    0.683;    0.000;26882.70812
 534.66;26974.619;    4.026;    0.000;26970.59289
 534.94;27073.840;    2.694;    0.000;27071.14609
 535.22;27145.020;    2.501;    0.000;27142.51828
 535.50;27261.939;    1.347;    0.000;27260.59195
 535.78;27368.721;    4.506;    0.000;27364.21445
 536.06;27438.250;    5.009;    0.000;27433.24125
 536.34;27592.150;    2.092;    0.000;27590.05789
 536.62;27646.779;    3.473;    0.000;27643.30680
 536.90;27723.711;    4.017;    0.000;27719.69344
 537.18;27914.730;    2.636;    0.000;27912.09422
 537.46;27928.910;    0.501;    0.000;27928.40891
 537.74;27988.500;    3.977;    0.000;27984.52250
 538.02;28133.891;    5.509;    0.000;28128.38188
 538.30;28250.070;    5.718;    0.000;28244.35281
 538.58;28358.680;    2.925;    0.000;28355.75469
 538.86;28393.961;    4.149;    0.000;28389.81219
 539.14;28528.900;    3.205;    0.000;28525.69539
 539.42;28566.420;    5.500;    0.000;28560.91992
 539.70;28626.109;    1.393;    0.000;28624.71687
 539.98;28733.631;    2.892;    0.000;28730.73836
 540.26;28820.850;    1.592;    0.000;28819.25711
 540.54;28880.830;    4.443;    0.000;28876.38758
 540.82;28987.250;    1.806;    0.000;28985.44375
 541.10;29066.350;    4.010;    0.000;29062.33961
 541.38;29137.359;    2.525;    0.000;29134.83437
 541.66;29228.160;    4.036;    0.000;29224.12391
 541.94;29209.250;    5.741;    0.000;29203.50875
 542.22;29323.070;    6.370;    0.000;29316.70031
 542.50;29487.301;    2.181;    0.000;29485.11953
 542.78;29443.439;    3.706;    0.000;29439.73320
 543.06;29518.990;    1.092;    0.000;29517.89773
 543.34;29581.980;    4.554;    0.000;29577.42672
 543.62;29688.961;    1.795;    0.000;29687.16594
 543.90;29800.811;    2.027;    0.000;29798.78305
 544.17;29759.869;    2.539;    0.000;29757.33039
 544.45;29903.680;    5.716;    0.000;29897.96344
 544.73;29939.510;    3.084;    0.000;29936.42602
 545.01;29968.150;    3.473;    0.000;29964.67789
 545.29;29993.721;    4.139;    0.000;29989.58195
 545.57;30133.480;    5.057;    0.000;30128.42297
 545.85;30128.260;    3.080;    0.000;30125.17977
 546.13;30111.750;    3.045;    0.000;30108.70500
 546.41;30214.680;    5.004;    0.000;30209.67594
 546.69;30266.740;    5.885;    0.000;30260.85523
 546.97;30377.270;    3.510;    0.000;30373.75953
 547.25;30407.320;    5.443;    0.000;30401.87781
 547.52;30410.141;    6.606;    0.000;30403.53438
 547.80;30405.490;    4.670;    0.000;30400.82023
 548.08;30468.311;    2.263;    0.000;30466.04805
 548.36;30483.330;    4.355;    0.000;30478.97508
 548.64;30627.029;    4.756;    0.000;30622.27305
 548.92;30580.609;    3.705;    0.000;30576.90438
 549.20;30680.170;    3.259;    0.000;30676.91117
 549.48;30613.641;    4.170;    0.000;30609.47062
 549.76;30685.770;    4.735;    0.000;30681.03453
 550.04;30756.939;    5.597;    0.000;30751.34195
 550.31;30735.500;    1.956;    0.000;30733.54375
 550.59;30779.619;    3.471;    0.000;30776.14789
 550.87;30804.311;    2.305;    0.000;30802.00555
 551.15;30805.961;    5.196;    0.000;30800.76469
 551.43;30844.350;    2.901;    0.000;30841.44836
 551.71;30881.430;    4.271;    0.000;30877.15844
 551.99;30796.961;    2.554;    0.000;30794.40719
 552.27;30896.350;    4.544;    0.000;30891.80586
 552.54;30861.850;    3.098;    0.000;30858.75211
 552.82;30982.461;    2.580;    0.000;30979.88094
 553.10;30992.051;    3.609;    0.000;30988.44203
 553.38;30948.439;    5.986;    0.000;30942.45320
 553.66;30977.131;    4.290;    0.000;30972.84086
 553.94;31028.320;    0.865;    0.000;31027.45531
 554.22;31015.461;    4.026;    0.000;31011.43469
 554.49;30990.131;    1.909;    0.000;30988.22211
 554.77;30944.311;    3.175;    0.000;30941.13555
 555.05;30977.461;    4.770;    0.000;30972.69094
 555.33;31043.410;    3.230;    0.000;31040.18016
 555.61;31028.689;    3.481;    0.000;31025.20820
 555.89;30965.949;    0.751;    0.000;30965.19797
 556.16;31041.029;    1.086;    0.000;31039.94305
 556.44;31025.529;    1.997;    0.000;31023.53180
 556.72;30978.230;    5.874;    0.000;30972.35672
 557.00;30988.699;    2.216;    0.000;30986.48297
 557.28;31058.859;    2.520;    0.000;31056.33938
 557.56;31015.881;    1.341;    0.000;31014.53961
 557.83;30952.260;    6.726;    0.000;30945.53352
 558.11;30930.869;    6.404;    0.000;30924.46539
 558.39;30902.080;    2.997;    0.000;30899.08258
 558.67;30924.551;    1.645;    0.000;30922.90578
 558.95;30948.920;    1.871;    0.000;30947.04867
 559.23;30912.789;    3.966;    0.000;30908.82281
 559.50;30892.869;    3.114;    0.000;30889.75539
 559.78;30903.221;    2.484;    0.000;30900.73695
 560.06;30862.551;    3.674;    0.000;30858.87703
 560.34;30811.449;    4.381;    0.000;30807.06797
 560.62;30837.461;    5.099;    0.000;30832.36219
 560.89;30734.039;    3.236;    0.000;30730.80281
 561.17;30693.539;    3.039;    0.000;30690.50031
 561.45;30686.189;    6.720;    0.000;30679.46945
 561.73;30591.740;    3.614;    0.000;30588.12648
 562.00;30593.580;    1.837;    0.000;30591.74258
 562.28;30590.539;    4.736;    0.000;30585.80281
 562.56;30531.070;    3.688;    0.000;30527.38281
 562.84;30481.260;    5.670;    0.000;30475.58977
 563.12;30517.539;    1.199;    0.000;30516.34031
 563.39;30420.350;    2.850;    0.000;30417.49961
 563.67;30468.641;    4.331;    0.000;30464.30937
 563.95;30342.039;    3.725;    0.000;30338.31406
 564.23;30363.740;    0.817;    0.000;30362.92273
 564.50;30265.680;    3.756;    0.000;30261.92344
 564.78;30232.141;    4.778;    0.000;30227.36312
 565.06;30139.070;    4.095;    0.000;30134.97531
 565.34;30126.939;    3.490;    0.000;30123.44945
 565.61;30115.740;    3.579;    0.000;30112.16148
 565.89;30028.150;    4.356;    0.000;30023.79414
 566.17;29993.961;    1.107;    0.000;29992.85344
 566.45;29979.189;    3.446;    0.000;29975.74320
 566.73;29879.221;    4.733;    0.000;29874.48820
 567.00;29854.801;    2.011;    0.000;29852.78953
 567.28;29772.350;    4.403;    0.000;29767.94711
 567.56;29769.740;    4.230;    0.000;29765.51023
 567.83;29646.020;    4.820;    0.000;29641.19953
 568.11;29560.631;    4.360;    0.000;29556.27086
 568.39;29514.090;    3.311;    0.000;29510.77859
 568.67;29426.400;    4.975;    0.000;29421.42539
 568.94;29452.600;    4.472;    0.000;29448.12711
 569.22;29305.330;    2.889;    0.000;29302.44133
 569.50;29303.080;    2.293;    0.000;29300.78758
 569.78;29183.311;    0.215;    0.000;29183.09555
 570.05;29175.461;    2.606;    0.000;29172.85469
 570.33;29093.400;    2.001;    0.000;29091.39914
 570.61;28997.039;    5.050;    0.000;28991.98906
 570.88;28911.230;    1.764;    0.000;28909.46672
 571.16;28798.811;    2.787;    0.000;28796.02305
 571.44;28699.109;    0.548;    0.000;28698.56187
 571.72;28663.619;    2.101;    0.000;28661.51789
 571.99;28590.330;    2.487;    0.000;28587.84258
 572.27;28525.199;    2.940;    0.000;28522.25922
 572.55;28447.100;    2.769;    0.000;28444.33086
 572.82;28303.869;    3.071;    0.000;28300.79789
 573.10;28237.289;    4.463;    0.000;28232.82656
 573.38;28135.561;    4.084;    0.000;28131.47680
 573.65;28078.330;    4.691;    0.000;28073.63883
 573.93;28012.680;    2.601;    0.000;28010.07844
 574.21;27941.330;    2.024;    0.000;27939.30633
 574.48;27780.131;    4.831;    0.000;27775.29961
 574.76;27744.811;    4.536;    0.000;27740.27430
 575.04;27639.289;    5.972;    0.000;27633.31656
 575.32;27581.211;    0.036;    0.000;27581.17469
 575.59;27452.439;    5.807;    0.000;27446.63195
 575.87;27330.980;    3.089;    0.000;27327.89172
 576.15;27258.449;    4.832;    0.000;27253.61672
 576.42;27162.609;    1.260;    0.000;27161.34938
 576.70;26964.631;    2.868;    0.000;26961.76336
 576.98;26982.961;    4.479;    0.000;26978.48219
 577.25;26833.211;    3.994;    0.000;26829.21719
 577.53;26783.699;    2.311;    0.000;26781.38797
 577.80;26662.949;    4.555;    0.000;26658.39422
 578.08;26600.750;    1.016;    0.000;26599.73375
 578.36;26459.770;    3.935;    0.000;26455.83453
 578.63;26365.170;    2.959;    0.000;26362.21117
 578.91;26286.801;    3.149;    0.000;26283.65203
 579.19;26183.020;    3.899;    0.000;26179.12078
 579.46;26063.619;    3.882;    0.000;26059.73664
 579.74;25915.971;    0.826;    0.000;25915.14445
 580.02;25850.350;    0.681;    0.000;25849.66836
 580.29;25767.721;    3.734;    0.000;25763.98695
 580.57;25631.980;    2.340;    0.000;25629.64047
 580.84;25533.619;    1.306;    0.000;25532.31289
 581.12;25397.920;    4.154;    0.000;25393.76617
 581.40;25270.490;    2.944;    0.000;25267.54648
 581.67;25183.010;    4.294;    0.000;25178.71602
 581.95;25076.900;    1.742;    0.000;25075.15789
 582.23;24905.480;    2.881;    0.000;24902.59922
 582.50;24753.619;    4.459;    0.000;24749.16039
 582.78;24605.051;    2.859;    0.000;24602.19203
 583.05;24478.439;    3.785;    0.000;24474.65445
 583.33;24453.900;    2.399;    0.000;24451.50164
 583.61;24299.439;    6.227;    0.000;24293.21195
 583.88;24151.730;    3.654;    0.000;24148.07672
 584.16;24050.650;    1.746;    0.000;24048.90414
 584.43;23960.590;    3.211;    0.000;23957.37859
 584.71;23900.230;    2.947;    0.000;23897.28297
 584.99;23726.930;    3.717;    0.000;23723.21219
 585.26;23617.279;    2.017;    0.000;23615.26180
 585.54;23500.330;    1.204;    0.000;23499.12633
 585.81;23381.221;    4.169;    0.000;23377.05195
 586.09;23297.051;    3.445;    0.000;23293.60578
 586.37;23140.910;    1.883;    0.000;23139.02766
 586.64;23027.391;    4.314;    0.000;23023.07688
 586.92;22883.061;    1.679;    0.000;22881.38180
 587.19;22789.420;    3.080;    0.000;22786.33992
 587.47;22661.061;    2.747;    0.000;22658.31305
 587.74;22574.109;    4.613;    0.000;22569.49687
 588.02;22412.189;    4.313;    0.000;22407.87695
 588.30;22295.430;    3.340;    0.000;22292.08969
 588.57;22170.820;    3.376;    0.000;22167.44406
 588.85;22065.529;    4.094;    0.000;22061.43555
 589.12;21940.711;    4.117;    0.000;21936.59344
 589.40;21771.699;    2.787;    0.000;21768.91172
 589.67;21679.359;    2.685;    0.000;21676.67438
 589.95;21592.990;    7.534;    0.000;21585.45648
 590.22;21554.561;    2.001;    0.000;21552.55930
 590.50;21381.689;    3.696;    0.000;21377.99320
 590.77;21248.529;    1.840;    0.000;21246.68930
 591.05;21151.199;    4.359;    0.000;21146.84047
 591.33;20968.439;    1.175;    0.000;20967.26445
 591.60;20935.939;    1.119;    0.000;20934.82070
 591.88;20755.980;    4.168;    0.000;20751.81297
 592.15;20645.869;    3.402;    0.000;20642.46664
 592.43;20474.070;    2.320;    0.000;20471.75031
 592.70;20287.850;    3.095;    0.000;20284.75461
 592.98;20243.439;    3.245;    0.000;20240.19445
 593.25;20103.070;    3.697;    0.000;20099.37281
 593.53;19975.100;    2.335;    0.000;19972.76461
 593.80;19853.109;    3.291;    0.000;19849.81813
 594.08;19723.859;    1.874;    0.000;19721.98563
 594.35;19548.131;    4.060;    0.000;19544.07086
 594.63;19461.980;    2.872;    0.000;19459.10797
 594.90;19316.939;    2.609;    0.000;19314.33070
 595.18;19220.010;    3.821;    0.000;19216.18852
 595.45;19085.000;    4.101;    0.000;19080.89875
 595.73;18889.480;    3.088;    0.000;18886.39297
 596.00;18769.881;    5.176;    0.000;18764.70461
 596.28;18704.850;    2.150;    0.000;18702.69961
 596.55;18533.150;    4.939;    0.000;18528.21164
 596.83;18401.150;    1.852;    0.000;18399.29789
 597.10;18267.539;    4.657;    0.000;18262.88156
 597.38;18172.859;    3.055;    0.000;18169.80437
 597.65;18032.430;    2.369;    0.000;18030.06094
 597.93;17869.811;    0.613;    0.000;17869.19805
 598.20;17760.289;    3.918;    0.000;17756.37156
 598.48;17673.439;    1.860;    0.000;17671.57945
 598.75;17521.570;    3.500;    0.000;17518.07031
 599.03;17363.400;    4.341;    0.000;17359.05914
 599.30;17296.900;    1.952;    0.000;17294.94789
 599.58;17145.801;    3.211;    0.000;17142.58953
 599.85;17002.990;    5.479;    0.000;16997.51148
 600.12;16888.480;    2.605;    0.000;16885.87547
 600.40;16749.391;    4.610;    0.000;16744.78062
 600.67;16614.740;    3.875;    0.000;16610.86523
 600.95;16524.301;    3.932;    0.000;16520.36828
 601.22;16383.030;    4.343;    0.000;16378.68777
 601.50;16274.000;    3.861;    0.000;16270.13875
 601.77;16149.210;    2.813;    0.000;16146.39746
 602.05;16041.370;    3.898;    0.000;16037.47262
 602.32;15921.480;    2.983;    0.000;15918.49797
 602.59;15861.330;    2.529;    0.000;15858.80133
 602.87;15709.740;    4.855;    0.000;15704.88523
 603.14;15564.410;    3.612;    0.000;15560.79766
 603.42;15406.160;    2.557;    0.000;15403.60266
 603.69;15362.940;    1.731;    0.000;15361.20918
 603.97;15269.820;    4.331;    0.000;15265.48906
 604.24;15146.790;    3.800;    0.000;15142.99004
 604.51;15028.400;    3.688;    0.000;15024.71289
 604.79;14954.620;    3.882;    0.000;14950.73762
 605.06;14833.600;    3.945;    0.000;14829.65461
 605.34;14729.280;    4.537;    0.000;14724.74277
 605.61;14628.680;    2.057;    0.000;14626.62219
 605.89;14494.690;    3.287;    0.000;14491.40293
 606.16;14409.330;    4.349;    0.000;14404.98133
 606.43;14337.950;    5.481;    0.000;14332.46895
 606.71;14213.040;    2.475;    0.000;14210.56504
 606.98;14181.040;    2.328;    0.000;14178.71254
 607.26;14038.750;    3.761;    0.000;14034.98875
 607.53;13966.360;    2.716;    0.000;13963.64410
 607.80;13895.800;    2.881;    0.000;13892.91855
 608.08;13746.500;    3.045;    0.000;13743.45500
 608.35;13638.870;    3.132;    0.000;13635.73762
 608.62;13565.140;    2.546;    0.000;13562.59340
 608.90;13517.280;    1.881;    0.000;13515.39902
 609.17;13390.950;    1.808;    0.000;13389.14270
 609.45;13368.760;    3.072;    0.000;13365.68727
 609.72;13237.960;    4.076;    0.000;13233.88371
 609.99;13131.700;    1.740;    0.000;13129.96020
 610.27;13081.590;    3.930;    0.000;13077.65984
 610.54;12990.510;   -0.248;    0.000;12990.75727
 610.81;12873.800;    3.979;    0.000;12869.82105
 611.09;12797.860;    2.641;    0.000;12795.21910
 611.36;12697.700;    0.728;    0.000;12696.97270
 611.64;12651.090;    3.644;    0.000;12647.44609
 611.91;12587.370;    2.205;    0.000;12585.16512
 612.18;12470.880;    3.130;    0.000;12467.74988
 612.46;12386.650;    4.631;    0.000;12382.01914
 612.73;12310.080;    1.941;    0.000;12308.13883
 613.00;12217.310;    3.451;    0.000;12213.85832
 613.28;12082.670;    2.829;    0.000;12079.84117
 613.55;12030.200;    5.354;    0.000;12024.84645
 613.82;11913.530;    2.598;    0.000;11910.93277
 614.10;11793.350;    2.566;    0.000;11790.78336
 614.37;11700.900;    0.998;    0.000;11699.90289
 614.64;11565.200;    1.727;    0.000;11563.47270
 614.92;11422.750;    1.755;    0.000;11420.99500
 615.19;11301.020;    3.310;    0.000;11297.70953
 615.46;11168.250;    3.815;    0.000;11164.43500
 615.74;11037.540;    3.493;    0.000;11034.04754
 616.01;10814.620;   -0.661;    0.000;10815.28137
 616.28;10653.710;    3.483;    0.000;10650.22746
 616.56;10463.360;    1.890;    0.000;10461.47035
 616.83;10342.380;    2.476;    0.000;10339.90363
 617.10;10228.000;    4.282;    0.000;10223.71750
 617.37;10205.490;    2.747;    0.000;10202.74273
 617.65;10268.300;    1.979;    0.000;10266.32105
 617.92;10374.110;    3.259;    0.000;10370.85160
 618.19;10308.830;    3.304;    0.000;10305.52633
 618.47;10230.720;    2.418;    0.000;10228.30223
 618.74;10146.860;    2.545;    0.000;10144.31535
 619.01;10101.390;    5.466;    0.000;10095.92340
 619.28;10045.950;    6.039;    0.000;10039.91145
 619.56;10039.200;    4.155;    0.000;10035.04520
 619.83; 9952.130;    3.957;    0.000;9948.17238
 620.10; 9915.460;    3.467;    0.000;9911.99246
 620.38; 9839.410;    2.330;    0.000;9837.08016
 620.65; 9751.150;    3.352;    0.000;9747.79789
 620.92; 9754.230;    2.168;    0.000;9752.06297
 621.19; 9741.900;    4.168;    0.000;9737.73289
 621.47; 9730.820;    0.951;    0.000;9729.86906
 621.74; 9786.390;    4.323;    0.000;9782.06715
 622.01; 9760.850;    1.462;    0.000;9759.38711
 622.28; 9759.160;    4.025;    0.000;9755.13516
 622.56; 9743.530;    2.351;    0.000;9741.17902
 622.83; 9688.020;    1.730;    0.000;9686.28953
 623.10; 9646.100;    2.729;    0.000;9643.37086
 623.38; 9656.370;    2.005;    0.000;9654.36512
 623.65; 9559.550;    4.239;    0.000;9555.31105
 623.92; 9506.650;    1.536;    0.000;9505.11414
 624.19; 9499.410;   -0.880;    0.000;9500.29016
 624.46; 9454.260;    3.061;    0.000;9451.19852
 624.74; 9404.780;    3.045;    0.000;9401.73527
 625.01; 9379.140;    5.025;    0.000;9374.11465
 625.28; 9340.520;    1.938;    0.000;9338.58203
 625.55; 9256.380;    1.933;    0.000;9254.44738
 625.83; 9230.610;    3.122;    0.000;9227.48785
 626.10; 9210.430;    3.759;    0.000;9206.67094
 626.37; 9159.020;    1.891;    0.000;9157.12828
 626.64; 9104.860;    2.188;    0.000;9102.67285
 626.92; 9095.600;    1.146;    0.000;9094.45336
 627.19; 9049.750;    3.395;    0.000;9046.35500
 627.46; 9015.760;    1.855;    0.000;9013.90477
 627.73; 8992.560;   -0.625;    0.000;8993.18457
 628.00; 8947.720;    4.034;    0.000;8943.68598
 628.28; 8908.840;    2.981;    0.000;8905.85859
 628.55; 8849.750;    0.068;    0.000;8849.68250
 628.82; 8822.670;    1.947;    0.000;8820.72242
 629.09; 8737.990;    4.360;    0.000;8733.63023
 629.36; 8740.220;    5.664;    0.000;8734.55598
 629.64; 8727.840;    0.757;    0.000;8727.08234
 629.91; 8649.370;    6.573;    0.000;8642.79762
 630.18; 8612.090;    3.014;    0.000;8609.07609
 630.45; 8560.030;    0.545;    0.000;8559.48527
 630.72; 8524.860;   -1.060;    0.000;8525.92035
 631.00; 8494.630;    1.430;    0.000;8493.19988
 631.27; 8487.890;    2.735;    0.000;8485.15465
 631.54; 8399.820;    1.822;    0.000;8397.99781
 631.81; 8393.020;    3.679;    0.000;8389.34078
 632.08; 8327.270;    3.724;    0.000;8323.54578
 632.35; 8311.010;    2.265;    0.000;8308.74477
 632.63; 8287.190;    4.170;    0.000;8283.02043
 632.90; 8268.640;    2.181;    0.000;8266.45840
 633.17; 8219.450;    1.319;    0.000;8218.13145
 633.44; 8195.630;    3.421;    0.000;8192.20863
 633.71; 8134.020;    3.719;    0.000;8130.30127
 633.98; 8139.660;    0.863;    0.000;8138.79766
 634.25; 8129.800;    4.139;    0.000;8125.66105
 634.53; 8098.260;    3.731;    0.000;8094.52852
 634.80; 8103.990;    2.301;    0.000;8101.68898
 635.07; 8073.160;    2.280;    0.000;8070.88016
 635.34; 8056.410;    4.559;    0.000;8051.85141
 635.61; 8090.700;    4.886;    0.000;8085.81395
 635.88; 8067.300;    2.765;    0.000;8064.53480
 636.15; 8077.360;    3.779;    0.000;8073.58111
 636.43; 8110.490;    3.138;    0.000;8107.35273
 636.70; 8099.580;    0.309;    0.000;8099.27133
 636.97; 8058.280;    0.026;    0.000;8058.25354
 637.24; 7956.170;    2.896;    0.000;7953.27367
 637.51; 7832.240;    4.227;    0.000;7828.01273
 637.78; 7702.180;    1.205;    0.000;7700.97518
 638.05; 7672.320;   -0.521;    0.000;7672.84107
 638.32; 7656.240;    4.594;    0.000;7651.64648
 638.60; 7563.550;    1.989;    0.000;7561.56105
 638.87; 7536.280;    0.371;    0.000;7535.90854
 639.14; 7520.280;    4.139;    0.000;7516.14104
 639.41; 7434.970;    0.873;    0.000;7434.09771
 639.68; 7392.440;    3.072;    0.000;7389.36744
 639.95; 7328.320;    1.040;    0.000;7327.27982
 640.22; 7279.230;    3.735;    0.000;7275.49498
 640.49; 7282.210;    2.639;    0.000;7279.57121
 640.76; 7192.270;    5.461;    0.000;7186.80877
 641.03; 7116.430;    0.767;    0.000;7115.66268
 641.30; 7029.490;    4.760;    0.000;7024.73023
 641.58; 6953.060;    0.679;    0.000;6952.38131
 641.85; 6840.540;    3.010;    0.000;6837.53004
 642.12; 6811.260;    1.204;    0.000;6810.05602
 642.39; 6763.590;    4.154;    0.000;6759.43609
 642.66; 6725.050;    1.847;    0.000;6723.20230
 642.93; 6687.320;    1.470;    0.000;6685.84982
 643.20; 6603.030;    1.317;    0.000;6601.71229
 643.47; 6574.920;    3.454;    0.000;6571.46617
 643.74; 6510.010;    0.748;    0.000;6509.26227
 644.01; 6506.810;    3.763;    0.000;6503.04756
 644.28; 6417.930;    0.605;    0.000;6417.32518
 644.55; 6382.850;    2.486;    0.000;6380.36385
 644.82; 6334.370;    2.384;    0.000;6331.98637
 645.09; 6310.680;    0.360;    0.000;6310.32018
 645.36; 6247.990;    3.155;    0.000;6244.83523
 645.63; 6234.240;    2.894;    0.000;6231.34648
 645.91; 6160.890;    3.947;    0.000;6156.94264
 646.18; 6134.800;    3.690;    0.000;6131.10980
 646.45; 6100.480;    0.995;    0.000;6099.48498
 646.72; 6062.710;    1.101;    0.000;6061.60871
 646.99; 6024.070;    1.396;    0.000;6022.67357
 647.26; 6018.100;    1.024;    0.000;6017.07635
 647.53; 5940.120;    1.119;    0.000;5939.00137
 647.80; 5927.010;    1.765;    0.000;5925.24477
 648.07; 5849.720;    0.945;    0.000;5848.77521
 648.34; 5837.150;    1.820;    0.000;5835.32990
 648.61; 5797.160;    1.154;    0.000;5796.00641
 648.88; 5769.580;    2.699;    0.000;5766.88133
 649.15; 5734.410;    1.045;    0.000;5733.36516
 649.42; 5686.690;    2.971;    0.000;5683.71869
 649.69; 5645.680;   -1.864;    0.000;5647.54393
 649.96; 5609.020;    0.123;    0.000;5608.89752
 650.23; 5592.000;   -1.247;    0.000;5593.24750
 650.50; 5525.700;    2.479;    0.000;5523.22145
 650.77; 5488.670;   -0.845;    0.000;5489.51492
 651.04; 5476.050;    4.423;    0.000;5471.62730
 651.31; 5457.310;    1.202;    0.000;5456.10756
 651.58; 5383.910;    1.992;    0.000;5381.91766
 651.85; 5368.280;    0.651;    0.000;5367.62854
 652.12; 5360.230;    1.250;    0.000;5358.97998
 652.39; 5325.810;    2.362;    0.000;5323.44756
 652.66; 5282.740;    3.281;    0.000;5279.45898
 652.93; 5246.520;    2.255;    0.000;5244.26502
 653.20; 5198.200;    2.949;    0.000;5195.25145
 653.47; 5175.160;    0.469;    0.000;5174.69141
 653.74; 5126.800;    4.386;    0.000;5122.41355
 654.01; 5096.910;    2.973;    0.000;5093.93766
 654.28; 5081.250;    1.301;    0.000;5079.94875
 654.55; 5053.120;   -1.832;    0.000;5054.95262
 654.81; 4983.320;    3.639;    0.000;4979.68107
 655.08; 4983.210;    0.624;    0.000;4982.58621
 655.35; 4926.250;    4.320;    0.000;4921.93000
 655.62; 4884.010;   -1.529;    0.000;4885.53852
 655.89; 4851.830;    2.852;    0.000;4848.97758
 656.16; 4800.520;    0.510;    0.000;4800.01002
 656.43; 4809.500;    3.440;    0.000;4806.06000
 656.70; 4750.860;    1.716;    0.000;4749.14361
 656.97; 4725.310;    2.947;    0.000;4722.36256
 657.24; 4708.320;    2.443;    0.000;4705.87732
 657.51; 4664.680;    5.190;    0.000;4659.49018
 657.78; 4669.520;    2.088;    0.000;4667.43252
 658.05; 4580.140;    2.378;    0.000;4577.76264
 658.32; 4594.570;    2.024;    0.000;4592.54607
 658.59; 4562.600;    2.130;    0.000;4560.47010
 658.86; 4511.500;    1.824;    0.000;4509.67625
 659.12; 4475.910;    2.666;    0.000;4473.24391
 659.39; 4432.010;    1.124;    0.000;4430.88602
 659.66; 4428.200;    3.401;    0.000;4424.79895
 659.93; 4402.520;    1.985;    0.000;4400.53502
 660.20; 4362.750;    3.110;    0.000;4359.64000
 660.47; 4329.290;    2.070;    0.000;4327.22004
 660.74; 4301.850;    1.519;    0.000;4300.33135
 661.01; 4263.130;    5.176;    0.000;4257.95363
 661.28; 4266.090;    1.305;    0.000;4264.78484
 661.55; 4237.460;    3.871;    0.000;4233.58871
 661.81; 4188.000;    0.349;    0.000;4187.65125
 662.08; 4147.200;   -1.056;    0.000;4148.25645
 662.35; 4110.130;    0.981;    0.000;4109.14863
 662.62; 4108.060;    0.535;    0.000;4107.52506
 662.89; 4074.150;    3.275;    0.000;4070.87490
 663.16; 4030.950;   -0.139;    0.000;4031.08870
 663.43; 4006.480;    1.344;    0.000;4005.13623
 663.70; 3995.380;    3.266;    0.000;3992.11363
 663.96; 3959.220;    1.253;    0.000;3957.96747
 664.23; 3923.960;    0.530;    0.000;3923.42996
 664.50; 3877.860;    2.487;    0.000;3875.37261
 664.77; 3864.910;   -0.877;    0.000;3865.78741
 665.04; 3850.660;    3.953;    0.000;3846.70741
 665.31; 3797.440;    0.842;    0.000;3796.59744
 665.58; 3759.060;    2.457;    0.000;3756.60256
 665.84; 3755.240;    0.780;    0.000;3754.45999
 666.11; 3745.100;    4.791;    0.000;3740.30885
 666.38; 3685.060;   -0.827;    0.000;3685.88756
 666.65; 3673.190;    2.049;    0.000;3671.14119
 666.92; 3659.950;   -1.602;    0.000;3661.55245
 667.19; 3607.780;    2.217;    0.000;3605.56253
 667.46; 3601.480;    0.044;    0.000;3601.43623
 667.72; 3561.710;    2.615;    0.000;3559.09496
 667.99; 3533.840;    1.617;    0.000;3532.22259
 668.26; 3528.050;    4.448;    0.000;3523.60255
 668.53; 3472.950;    1.530;    0.000;3471.41995
 668.80; 3496.130;    1.789;    0.000;3494.34113
 669.06; 3440.470;    3.941;    0.000;3436.52872
 669.33; 3401.900;    4.309;    0.000;3397.59115
 669.60; 3376.220;    0.438;    0.000;3375.78247
 669.87; 3364.750;    1.599;    0.000;3363.15125
 670.14; 3360.530;   -0.375;    0.000;3360.90503
 670.41; 3306.980;    1.401;    0.000;3305.57873
 670.67; 3301.360;    2.004;    0.000;3299.35636
 670.94; 3259.720;    0.808;    0.000;3258.91247
 671.21; 3237.230;    2.151;    0.000;3235.07873
 671.48; 3204.050;   -0.835;    0.000;3204.88505
 671.75; 3134.170;    2.424;    0.000;3131.74617
 672.01; 3175.220;    3.504;    0.000;3171.71622
 672.28; 3144.870;    1.559;    0.000;3143.31137
 672.55; 3115.930;    3.671;    0.000;3112.25868
 672.82; 3088.560;    1.102;    0.000;3087.45756
 673.08; 3073.720;    2.175;    0.000;3071.54497
 673.35; 3027.280;   -0.296;    0.000;3027.57628
 673.62; 3003.540;    0.715;    0.000;3002.82504
 673.89; 2984.130;   -1.376;    0.000;2985.50613
 674.16; 2950.130;    2.699;    0.000;2947.43113
 674.42; 2935.730;    3.569;    0.000;2932.16123
 674.69; 2911.030;    0.779;    0.000;2910.25128
 674.96; 2878.670;    1.980;    0.000;2876.68992
 675.23; 2874.770;    2.409;    0.000;2872.36127
 675.49; 2829.000;    1.455;    0.000;2827.54500
 675.76; 2810.260;    3.918;    0.000;2806.34251
 676.03; 2822.380;    2.640;    0.000;2819.73988
 676.30; 2770.300;    3.191;    0.000;2767.10880
 676.56; 2749.020;    1.544;    0.000;2747.47627
 676.83; 2753.530;    2.005;    0.000;2751.52503
 677.10; 2699.040;    0.876;    0.000;2698.16379
 677.37; 2707.410;    5.404;    0.000;2702.00616
 677.63; 2654.280;   -0.745;    0.000;2655.02503
 677.90; 2648.670;    4.010;    0.000;2644.65992
 678.17; 2627.690;    1.760;    0.000;2625.92994
 678.44; 2608.160;    2.400;    0.000;2605.75991
 678.70; 2575.630;    1.548;    0.000;2574.08238
 678.97; 2560.990;    1.459;    0.000;2559.53124
 679.24; 2545.180;    0.824;    0.000;2544.35618
 679.50; 2531.000;    2.297;    0.000;2528.70250
 679.77; 2510.120;    0.320;    0.000;2509.80012
 680.04; 2474.050;    0.405;    0.000;2473.64505
 680.31; 2451.360;   -0.887;    0.000;2452.24761
 680.57; 2433.480;    2.870;    0.000;2430.60998
 680.84; 2423.070;    1.740;    0.000;2421.33007
 681.11; 2402.880;    1.115;    0.000;2401.76488
 681.37; 2386.920;   -1.815;    0.000;2388.73492
 681.64; 2367.970;   -0.892;    0.000;2368.86247
 681.91; 2340.220;    4.430;    0.000;2335.78997
 682.17; 2344.780;    3.001;    0.000;2341.77878
 682.44; 2306.290;   -1.503;    0.000;2307.79254
 682.71; 2274.290;    3.140;    0.000;2271.15004
 682.98; 2260.050;    1.636;    0.000;2258.41380
 683.24; 2236.250;   -0.827;    0.000;2237.07750
 683.51; 2238.640;    0.954;    0.000;2237.68614
 683.78; 2217.090;    1.344;    0.000;2215.74634
 684.04; 2195.910;    1.450;    0.000;2194.45991
 684.31; 2168.320;    0.043;    0.000;2168.27757
 684.58; 2156.290;    1.136;    0.000;2155.15379
 684.84; 2151.780;    2.069;    0.000;2149.71128
 685.11; 2113.350;    3.858;    0.000;2109.49260
 685.38; 2127.810;    4.713;    0.000;2123.09756
 685.64; 2085.660;    0.870;    0.000;2084.78991
 685.91; 2073.670;   -0.069;    0.000;2073.73867
 686.17; 2059.230;    2.316;    0.000;2056.91373
 686.44; 2052.960;   -0.858;    0.000;2053.81746
 686.71; 2031.650;    1.816;    0.000;2029.83377
 686.97; 2007.600;   -1.670;    0.000;2009.26998
 687.24; 1984.890;    0.944;    0.000;1983.94626
 687.51; 1991.180;    0.550;    0.000;1990.63005
 687.77; 1951.070;    1.104;    0.000;1949.96620
 688.04; 1945.240;    1.634;    0.000;1943.60624
 688.31; 1921.570;    2.836;    0.000;1918.73370
 688.57; 1915.890;    1.955;    0.000;1913.93501
 688.84; 1888.860;    1.581;    0.000;1887.27874
 689.10; 1888.500;    3.057;    0.000;1885.44250
 689.37; 1868.460;    1.930;    0.000;1866.52996
 689.64; 1840.780;    0.310;    0.000;1840.47003
 689.90; 1835.490;    1.576;    0.000;1833.91374
 690.17; 1792.800;    3.089;    0.000;1789.71130
 690.44; 1802.210;   -0.029;    0.000;1802.23871
 690.70; 1778.550;    2.069;    0.000;1776.48130
 690.97; 1758.300;    0.464;    0.000;1757.83630
 691.23; 1748.720;    2.264;    0.000;1746.45622
 691.50; 1726.230;    0.368;    0.000;1725.86248
 691.77; 1715.440;    3.309;    0.000;1712.13119
 692.03; 1684.770;   -0.905;    0.000;1685.67502
 692.30; 1690.960;    1.190;    0.000;1689.76996
 692.56; 1666.330;    0.126;    0.000;1666.20371
 692.83; 1645.870;    0.384;    0.000;1645.48625
 693.10; 1650.980;    3.125;    0.000;1647.85498
 693.36; 1613.430;    2.911;    0.000;1610.51880
 693.63; 1584.800;    0.608;    0.000;1584.19255
 693.89; 1574.190;   -0.538;    0.000;1574.72744
 694.16; 1584.100;    0.642;    0.000;1583.45748
 694.42; 1548.720;    0.609;    0.000;1548.11122
 694.69; 1544.750;    3.661;    0.000;1541.08875
 694.96; 1549.590;    3.156;    0.000;1546.43372
 695.22; 1510.180;    2.274;    0.000;1507.90630
 695.49; 1509.560;    3.946;    0.000;1505.61381
 695.75; 1463.700;    2.188;    0.000;1461.51245
 696.02; 1464.220;    2.641;    0.000;1461.57872
 696.28; 1442.660;    2.575;    0.000;1440.08503
 696.55; 1433.640;    1.420;    0.000;1432.22001
 696.81; 1404.930;    1.639;    0.000;1403.29130
 697.08; 1404.130;    0.668;    0.000;1403.46250
 697.34; 1391.130;    0.815;    0.000;1390.31500
 697.61; 1362.740;    1.273;    0.000;1361.46749
 697.88; 1365.680;    0.400;    0.000;1365.28005
 698.14; 1331.350;    0.565;    0.000;1330.78498
 698.41; 1326.000;    2.316;    0.000;1323.68375
 698.67; 1317.080;    0.394;    0.000;1316.68621
 698.94; 1302.630;   -0.249;    0.000;1302.87875
 699.20; 1287.540;   -1.043;    0.000;1288.58254
 699.47; 1256.100;    3.237;    0.000;1252.86248
 699.73; 1237.690;    2.318;    0.000;1235.37244
 700.00; 1234.240;   -2.205;    0.000;1236.44499
 700.26; 1203.900;    1.921;    0.000;1201.97877
 700.53; 1193.130;   -0.345;    0.000;1193.47500
 700.79; 1193.230;    2.044;    0.000;1191.18623
 701.06; 1157.290;    1.224;    0.000;1156.06629
 701.32; 1155.050;    3.382;    0.000;1151.66755
 701.59; 1123.900;    0.240;    0.000;1123.66002
 701.85; 1130.320;   -1.337;    0.000;1131.65745
 702.12; 1102.070;   -0.553;    0.000;1102.62245
 702.38; 1089.620;    0.720;    0.000;1088.90000
 702.65; 1074.980;    2.704;    0.000;1072.27623
 702.91; 1066.210;    3.130;    0.000;1063.07996
 703.18; 1048.960;    0.159;    0.000;1048.80121
 703.44; 1009.910;    2.589;    0.000;1007.32122
 703.71; 1004.420;    0.451;    0.000;1003.96873
 703.97;  995.340;    1.933;    0.000;993.40753
 704.24;  982.290;    2.733;    0.000;979.55748
 704.50;  966.060;   -1.066;    0.000;967.12625
 704.76;  948.390;    0.973;    0.000;947.41751
 705.03;  949.660;    3.154;    0.000;946.50622
 705.29;  917.950;   -1.855;    0.000;919.80501
 705.56;  912.880;    0.824;    0.000;912.05625
 705.82;  886.330;    1.599;    0.000;884.73127
 706.09;  891.520;    3.196;    0.000;888.32377
 706.35;  852.470;   -0.994;    0.000;853.46372
 706.62;  867.910;    3.101;    0.000;864.80872
 706.88;  834.700;    0.259;    0.000;834.44126
 707.15;  809.400;    2.235;    0.000;807.16502
 707.41;  799.520;    1.023;    0.000;798.49752
 707.67;  803.550;    2.314;    0.000;801.23624
 707.94;  799.870;    0.341;    0.000;799.52875
 708.20;  751.640;    2.445;    0.000;749.19501
 708.47;  761.830;    0.235;    0.000;761.59502
 708.73;  741.800;    1.543;    0.000;740.25749
 709.00;  740.350;    1.543;    0.000;738.80748
 709.26;  727.750;    3.355;    0.000;724.39500
 709.52;  714.660;    1.150;    0.000;713.50997
 709.79;  711.080;    2.364;    0.000;708.71627
 710.05;  694.050;    1.482;    0.000;692.56749
 710.32;  677.000;    2.600;    0.000;674.40000
 710.58;  676.440;   -0.961;    0.000;677.40125
 710.84;  660.290;    3.686;    0.000;656.60373
 711.11;  659.760;    0.292;    0.000;659.46751
 711.37;  641.330;    3.571;    0.000;637.75877
 711.64;  629.560;    1.284;    0.000;628.27625
 711.90;  640.210;    3.639;    0.000;636.57127
 712.16;  617.900;    3.284;    0.000;614.61627
 712.43;  609.520;    1.572;    0.000;607.94752
 712.69;  601.890;    3.364;    0.000;598.52626
 712.96;  596.090;    2.591;    0.000;593.49878
 713.22;  572.720;    1.612;    0.000;571.10747
 713.48;  589.090;    0.123;    0.000;588.96753
 713.75;  574.500;   -1.460;    0.000;575.96000
 714.01;  578.500;    5.713;    0.000;572.78750
 714.27;  569.810;    1.730;    0.000;568.08000
 714.54;  564.890;    2.946;    0.000;561.94376
 714.80;  557.260;    1.184;    0.000;556.07626
 715.06;  542.260;    2.250;    0.000;540.01001
 715.33;  543.390;    1.124;    0.000;542.26626
 715.59;  530.810;    1.466;    0.000;529.34375
 715.86;  528.910;    3.069;    0.000;525.84122
 716.12;  522.020;    1.867;    0.000;520.15252
 716.38;  521.830;    2.986;    0.000;518.84377
 716.65;  508.800;    3.819;    0.000;504.98124
 716.91;  519.370;    0.629;    0.000;518.74125
 717.17;  503.970;    3.425;    0.000;500.54500
 717.44;  502.640;    2.554;    0.000;500.08626
 717.70;  493.910;    3.246;    0.000;490.66375
 717.96;  501.040;    0.561;    0.000;500.47876
 718.23;  483.520;   -0.406;    0.000;483.92624
 718.49;  483.910;    1.106;    0.000;482.80375
 718.75;  479.110;    4.903;    0.000;474.20749
 719.02;  466.070;    0.034;    0.000;466.03626
 719.28;  477.280;    0.564;    0.000;476.71625
 719.54;  469.040;    0.788;    0.000;468.25251
 719.80;  481.520;    2.293;    0.000;479.22749
 720.07;  471.070;   -0.094;    0.000;471.16376
 720.33;  469.110;    1.286;    0.000;467.82374
 720.59;  479.690;    1.628;    0.000;478.06250
 720.86;  456.110;   -1.405;    0.000;457.51499
 721.12;  473.410;    1.731;    0.000;471.67875
 721.38;  457.930;    4.088;    0.000;453.84249
 721.65;  451.760;   -0.108;    0.000;451.86751
 721.91;  478.830;   -0.026;    0.000;478.85624
 722.17;  441.270;   -0.304;    0.000;441.57374
 722.43;  445.690;    3.338;    0.000;442.35250
 722.70;  456.880;    0.495;    0.000;456.38500
 722.96;  452.220;    4.814;    0.000;447.40625
 723.22;  436.670;    2.186;    0.000;434.48376
 723.48;  440.480;    3.430;    0.000;437.05001
 723.75;  434.080;    2.215;    0.000;431.86499
 724.01;  444.860;    1.500;    0.000;443.35999
 724.27;  432.750;   -0.826;    0.000;433.57625
 724.54;  443.890;    2.814;    0.000;441.07626
 724.80;  438.180;   -1.109;    0.000;439.28874
 725.06;  432.170;    3.160;    0.000;429.01001
 725.32;  437.620;    2.344;    0.000;435.27625
 725.59;  435.730;    1.226;    0.000;434.50376
 725.85;  420.700;    2.034;    0.000;418.66626
 726.11;  434.970;    2.994;    0.000;431.97625
 726.37;  433.960;    3.204;    0.000;430.75624
 726.64;  444.380;    2.474;    0.000;441.90625
 726.90;  416.730;    3.596;    0.000;413.13376
 727.16;  428.020;    0.375;    0.000;427.64499
 727.42;  429.480;    0.449;    0.000;429.03126
 727.68;  415.860;    0.172;    0.000;415.68749
 727.95;  420.090;    2.132;    0.000;417.95750
 728.21;  427.510;    3.517;    0.000;423.99251
 728.47;  421.020;   -0.545;    0.000;421.56499
 728.73;  425.150;    3.100;    0.000;422.04999
 729.00;  406.830;    0.755;    0.000;406.07499
 729.26;  422.160;    0.587;    0.000;421.57250
 729.52;  400.750;   -0.405;    0.000;401.15500
 729.78;  410.070;   -2.089;    0.000;412.15876
 730.04;  411.220;    4.343;    0.000;406.87750
 730.31;  410.390;    3.566;    0.000;406.82376
 730.57;  391.210;    4.318;    0.000;386.89249
 730.83;  396.140;    2.994;    0.000;393.14626
 731.09;  410.840;   -0.604;    0.000;411.44375
 731.35;  397.410;    2.505;    0.000;394.90500
 731.62;  397.360;    0.100;    0.000;397.25999
 731.88;  392.330;    1.690;    0.000;390.63999
 732.14;  392.460;   -1.254;    0.000;393.71374
 732.40;  383.060;    3.940;    0.000;379.12000
 732.66;  394.870;    1.069;    0.000;393.80125
 732.92;  379.440;    2.316;    0.000;377.12375
 733.19;  380.910;    1.539;    0.000;379.37125
 733.45;  382.390;    5.839;    0.000;376.55126
 733.71;  387.600;    1.001;    0.000;386.59876
 733.97;  404.910;    3.849;    0.000;401.06125
 734.23;  382.490;   -2.451;    0.000;384.94124
 734.49;  364.500;    3.328;    0.000;361.17250
 734.76;  368.390;    1.984;    0.000;366.40626
 735.02;  363.220;    1.000;    0.000;362.22000
 735.28;  371.710;    1.494;    0.000;370.21624
 735.54;  359.420;    2.599;    0.000;356.82126
 735.80;  350.490;    3.059;    0.000;347.43124
 736.06;  358.460;    1.774;    0.000;356.68624
 736.32;  345.250;   -0.745;    0.000;345.99500
 736.59;  347.980;    1.776;    0.000;346.20376
 736.85;  352.960;    2.046;    0.000;350.91374
 737.11;  334.440;    1.040;    0.000;333.40000
 737.37;  343.730;   -0.538;    0.000;344.26751
 737.63;  334.030;    2.409;    0.000;331.62125
 737.89;  346.180;   -0.147;    0.000;346.32749
 738.15;  335.800;    2.342;    0.000;333.45749
 738.41;  329.670;   -1.143;    0.000;330.81251
 738.67;  331.660;    0.023;    0.000;331.63750
 738.94;  308.860;   -1.278;    0.000;310.13749
 739.20;  307.040;   -0.135;    0.000;307.17501
 739.46;  333.850;    1.821;    0.000;332.02876
 739.72;  305.280;    2.342;    0.000;302.93750
 739.98;  311.470;   -0.039;    0.000;311.50875
 740.24;  312.120;    1.996;    0.000;310.12375
 740.50;  294.590;    2.144;    0.000;292.44625
 740.76;  298.470;    4.496;    0.000;293.97375
 741.02;  291.640;    2.037;    0.000;289.60251
 741.28;  302.950;    4.015;    0.000;298.93501
 741.54;  294.000;    2.483;    0.000;291.51750
 741.81;  297.090;    3.010;    0.000;294.08000
 742.07;  274.300;    1.163;    0.000;273.13749
 742.33;  287.070;    2.645;    0.000;284.42501
 742.59;  286.090;    1.821;    0.000;284.26875
 742.85;  283.830;    0.298;    0.000;283.53249
 743.11;  270.420;    1.705;    0.000;268.71501
 743.37;  264.690;    0.685;    0.000;264.00500
 743.63;  252.190;    4.071;    0.000;248.11875
 743.89;  266.950;    4.113;    0.000;262.83751
 744.15;  256.330;    0.405;    0.000;255.92499
 744.41;  253.020;   -1.540;    0.000;254.56000
 744.67;  254.290;    1.661;    0.000;252.62874
 744.93;  258.690;    0.085;    0.000;258.60500
 745.19;  244.200;    2.245;    0.000;241.95500
 745.45;  247.640;    0.485;    0.000;247.15500
 745.71;  239.080;    1.388;    0.000;237.69250
 745.97;  242.270;    1.060;    0.000;241.21000
 746.23;  226.720;    1.283;    0.000;225.43750
 746.49;  225.060;    3.820;    0.000;221.24000
 746.75;  236.130;    3.335;    0.000;232.79500
 747.02;  219.780;    1.569;    0.000;218.21125
 747.28;  219.060;   -0.540;    0.000;219.60000
 747.54;  224.990;    2.818;    0.000;222.17251
 747.80;  211.560;   -1.074;    0.000;212.63375
 748.06;  217.910;   -5.407;    0.000;223.31750
 748.32;  210.090;    3.335;    0.000;206.75500
 748.58;  205.510;    4.275;    0.000;201.23499
 748.84;  201.760;    1.499;    0.000;200.26124
 749.10;  285.100;    9.339;    0.000;275.76126
 749.36;  199.050;    2.190;    0.000;196.86000
 749.62;  197.630;    2.432;    0.000;195.19750
 749.88;  196.950;    1.871;    0.000;195.07875
 750.14;  185.430;    3.449;    0.000;181.98124
 750.40;  186.510;   -1.523;    0.000;188.03249
 750.66;  185.340;    5.100;    0.000;180.24000
 750.91;  176.870;    1.121;    0.000;175.74875
 751.17;  169.130;    4.999;    0.000;164.13125
 751.43;  171.060;   -1.806;    0.000;172.86625
 751.69;  177.890;    4.175;    0.000;173.71500
 751.95;  163.610;    1.244;    0.000;162.36625
 752.21;  174.680;    2.675;    0.000;172.00499
 752.47;  157.730;    1.139;    0.000;156.59125
 752.73;  158.400;    3.609;    0.000;154.79124
 752.99;  153.270;   -0.211;    0.000;153.48125
 753.25;  157.280;    2.358;    0.000;154.92250
 753.51;  164.250;    1.201;    0.000;163.04875
 753.77;  152.190;    1.548;    0.000;150.64250
 754.03;  144.970;    0.859;    0.000;144.11125
 754.29;  149.490;    1.796;    0.000;147.69376
 754.55;  161.300;    3.635;    0.000;157.66500
 754.81;  138.430;    2.146;    0.000;136.28374
 755.07;  145.430;    0.389;    0.000;145.04124
 755.33;  136.350;    2.674;    0.000;133.67626
 755.59;  129.220;    1.291;    0.000;127.92875
 755.85;  128.420;    1.286;    0.000;127.13375
 756.10;  144.490;    2.474;    0.000;142.01626
 756.36;  126.790;    1.336;    0.000;125.45375
 756.62;  115.050;    1.236;    0.000;113.81375
 756.88;  119.780;    1.444;    0.000;118.33625
 757.14;  124.830;    1.900;    0.000;122.93000
 757.40;  125.800;    3.004;    0.000;122.79625
 757.66;  118.210;    2.839;    0.000;115.37125
 757.92;  117.220;    2.434;    0.000;114.78625
 758.18;  116.670;    1.880;    0.000;114.79000
 758.44;  115.110;    1.215;    0.000;113.89500
 758.70;  113.500;    1.508;    0.000;111.99250
 758.95;  118.670;   -0.256;    0.000;118.92625
 759.21;  111.440;    0.169;    0.000;111.27125
 759.47;  114.120;    4.939;    0.000;109.18125
 759.73;   88.420;    0.292;    0.000;88.12750
 759.99;   97.120;    3.420;    0.000;93.70000
 760.25;   97.620;    0.416;    0.000;97.20375
 760.51;   99.600;   -0.933;    0.000;100.53250
 760.77;   98.370;    3.746;    0.000;94.62375
 761.02;  107.830;    3.771;    0.000;104.05875
 761.28;   98.980;    1.756;    0.000;97.22375
 761.54;   97.950;    3.152;    0.000;94.79750
 761.80;   88.930;    2.394;    0.000;86.53625
 762.06;   95.670;    2.415;    0.000;93.25500
 762.32;   87.520;   -0.226;    0.000;87.74625
 762.58;   83.410;    0.177;    0.000;83.23250
 762.83;   97.990;    2.280;    0.000;95.71000
 763.09;   96.370;    4.425;    0.000;91.94500
 763.35;   78.280;    2.086;    0.000;76.19375
 763.61;   91.690;    3.421;    0.000;88.26875
 763.87;   90.500;    2.898;    0.000;87.60250
 764.13;   85.720;    2.771;    0.000;82.94875
 764.38;   78.390;    0.603;    0.000;77.78750
 764.64;   72.720;    0.809;    0.000;71.91125
 764.90;   74.340;    2.140;    0.000;72.20000
 765.16;   74.540;    2.909;    0.000;71.63125
 765.42;   84.100;    1.378;    0.000;82.72250
 765.68;   62.660;    1.506;    0.000;61.15375
 765.93;   62.590;    0.826;    0.000;61.76375
 766.19;   79.020;    1.595;    0.000;77.42500
 766.45;   60.300;    3.033;    0.000;57.26750
 766.71;   75.930;    1.970;    0.000;73.96000
 766.97;   65.990;    1.930;    0.000;64.06000
 767.22;   76.960;    0.001;    0.000;76.95875
 767.48;   61.070;    2.169;    0.000;58.90125
 767.74;   62.630;    3.239;    0.000;59.39125
 768.00;   63.220;    0.127;    0.000;63.09250
 768.26;   57.400;    2.041;    0.000;55.35875
 768.51;   64.670;    1.921;    0.000;62.74875
 768.77;   70.810;    2.866;    0.000;67.94375
 769.03;   54.820;    1.215;    0.000;53.60500
 769.29;   59.820;    3.609;    0.000;56.21125
 769.54;   47.540;   -1.861;    0.000;49.40125
 769.80;   56.380;    1.023;    0.000;55.35750
 770.06;   46.310;   -2.848;    0.000;49.15750
 770.32;   53.080;    3.336;    0.000;49.74375
 770.57;   46.630;    3.290;    0.000;43.34000
 770.83;   60.250;    2.001;    0.000;58.24875
 771.09;   37.630;    0.305;    0.000;37.32500
 771.35;   48.780;   -0.986;    0.000;49.76625
 771.61;   45.000;    3.224;    0.000;41.77625
 771.86;   59.740;    2.035;    0.000;57.70500
 772.12;   46.010;    2.678;    0.000;43.33250
 772.38;   46.060;    2.819;    0.000;43.24125
 772.63;   41.680;    2.169;    0.000;39.51125
 772.89;   48.980;    1.089;    0.000;47.89125
 773.15;   45.970;    3.095;    0.000;42.87500
 773.41;   47.340;    2.499;    0.000;44.84125
 773.66;   48.090;    2.453;    0.000;45.63750
 773.92;   50.110;    2.392;    0.000;47.71750
 774.18;   49.650;    0.616;    0.000;49.03375
 774.44;   39.830;    2.901;    0.000;36.92875
 774.69;   41.390;    2.365;    0.000;39.02500
 774.95;   38.530;    1.592;    0.000;36.93750
 775.21;   48.200;    3.401;    0.000;44.79875
 775.46;   24.720;    2.118;    0.000;22.60250
 775.72;   36.180;   -0.757;    0.000;36.93750
 775.98;   42.560;    2.870;    0.000;39.69000
 776.24;   32.760;    0.654;    0.000;32.10625
 776.49;   37.260;    0.461;    0.000;36.79875
 776.75;   35.820;   -0.097;    0.000;35.91750
 777.01;   24.510;    2.346;    0.000;22.16375
 777.26;   48.080;   -0.501;    0.000;48.58125
 777.52;   37.150;    3.513;    0.000;33.63750
 777.78;   31.040;    2.825;    0.000;28.21500
 778.03;   32.120;    4.813;    0.000;27.30750
 778.29;   31.570;   -1.135;    0.000;32.70500
 778.55;   30.110;    4.461;    0.000;25.64875
 778.80;   29.120;    4.707;    0.000;24.41250
 779.06;   25.940;    1.582;    0.000;24.35750
 779.32;   21.760;   -1.487;    0.000;23.24750
 779.57;   16.080;    5.735;    0.000;10.34500
 779.83;   27.520;    0.904;    0.000;26.61625
 780.09;   24.400;    4.139;    0.000;20.26125
 780.34;   31.110;    2.516;    0.000;28.59375
 780.60;   27.100;    5.276;    0.000;21.82375
 780.86;   24.380;    1.526;    0.000;22.85375
 781.11;   29.710;    2.318;    0.000;27.39250
 781.37;   16.900;    0.714;    0.000;16.18625
 781.63;   26.620;    0.601;    0.000;26.01875
 781.88;   12.210;    0.507;    0.000;11.70250
 782.14;   22.540;    2.296;    0.000;20.24375
 782.39;   23.650;    1.691;    0.000;21.95875
 782.65;   18.430;    0.065;    0.000;18.36500
 782.91;   24.370;    2.026;    0.000;22.34375
 783.16;   22.590;    1.395;    0.000;21.19500
 783.42;    1.780;    0.733;    0.000; 1.04750
 783.67;   19.260;    2.081;    0.000;17.17875
 783.93;   16.550;    0.939;    0.000;15.61125
 784.19;   18.290;    1.356;    0.000;16.93375
 784.44;   25.190;    2.641;    0.000;22.54875
 784.70;   25.490;    3.922;    0.000;21.56750
 784.96;    2.840;   -0.010;    0.000; 2.85000
 785.21;    6.780;    0.863;    0.000; 5.91750
 785.47;   33.330;    1.643;    0.000;31.68750
 785.72;   19.720;    0.114;    0.000;19.60625
 785.98;    7.400;   -0.705;    0.000; 8.10500
 786.23;    1.240;    1.793;    0.000;-0.55250
 786.49;    0.270;    0.989;    0.000;-0.71875
 786.75;    7.500;    3.019;    0.000; 4.48125
 787.00;    6.790;    0.529;    0.000; 6.26125
 787.26;    7.220;    1.590;    0.000; 5.63000
 787.51;   14.170;    0.141;    0.000;14.02875
 787.77;   14.020;    1.200;    0.000;12.82000
 788.02;   16.920;    1.789;    0.000;15.13125
 788.28;   -1.320;    0.800;    0.000;-2.12000
 788.54;   -0.560;   -0.199;    0.000;-0.36125
 788.79;   11.380;    0.516;    0.000;10.86375
 789.05;   -2.500;    3.386;    0.000;-5.88625
 789.30;   -5.370;    5.298;    0.000;-10.66750
 789.56;   -8.030;    1.327;    0.000;-9.35750
 789.81;   -5.910;    2.234;    0.000;-8.14375
 790.07;   -2.920;   -0.301;    0.000;-2.61875
 790.32;    9.500;    1.149;    0.000; 8.35125
 790.58;   -0.720;    1.655;    0.000;-2.37500
 790.83;    3.530;    5.036;    0.000;-1.50625
 791.09;   -6.910;    0.239;    0.000;-7.14875
 791.35;   -9.940;    0.884;    0.000;-10.82375
 791.60;   -7.030;    1.294;    0.000;-8.32375
 791.86;   -5.610;    3.580;    0.000;-9.19000
 792.11;    1.540;    0.661;    0.000; 0.87875
 792.37;   -3.100;    2.549;    0.000;-5.64875
 792.62;   -1.665;    2.610;    0.000;-4.27500
 792.88;   -0.230;    2.671;    0.000;-2.90125
 793.13;   -8.420;    1.554;    0.000;-9.97375
 793.39;  -12.770;    2.964;    0.000;-15.73375
 793.64;   -8.590;    1.725;    0.000;-10.31500
 793.90;   -7.830;    0.824;    0.000;-8.65375
 794.15;   -3.490;    4.068;    0.000;-7.55750
 794.41;   -5.140;    2.352;    0.000;-7.49250
 794.66;   -7.670;    1.508;    0.000;-9.17750
 794.92;  -13.590;    4.101;    0.000;-17.69125
 795.17;  -18.620;   -0.748;    0.000;-17.87250
 795.43;  -14.210;    2.310;    0.000;-16.52000
 795.68;   -1.560;    1.050;    0.000;-2.61000
 795.94;  -10.770;    2.206;    0.000;-12.97625
 796.19;  -12.880;    2.890;    0.000;-15.77000
 796.44;  -13.310;    2.810;    0.000;-16.12000
 796.70;  -14.340;   -0.166;    0.000;-14.17375
 796.95;    0.820;    4.159;    0.000;-3.33875
 797.21;  -19.730;    0.479;    0.000;-20.20875
 797.46;  -18.280;   -2.271;    0.000;-16.00875
 797.72;  -18.830;   -0.439;    0.000;-18.39125
 797.97;  -22.510;    0.895;    0.000;-23.40500
 798.23;  -24.100;    5.259;    0.000;-29.35875
 798.48;   -4.590;    0.045;    0.000;-4.63500
 798.74;  -12.250;    0.639;    0.000;-12.88875
 798.99;  -16.330;    2.686;    0.000;-19.01625
 799.24;  -18.430;    3.122;    0.000;-21.55250
 799.50;  -10.030;    1.000;    0.000;-11.03000
 799.75;  -18.730;   -0.770;    0.000;-17.96000
 800.01;  -20.390;   -0.245;    0.000;-20.14500
 800.26;  -21.590;   -0.215;    0.000;-21.37500
 800.52;  -16.980;    2.511;    0.000;-19.49125
 800.77;  -16.270;    2.716;    0.000;-18.98625
 801.02;  -27.220;    1.580;    0.000;-28.80000
 801.28;  -24.520;   -0.673;    0.000;-23.84750
 801.53;  -15.710;    0.356;    0.000;-16.06625
 801.79;  -19.700;    3.321;    0.000;-23.02125
 802.04;  -29.230;    1.775;    0.000;-31.00500
 802.29;  -24.340;    1.541;    0.000;-25.88125
 802.55;  -22.060;   -0.161;    0.000;-21.89875
 802.80;  -23.150;    1.750;    0.000;-24.90000
 803.06;  -10.120;    1.202;    0.000;-11.32250
 803.31;  -17.360;    2.051;    0.000;-19.41125
 803.56;  -23.300;    1.589;    0.000;-24.88875
 803.82;  -25.610;    1.819;    0.000;-27.42875
 804.07;  -34.000;    1.121;    0.000;-35.12125
 804.32;  -24.550;    2.470;    0.000;-27.02000
 804.58;  -20.810;    0.745;    0.000;-21.55500
 804.83;  -22.150;    2.861;    0.000;-25.01125
 805.09;  -24.560;    2.116;    0.000;-26.67625
 805.34;  -28.890;    2.130;    0.000;-31.02000
 805.59;  -22.640;    1.832;    0.000;-24.47250
 805.85;  -21.810;    2.691;    0.000;-24.50125
 806.10;  -22.750;    4.224;    0.000;-26.97375
 806.35;  -23.450;    1.335;    0.000;-24.78500
 806.61;  -20.790;    3.255;    0.000;-24.04500
 806.86;  -32.810;    2.753;    0.000;-35.56250
 807.11;  -25.900;    2.922;    0.000;-28.82250
 807.37;  -12.510;    2.905;    0.000;-15.41500
 807.62;  -30.110;    1.607;    0.000;-31.71750
 807.87;  -27.540;    6.104;    0.000;-33.64375
 808.13;  -28.640;    0.795;    0.000;-29.43500
 808.38;  -35.810;   -0.554;    0.000;-35.25625
 808.63;  -25.100;    4.699;    0.000;-29.79875
 808.89;  -34.490;   -1.511;    0.000;-32.97875
 809.14;  -35.030;    1.401;    0.000;-36.43125
 809.39;  -32.940;   -2.053;    0.000;-30.88750
 809.65;  -39.420;    1.450;    0.000;-40.87000
 809.90;  -30.340;    3.850;    0.000;-34.19000
 810.15;  -32.200;    2.366;    0.000;-34.56625
 810.41;  -29.380;    0.111;    0.000;-29.49125
 810.66;  -31.490;    1.721;    0.000;-33.21125
 810.91;  -31.930;    0.284;    0.000;-32.21375
 811.16;  -35.430;    3.254;    0.000;-38.68375
 811.42;  -24.140;    1.806;    0.000;-25.94625
 811.67;  -36.840;    5.146;    0.000;-41.98625
 811.92;  -41.440;    1.339;    0.000;-42.77875
 812.18;  -31.520;    3.764;    0.000;-35.28375
 812.43;  -39.610;    0.262;    0.000;-39.87250
 812.68;  -31.750;   -0.415;    0.000;-31.33500
 812.93;  -32.630;   -0.444;    0.000;-32.18625
 813.19;  -27.040;    3.415;    0.000;-30.45500
 813.44;  -41.470;   -0.468;    0.000;-41.00250
 813.69;  -23.450;    3.735;    0.000;-27.18500
 813.95;  -30.410;    0.120;    0.000;-30.53000
 814.20;  -37.120;    1.482;    0.000;-38.60250
 814.45;  -39.200;    1.362;    0.000;-40.56250
 814.70;  -33.300;    2.450;    0.000;-35.75000
 814.96;  -27.190;    1.610;    0.000;-28.80000
 815.21;  -36.730;    0.421;    0.000;-37.15125
 815.46;  -39.420;    3.360;    0.000;-42.78000
 815.71;  -39.260;    1.746;    0.000;-41.00625
 815.96;  -35.470;    1.210;    0.000;-36.68000
 816.22;  -40.650;    3.869;    0.000;-44.51875
 816.47;  -36.860;    1.704;    0.000;-38.56375
 816.72;  -27.870;    2.375;    0.000;-30.24500
 816.97;  -33.840;    0.006;    0.000;-33.84625
 817.23;  -25.930;    2.188;    0.000;-28.11750
 817.48;  -31.860;    0.579;    0.000;-32.43875
 817.73;  -40.460;    1.298;    0.000;-41.75750
 817.98;  -34.440;    4.060;    0.000;-38.50000
 818.23;  -34.830;    2.849;    0.000;-37.67875
 818.49;  -35.780;    2.114;    0.000;-37.89375
 818.74;  -35.130;    3.495;    0.000;-38.62500
 818.99;  -36.510;    3.039;    0.000;-39.54875
 819.24;  -25.200;    4.864;    0.000;-30.06375
 819.50;  -45.180;   -0.814;    0.000;-44.36625
 819.75;  -34.490;    1.827;    0.000;-36.31750
 820.00;  -18.920;    2.721;    0.000;-21.64125
 820.25;  -38.350;    2.957;    0.000;-41.30750
 820.50;  -43.800;    0.806;    0.000;-44.60625
 820.75;  -20.470;    2.321;    0.000;-22.79125
 821.01;  -44.730;   -0.526;    0.000;-44.20375
 821.26;  -39.590;    2.589;    0.000;-42.17875
 821.51;  -30.590;    1.920;    0.000;-32.51000
 821.76;  -33.870;    2.214;    0.000;-36.08375
 822.01;  -35.930;    2.021;    0.000;-37.95125
 822.26;  -34.320;    2.135;    0.000;-36.45500
 822.52;  -34.840;    0.341;    0.000;-35.18125
 822.77;  -37.130;    2.754;    0.000;-39.88375
 823.02;  -41.800;    3.078;    0.000;-44.87750
 823.27;  -34.800;    2.414;    0.000;-37.21375
 823.52;  -44.900;   -1.496;    0.000;-43.40375
 823.77;  -43.670;    2.965;    0.000;-46.63500
 824.03;  -40.490;   -1.638;    0.000;-38.85250
 824.28;  -45.050;    1.317;    0.000;-46.36750
 824.53;  -47.710;    1.336;    0.000;-49.04625
 824.78;  -41.600;    0.855;    0.000;-42.45500
 825.03;  -51.380;    2.570;    0.000;-53.95000
 825.28;  -45.440;    2.166;    0.000;-47.60625
 825.53;  -39.890;    2.836;    0.000;-42.72625
 825.78;  -35.550;    2.856;    0.000;-38.40625
 826.04;  -44.060;   -0.415;    0.000;-43.64500
 826.29;  -36.050;    0.965;    0.000;-37.01500
 826.54;  -36.490;    0.800;    0.000;-37.29000
 826.79;  -31.350;    0.228;    0.000;-31.57750
 827.04;  -48.850;    2.715;    0.000;-51.56500
 827.29;  -44.000;    2.820;    0.000;-46.82000
 827.54;  -49.050;    1.196;    0.000;-50.24625
 827.79;  -40.970;    0.577;    0.000;-41.54750
 828.04;  -34.600;    1.154;    0.000;-35.75375
 828.29;  -44.220;    2.582;    0.000;-46.80250
 828.55;  -44.390;    0.469;    0.000;-44.85875
 828.80;  -48.060;    3.072;    0.000;-51.13250
 829.05;  -43.760;    0.731;    0.000;-44.49125
 829.30;  -48.110;    2.580;    0.000;-50.69000
 829.55;  -46.600;    0.910;    0.000;-47.51000
 829.80;  -44.970;    4.061;    0.000;-49.03125
 830.05;  -48.890;   -0.123;    0.000;-48.76750
 830.30;  -48.250;    2.500;    0.000;-50.75000
 830.55;  -42.940;    1.209;    0.000;-44.14875
 830.80;  -48.750;    0.980;    0.000;-49.73000
 831.05;  -41.240;    1.500;    0.000;-42.74000
 831.30;  -45.010;    2.391;    0.000;-47.40125
 831.55;  -39.630;    2.223;    0.000;-41.85250
 831.80;  -46.780;    2.836;    0.000;-49.61625
 832.05;  -41.850;    1.240;    0.000;-43.09000
 832.30;  -28.570;    2.408;    0.000;-30.97750
 832.56;  -53.970;    2.081;    0.000;-56.05125
 832.81;  -54.550;    1.378;    0.000;-55.92750
 833.06;  -35.430;    4.117;    0.000;-39.54750
 833.31;  -50.880;    2.487;    0.000;-53.36750
 833.56;  -59.150;    0.243;    0.000;-59.39250
 833.81;  -42.430;    2.466;    0.000;-44.89625
 834.06;  -40.890;    1.622;    0.000;-42.51250
 834.31;  -45.800;    3.581;    0.000;-49.38125
 834.56;  -40.550;    4.500;    0.000;-45.05000
 834.81;  -61.440;    1.409;    0.000;-62.84875
 835.06;  -54.630;    0.406;    0.000;-55.03625
 835.31;  -40.730;    3.463;    0.000;-44.19250
 835.56;  -35.670;   -0.016;    0.000;-35.65375
 835.81;  -47.530;    2.260;    0.000;-49.79000
 836.06;  -38.340;    1.614;    0.000;-39.95375
 836.31;  -52.300;    2.148;    0.000;-54.44750
 836.56;  -59.640;    3.629;    0.000;-63.26875
 836.81;  -47.370;    2.047;    0.000;-49.41750
 837.06;  -39.570;    0.816;    0.000;-40.38625
 837.31;  -48.680;    1.456;    0.000;-50.13625
 837.56;  -50.690;    1.783;    0.000;-52.47250
 837.81;  -42.900;    2.975;    0.000;-45.87500
 838.06;  -44.820;    4.039;    0.000;-48.85875
 838.31;  -50.540;    0.147;    0.000;-50.68750
 838.56;  -66.410;    1.841;    0.000;-68.25125
 838.80;  -50.190;    2.314;    0.000;-52.50375
 839.05;  -47.150;    1.386;    0.000;-48.53625
 839.30;  -46.600;    0.001;    0.000;-46.60125
 839.55;  -56.760;    0.301;    0.000;-57.06125
 839.80;  -49.490;    3.539;    0.000;-53.02875
 840.05;  -58.090;    1.010;    0.000;-59.10000
 840.30;  -43.110;    4.226;    0.000;-47.33625
 840.55;  -52.520;    1.514;    0.000;-54.03375
 840.80;  -43.780;    4.875;    0.000;-48.65500
 841.05;  -51.340;    0.784;    0.000;-52.12375
 841.30;  -47.520;    3.494;    0.000;-51.01375
 841.55;  -57.720;   -0.995;    0.000;-56.72500
 841.80;  -50.510;    1.559;    0.000;-52.06875
 842.05;  -64.080;   -1.285;    0.000;-62.79500
 842.30;  -55.290;    2.414;    0.000;-57.70375
 842.55;  -50.420;    1.058;    0.000;-51.47750
 842.79;  -52.380;    1.925;    0.000;-54.30500
 843.04;  -37.230;    0.854;    0.000;-38.08375
 843.29;  -41.890;    2.419;    0.000;-44.30875
 843.54;  -50.330;    4.284;    0.000;-54.61375
 843.79;  -53.230;    1.813;    0.000;-55.04250
 844.04;  -53.860;    4.705;    0.000;-58.56500
 844.29;  -48.670;    2.770;    0.000;-51.44000
 844.54;  -49.200;    1.173;    0.000;-50.37250
 844.79;  -49.530;    3.172;    0.000;-52.70250
 845.04;  -49.020;   -1.031;    0.000;-47.98875
 845.28;  -56.400;    3.310;    0.000;-59.71000
 845.53;  -46.800;    1.750;    0.000;-48.55000
 845.78;  -39.430;    1.957;    0.000;-41.38750
 846.03;  -55.440;    1.346;    0.000;-56.78625
 846.28;  -56.810;    2.110;    0.000;-58.92000
 846.53;  -45.160;    0.154;    0.000;-45.31375
 846.78;  -39.040;    4.660;    0.000;-43.70000
 847.02;  -45.150;    2.714;    0.000;-47.86375
 847.27;  -49.670;    1.837;    0.000;-51.50750
 847.52;  -57.770;    3.047;    0.000;-60.81750
 847.77;  -48.310;    3.314;    0.000;-51.62375
 848.02;  -53.240;   -0.440;    0.000;-52.80000
 848.27;  -54.320;    3.787;    0.000;-58.10750
 848.52;  -53.210;    2.264;    0.000;-55.47375
 848.76;  -47.690;    0.844;    0.000;-48.53375
 849.01;  -54.740;    2.570;    0.000;-57.31000
 849.26;  -58.360;    0.859;    0.000;-59.21875
 849.51;  -50.920;    3.328;    0.000;-54.24750
 849.76;  -54.560;    1.469;    0.000;-56.02875
 850.01;  -65.220;    0.701;    0.000;-65.92125
 850.25;  -55.330;    0.585;    0.000;-55.91500
 850.50;  -64.160;    0.848;    0.000;-65.00750
 850.75;  -56.720;    1.875;    0.000;-58.59500
 851.00;  -60.240;   -0.499;    0.000;-59.74125
 851.25;  -52.030;    3.796;    0.000;-55.82625
 851.49;  -57.590;    3.533;    0.000;-61.12250
 851.74;  -64.390;   -0.102;    0.000;-64.28750
 851.99;  -48.480;    2.578;    0.000;-51.05750
 852.24;  -53.440;    0.231;    0.000;-53.67125
 852.49;  -60.210;    0.465;    0.000;-60.67500
 852.73;  -59.310;    2.121;    0.000;-61.43125
 852.98;  -60.360;    0.601;    0.000;-60.96125
 853.23;  -52.320;    4.595;    0.000;-56.91500
 853.48;  -65.840;   -0.339;    0.000;-65.50125
 853.73;  -66.850;    1.725;    0.000;-68.57500
 853.97;  -59.130;    1.999;    0.000;-61.12875
 854.22;  -71.810;    2.446;    0.000;-74.25625
 854.47;  -61.510;    2.151;    0.000;-63.66125
 854.72;  -58.050;    1.765;    0.000;-59.81500
 854.96;  -56.580;    2.703;    0.000;-59.28250
 855.21;  -54.560;    1.244;    0.000;-55.80375
 855.46;  -48.270;    0.944;    0.000;-49.21375
 855.71;  -65.190;    0.262;    0.000;-65.45250
 855.95;  -57.870;    2.922;    0.000;-60.79250
 856.20;  -61.720;    2.591;    0.000;-64.31125
 856.45;  -64.380;    1.355;    0.000;-65.73500
 856.70;  -71.390;    4.641;    0.000;-76.03125
 856.94;  -59.180;    1.589;    0.000;-60.76875
 857.19;  -53.270;    2.404;    0.000;-55.67375
 857.44;  -58.460;    1.933;    0.000;-60.39250
 857.69;  -64.570;    5.104;    0.000;-69.67375
 857.93;  -57.050;    3.511;    0.000;-60.56125
 858.18;  -55.750;    1.986;    0.000;-57.73625
 858.43;  -62.470;   -0.159;    0.000;-62.31125
 858.67;  -51.770;    5.415;    0.000;-57.18500
 858.92;  -62.040;    1.999;    0.000;-64.03875
 859.17;  -48.310;    4.201;    0.000;-52.51125
 859.42;  -58.080;    0.545;    0.000;-58.62500
 859.66;  -63.350;    3.158;    0.000;-66.50750
 859.91;  -59.510;   -0.270;    0.000;-59.24000
 860.16;  -62.820;    1.684;    0.000;-64.50375
 860.40;  -52.580;    1.197;    0.000;-53.77750
 860.65;  -60.570;    1.515;    0.000;-62.08500
 860.90;  -72.090;   -0.985;    0.000;-71.10500
 861.14;  -65.510;    0.160;    0.000;-65.67000
 861.39;  -65.300;    0.465;    0.000;-65.76500
 861.64;  -52.930;    3.563;    0.000;-56.49250
 861.88;  -64.920;    3.859;    0.000;-68.77875
 862.13;  -59.220;    2.254;    0.000;-61.47375
 862.38;  -75.450;    0.489;    0.000;-75.93875
 862.62;  -55.490;    1.619;    0.000;-57.10875
 862.87;  -53.440;    0.080;    0.000;-53.52000
 863.12;  -62.390;    0.527;    0.000;-62.91750
 863.36;  -64.530;    3.011;    0.000;-67.54125
 863.61;  -67.810;    2.111;    0.000;-69.92125
 863.86;  -67.990;    0.804;    0.000;-68.79375
 864.10;  -63.240;    2.416;    0.000;-65.65625
 864.35;  -61.780;    1.164;    0.000;-62.94375
 864.60;  -66.520;    0.605;    0.000;-67.12500
 864.84;  -66.780;    1.896;    0.000;-68.67625
 865.09;  -64.810;    2.196;    0.000;-67.00625
 865.33;  -67.190;    3.348;    0.000;-70.53750
 865.58;  -52.380;    3.236;    0.000;-55.61625
 865.83;  -63.740;    2.321;    0.000;-66.06125
 866.07;  -73.300;    2.855;    0.000;-76.15500
 866.32;  -40.680;    2.915;    0.000;-43.59500
 866.57;  -52.030;   -1.800;    0.000;-50.23000
 866.81;  -72.500;    1.764;    0.000;-74.26375
 867.06;  -64.860;   -0.352;    0.000;-64.50750
 867.30;  -68.080;   -0.220;    0.000;-67.86000
 867.55;  -64.660;    1.786;    0.000;-66.44625
 867.80;  -56.190;    2.810;    0.000;-59.00000
 868.04;  -59.710;    4.080;    0.000;-63.79000
 868.29;  -65.090;    3.003;    0.000;-68.09250
 868.53;  -61.760;    3.311;    0.000;-65.07125
 868.78;  -69.650;   -0.996;    0.000;-68.65375
 869.03;  -57.590;    2.876;    0.000;-60.46625
 869.27;  -71.050;    2.398;    0.000;-73.44750
 869.52;  -62.630;    3.370;    0.000;-66.00000
 869.76;  -56.680;    2.531;    0.000;-59.21125
 870.01;  -57.810;    3.679;    0.000;-61.48875
 870.25;  -58.750;    3.981;    0.000;-62.73125
 870.50;  -64.890;    2.935;    0.000;-67.82500
 870.75;  -66.100;    0.636;    0.000;-66.73625
 870.99;  -60.480;    0.940;    0.000;-61.42000
 871.24;  -65.200;    0.904;    0.000;-66.10375
 871.48;  -49.630;    5.313;    0.000;-54.94250
 871.73;  -61.410;    2.930;    0.000;-64.34000
 871.97;  -64.450;    2.589;    0.000;-67.03875
 872.22;  -65.730;    3.342;    0.000;-69.07250
 872.46;  -57.820;    2.088;    0.000;-59.90750
 872.71;  -75.020;    0.244;    0.000;-75.26375
 872.95;  -53.680;    2.320;    0.000;-56.00000
 873.20;  -54.560;    2.894;    0.000;-57.45375
 873.44;  -55.430;    4.470;    0.000;-59.90000
 873.69;  -67.720;    2.315;    0.000;-70.03500
 873.94;  -57.590;    3.934;    0.000;-61.52375
 874.18;  -67.810;    1.847;    0.000;-69.65750
 874.43;  -61.840;    2.386;    0.000;-64.22625
 874.67;  -54.200;   -0.515;    0.000;-53.68500
 874.92;  -49.600;    1.961;    0.000;-51.56125
 875.16;  -65.440;    4.129;    0.000;-69.56875
 875.41;  -63.860;    0.016;    0.000;-63.87625
 875.65;  -63.750;   -0.228;    0.000;-63.52250
 875.90;  -58.570;    5.189;    0.000;-63.75875
 876.14;  -68.300;    2.056;    0.000;-70.35625
 876.39;  -63.010;    3.029;    0.000;-66.03875
 876.63;  -66.120;    2.815;    0.000;-68.93500
 876.88;  -64.670;    1.354;    0.000;-66.02375
 877.12;  -63.960;    1.954;    0.000;-65.91375
 877.36;  -58.870;    1.592;    0.000;-60.46250
 877.61;  -67.310;    1.324;    0.000;-68.63375
 877.85;  -60.430;    3.668;    0.000;-64.09750
 878.10;  -54.540;    1.811;    0.000;-56.35125
 878.34;  -57.810;    4.662;    0.000;-62.47250
 878.59;  -55.710;    3.560;    0.000;-59.27000
 878.83;  -60.210;    3.334;    0.000;-63.54375
 879.08;  -54.970;    4.274;    0.000;-59.24375
 879.32;  -62.750;    3.205;    0.000;-65.95500
 879.57;  -54.710;    3.221;    0.000;-57.93125
 879.81;  -60.300;    0.571;    0.000;-60.87125
 880.05;  -63.540;    2.775;    0.000;-66.31500
 880.30;  -60.190;    1.899;    0.000;-62.08875
 880.54;  -64.210;    2.659;    0.000;-66.86875
 880.79;  -56.780;    1.919;    0.000;-58.69875
 881.03;  -60.060;    1.780;    0.000;-61.84000
 881.28;  -49.830;    4.125;    0.000;-53.95500
 881.52;  -64.330;    4.539;    0.000;-68.86875
 881.76;  -63.140;    2.729;    0.000;-65.86875
 882.01;  -62.200;    1.770;    0.000;-63.97000
 882.25;  -56.430;    5.285;    0.000;-61.71500
 882.50;  -64.220;    1.586;    0.000;-65.80625
 882.74;  -56.070;    1.505;    0.000;-57.57500
 882.98;  -65.770;    2.839;    0.000;-68.60875
 883.23;  -58.050;    1.059;    0.000;-59.10875
 883.47;  -59.060;    4.950;    0.000;-64.01000
 883.72;  -52.620;    4.606;    0.000;-57.22625
 883.96;  -54.090;    4.194;    0.000;-58.28375
 884.20;  -59.910;    1.607;    0.000;-61.51750
 884.45;  -51.910;    3.172;    0.000;-55.08250
 884.69;  -53.940;    5.045;    0.000;-58.98500
 884.94;  -43.870;    3.589;    0.000;-47.45875
 885.18;  -61.390;    2.435;    0.000;-63.82500
 885.42;  -68.260;    2.079;    0.000;-70.33875
 885.67;  -48.740;    3.995;    0.000;-52.73500
 885.91;  -66.020;    1.904;    0.000;-67.92375
 886.15;  -59.900;    1.859;    0.000;-61.75875
 886.40;  -57.700;    1.438;    0.000;-59.13750
 886.64;  -71.900;    3.661;    0.000;-75.56125
 886.88;  -68.900;    2.609;    0.000;-71.50875
 887.13;  -53.180;    3.316;    0.000;-56.49625
 887.37;  -59.520;    2.561;    0.000;-62.08125
 887.62;  -45.600;    4.399;    0.000;-49.99875
 887.86;  -52.990;    3.491;    0.000;-56.48125
 888.10;  -48.250;    5.320;    0.000;-53.57000
 888.35;  -48.310;    4.015;    0.000;-52.32500
 888.59;  -52.590;    5.435;    0.000;-58.02500
 888.83;  -62.840;    3.104;    0.000;-65.94375
 889.07;  -50.430;    3.310;    0.000;-53.74000
 889.32;  -53.990;    5.429;    0.000;-59.41875
 889.56;  -58.650;    3.888;    0.000;-62.53750
 889.80;  -53.900;    2.438;    0.000;-56.33750
 890.05;  -55.190;    2.096;    0.000;-57.28625
 890.29;  -63.170;    3.392;    0.000;-66.56250
 890.53;  -61.540;    4.108;    0.000;-65.64750
 890.78;  -51.230;    3.010;    0.000;-54.24000
 891.02;  -50.810;    3.884;    0.000;-54.69375
 891.26;  -57.160;    4.090;    0.000;-61.25000
 891.51;  -45.120;    3.727;    0.000;-48.84750
 891.75;  -51.830;    1.636;    0.000;-53.46625
 891.99;  -58.000;    4.133;    0.000;-62.13250
 892.23;  -59.310;    1.094;    0.000;-60.40375
 892.48;  -41.460;    6.174;    0.000;-47.63375
 892.72;  -52.330;    4.309;    0.000;-56.63875
 892.96;  -57.100;    6.463;    0.000;-63.56250
 893.20;  -57.480;    3.534;    0.000;-61.01375
 893.45;  -54.630;    4.674;    0.000;-59.30375
 893.69;  -50.780;    4.350;    0.000;-55.13000
 893.93;  -43.980;    3.811;    0.000;-47.79125
 894.17;  -50.720;    3.632;    0.000;-54.35250
 894.42;  -49.060;    3.563;    0.000;-52.62250
 894.66;  -42.710;    3.575;    0.000;-46.28500
 894.90;  -42.850;    4.434;    0.000;-47.28375
 895.14;  -44.080;    5.156;    0.000;-49.23625
 895.39;  -48.160;    2.453;    0.000;-50.61250
 895.63;  -44.930;    3.581;    0.000;-48.51125
 895.87;  -46.980;    2.703;    0.000;-49.68250
 896.11;  -36.010;    3.902;    0.000;-39.91250
 896.36;  -26.820;    4.361;    0.000;-31.18125
 896.60;  -54.410;    4.684;    0.000;-59.09375
 896.84;  -27.210;    7.503;    0.000;-34.71250
 897.08;  -36.650;    7.704;    0.000;-44.35375
 897.32;  -34.160;    6.090;    0.000;-40.25000
 897.57;  -31.580;    5.235;    0.000;-36.81500
 897.81;  -43.090;    6.305;    0.000;-49.39500
 898.05;  -31.840;    6.220;    0.000;-38.06000
 898.29;  -28.230;    6.834;    0.000;-35.06375
 898.53;  -28.330;    5.426;    0.000;-33.75625
 898.78;  -26.180;    7.475;    0.000;-33.65500
 899.02;  -31.410;    5.856;    0.000;-37.26625
 899.26;  -26.760;    8.570;    0.000;-35.33000
 899.50;    6.040;    7.455;    0.000;-1.41500
 899.74;  -16.820;    5.930;    0.000;-22.75000
 899.99;  -16.600;    9.002;    0.000;-25.60250
 900.23;   -2.270;    9.759;    0.000;-12.02875
 900.47;  -14.650;    9.193;    0.000;-23.84250
 900.71;   -1.730;    9.520;    0.000;-11.25000
 900.95;   -2.890;    9.591;    0.000;-12.48125
 901.19;   19.740;    9.936;    0.000; 9.80375
 901.44;   21.840;   11.654;    0.000;10.18625
 901.68;   37.450;   11.363;    0.000;26.08750
 901.92;   33.060;   12.930;    0.000;20.13000
 902.16;   42.240;   12.275;    0.000;29.96500
 902.40;   62.300;   15.089;    0.000;47.21125
 902.64;   85.830;   18.999;    0.000;66.83125
 902.88;   89.700;   18.346;    0.000;71.35375
 903.13;  115.480;   19.689;    0.000;95.79125

