p4
Integration time [ms]:  10.000
Averaging Nr. [scans]: 100
Smoothing Nr. [pixels]: 0
Data measured with spectrometer [name]: 1307078U2
Wave   ;Sample   ;Dark     ;Reference;Scope Corrected for Dark
[nm]   ;[counts] ;[counts] ;[counts] 

 351.07;   21.320;    0.420;    0.000;20.90000
 351.37;   20.620;    2.109;    0.000;18.51125
 351.66;   20.180;    2.484;    0.000;17.69625
 351.95;   19.930;    0.324;    0.000;19.60625
 352.24;   10.390;    1.910;    0.000; 8.48000
 352.54;   18.210;    1.401;    0.000;16.80875
 352.83;    9.090;   -0.629;    0.000; 9.71875
 353.12;   23.120;    1.364;    0.000;21.75625
 353.42;   15.510;   -0.535;    0.000;16.04500
 353.71;   17.010;    2.263;    0.000;14.74750
 354.00;   27.750;    3.929;    0.000;23.82125
 354.30;   18.290;    1.025;    0.000;17.26500
 354.59;   13.990;   -0.266;    0.000;14.25625
 354.88;   20.120;    5.190;    0.000;14.93000
 355.17;   11.520;   -0.014;    0.000;11.53375
 355.47;   11.860;    2.134;    0.000; 9.72625
 355.76;   22.770;    0.416;    0.000;22.35375
 356.05;   24.980;    1.192;    0.000;23.78750
 356.35;    9.440;    1.587;    0.000; 7.85250
 356.64;   23.560;    1.753;    0.000;21.80750
 356.93;   16.790;    1.768;    0.000;15.02250
 357.22;   37.390;    1.366;    0.000;36.02375
 357.52;   17.380;    3.320;    0.000;14.06000
 357.81;   20.140;    1.643;    0.000;18.49750
 358.10;   13.340;   -0.600;    0.000;13.94000
 358.39;   23.460;    1.461;    0.000;21.99875
 358.69;   15.050;    1.997;    0.000;13.05250
 358.98;    8.980;    0.317;    0.000; 8.66250
 359.27;   13.380;    1.446;    0.000;11.93375
 359.57;   22.780;    2.324;    0.000;20.45625
 359.86;   16.080;   -0.700;    0.000;16.78000
 360.15;   38.790;    1.474;    0.000;37.31625
 360.44;   15.230;   -0.946;    0.000;16.17625
 360.74;   27.970;    1.480;    0.000;26.49000
 361.03;   16.140;   -0.345;    0.000;16.48500
 361.32;   11.100;    2.919;    0.000; 8.18125
 361.61;   10.210;    2.338;    0.000; 7.87250
 361.91;   21.260;    2.645;    0.000;18.61500
 362.20;    0.570;    1.590;    0.000;-1.02000
 362.49;   19.110;    1.854;    0.000;17.25625
 362.78;   19.540;    0.435;    0.000;19.10500
 363.08;   11.460;    1.149;    0.000;10.31125
 363.37;   14.850;    0.004;    0.000;14.84625
 363.66;   29.100;    3.439;    0.000;25.66125
 363.95;    6.500;    2.359;    0.000; 4.14125
 364.24;   20.140;    2.213;    0.000;17.92750
 364.54;   16.030;   -0.068;    0.000;16.09750
 364.83;   17.650;    2.066;    0.000;15.58375
 365.12;    7.090;   -0.624;    0.000; 7.71375
 365.41;   24.450;    3.152;    0.000;21.29750
 365.71;    9.680;    0.161;    0.000; 9.51875
 366.00;   10.780;    1.484;    0.000; 9.29625
 366.29;    8.580;    0.876;    0.000; 7.70375
 366.58;   16.020;    2.200;    0.000;13.82000
 366.87;   22.510;    3.334;    0.000;19.17625
 367.17;   21.260;    4.057;    0.000;17.20250
 367.46;   12.970;    1.112;    0.000;11.85750
 367.75;   14.300;    0.207;    0.000;14.09250
 368.04;   13.120;    2.296;    0.000;10.82375
 368.34;    9.950;    3.155;    0.000; 6.79500
 368.63;    9.010;    1.982;    0.000; 7.02750
 368.92;   26.390;    4.579;    0.000;21.81125
 369.21;   25.760;    0.301;    0.000;25.45875
 369.50;   24.340;    4.056;    0.000;20.28375
 369.80;   11.880;    3.011;    0.000; 8.86875
 370.09;   19.610;    2.666;    0.000;16.94375
 370.38;    3.140;    1.489;    0.000; 1.65125
 370.67;   12.900;    2.949;    0.000; 9.95125
 370.96;   11.650;    1.915;    0.000; 9.73500
 371.26;   12.000;    3.515;    0.000; 8.48500
 371.55;    6.290;   -0.750;    0.000; 7.04000
 371.84;   20.290;    1.237;    0.000;19.05250
 372.13;    4.390;    0.486;    0.000; 3.90375
 372.42;   18.800;    4.290;    0.000;14.51000
 372.71;   18.690;    2.305;    0.000;16.38500
 373.01;   19.890;    2.734;    0.000;17.15625
 373.30;    4.070;    0.909;    0.000; 3.16125
 373.59;   15.570;    4.401;    0.000;11.16875
 373.88;   12.190;    0.729;    0.000;11.46125
 374.17;   18.840;    5.426;    0.000;13.41375
 374.46;   11.320;    2.037;    0.000; 9.28250
 374.76;   32.770;    3.602;    0.000;29.16750
 375.05;   29.030;    4.131;    0.000;24.89875
 375.34;   17.280;    4.778;    0.000;12.50250
 375.63;    7.810;   -1.367;    0.000; 9.17750
 375.92;   27.820;    1.354;    0.000;26.46625
 376.21;    4.790;    0.181;    0.000; 4.60875
 376.51;   17.100;    0.475;    0.000;16.62500
 376.80;   18.140;    3.346;    0.000;14.79375
 377.09;   11.490;    1.947;    0.000; 9.54250
 377.38;   18.840;    1.015;    0.000;17.82500
 377.67;   15.730;    2.574;    0.000;13.15625
 377.96;   10.190;    0.863;    0.000; 9.32750
 378.25;   12.650;    3.033;    0.000; 9.61750
 378.55;    3.710;    1.080;    0.000; 2.63000
 378.84;    9.120;    4.383;    0.000; 4.73750
 379.13;   16.100;    1.696;    0.000;14.40375
 379.42;   15.990;    4.142;    0.000;11.84750
 379.71;   13.870;    1.695;    0.000;12.17500
 380.00;   26.870;    4.409;    0.000;22.46125
 380.29;    1.420;    0.924;    0.000; 0.49625
 380.59;   13.660;    2.340;    0.000;11.32000
 380.88;    9.410;    1.253;    0.000; 8.15750
 381.17;   14.930;    2.536;    0.000;12.39375
 381.46;   12.790;    2.259;    0.000;10.53125
 381.75;   13.850;    3.750;    0.000;10.10000
 382.04;   15.320;    3.304;    0.000;12.01625
 382.33;   20.520;    1.438;    0.000;19.08250
 382.62;    8.310;    2.980;    0.000; 5.33000
 382.91;   25.940;    3.025;    0.000;22.91500
 383.21;    9.360;   -1.186;    0.000;10.54625
 383.50;    4.030;    1.279;    0.000; 2.75125
 383.79;   20.140;    3.581;    0.000;16.55875
 384.08;    9.280;    1.620;    0.000; 7.66000
 384.37;   15.020;    2.861;    0.000;12.15875
 384.66;   13.200;    0.262;    0.000;12.93750
 384.95;    8.460;    1.033;    0.000; 7.42750
 385.24;   14.380;    0.772;    0.000;13.60750
 385.53;    6.230;   -1.732;    0.000; 7.96250
 385.83;    9.030;    0.712;    0.000; 8.31750
 386.12;   14.550;    1.009;    0.000;13.54125
 386.41;   13.520;    2.080;    0.000;11.44000
 386.70;    9.390;    0.155;    0.000; 9.23500
 386.99;   23.240;    0.820;    0.000;22.42000
 387.28;   18.080;    3.057;    0.000;15.02250
 387.57;   20.920;    2.020;    0.000;18.90000
 387.86;    9.890;    1.317;    0.000; 8.57250
 388.15;   13.230;    2.237;    0.000;10.99250
 388.44;    7.130;    1.854;    0.000; 5.27625
 388.73;   12.940;    1.639;    0.000;11.30125
 389.02;   17.880;    1.174;    0.000;16.70625
 389.31;    7.050;    3.336;    0.000; 3.71375
 389.61;   14.000;    1.742;    0.000;12.25750
 389.90;    9.670;    2.181;    0.000; 7.48875
 390.19;   10.940;    0.252;    0.000;10.68750
 390.48;   15.450;    3.714;    0.000;11.73625
 390.77;   16.270;    2.156;    0.000;14.11375
 391.06;    8.610;    0.019;    0.000; 8.59125
 391.35;    3.860;    0.766;    0.000; 3.09375
 391.64;   24.090;    4.639;    0.000;19.45125
 391.93;    0.330;    0.449;    0.000;-0.11875
 392.22;   18.540;    2.592;    0.000;15.94750
 392.51;   18.350;    1.247;    0.000;17.10250
 392.80;   17.940;    2.735;    0.000;15.20500
 393.09;    2.180;    1.086;    0.000; 1.09375
 393.38;   19.180;    0.229;    0.000;18.95125
 393.67;    9.880;    1.561;    0.000; 8.31875
 393.96;   17.900;    1.930;    0.000;15.97000
 394.25;   12.470;    0.956;    0.000;11.51375
 394.54;   10.820;    1.622;    0.000; 9.19750
 394.83;   11.330;    0.440;    0.000;10.89000
 395.13;   11.560;    2.201;    0.000; 9.35875
 395.42;   15.930;    2.457;    0.000;13.47250
 395.71;   17.290;    4.305;    0.000;12.98500
 396.00;   14.980;    1.222;    0.000;13.75750
 396.29;   23.460;    1.178;    0.000;22.28250
 396.58;    6.790;    0.967;    0.000; 5.82250
 396.87;   22.220;    1.986;    0.000;20.23375
 397.16;    8.960;    1.911;    0.000; 7.04875
 397.45;   21.720;    3.014;    0.000;18.70625
 397.74;   15.290;    2.689;    0.000;12.60125
 398.03;   18.890;    2.170;    0.000;16.72000
 398.32;    0.260;    1.844;    0.000;-1.58375
 398.61;   17.470;    3.154;    0.000;14.31625
 398.90;   20.360;    1.420;    0.000;18.94000
 399.19;   15.160;    3.316;    0.000;11.84375
 399.48;    2.220;    0.412;    0.000; 1.80750
 399.77;   12.280;    1.786;    0.000;10.49375
 400.06;   22.760;    2.120;    0.000;20.64000
 400.35;   18.390;    3.961;    0.000;14.42875
 400.64;   13.430;    2.411;    0.000;11.01875
 400.93;   21.310;    3.304;    0.000;18.00625
 401.22;    3.230;    1.479;    0.000; 1.75125
 401.51;   18.140;    3.400;    0.000;14.74000
 401.80;    5.810;    1.049;    0.000; 4.76125
 402.09;    5.910;    1.710;    0.000; 4.20000
 402.38;   10.440;    1.655;    0.000; 8.78500
 402.67;   15.560;    2.055;    0.000;13.50500
 402.96;   12.940;    1.381;    0.000;11.55875
 403.25;   24.470;    4.099;    0.000;20.37125
 403.54;   20.660;    2.920;    0.000;17.74000
 403.83;   22.660;    1.701;    0.000;20.95875
 404.12;   13.510;    4.244;    0.000; 9.26625
 404.41;   20.040;    7.259;    0.000;12.78125
 404.70;   21.400;    1.739;    0.000;19.66125
 404.98;   19.310;    3.635;    0.000;15.67500
 405.27;   11.210;    2.116;    0.000; 9.09375
 405.56;   24.010;    5.247;    0.000;18.76250
 405.85;   13.090;    1.905;    0.000;11.18500
 406.14;   19.870;    2.216;    0.000;17.65375
 406.43;    0.360;    0.695;    0.000;-0.33500
 406.72;   22.240;    1.689;    0.000;20.55125
 407.01;   10.010;    2.034;    0.000; 7.97625
 407.30;   12.120;    2.056;    0.000;10.06375
 407.59;   13.460;   -0.241;    0.000;13.70125
 407.88;   14.240;    1.026;    0.000;13.21375
 408.17;   14.540;    1.819;    0.000;12.72125
 408.46;   18.130;    2.744;    0.000;15.38625
 408.75;   21.720;    2.339;    0.000;19.38125
 409.04;   13.820;    1.809;    0.000;12.01125
 409.33;    8.050;    1.810;    0.000; 6.24000
 409.62;   21.100;    3.089;    0.000;18.01125
 409.91;    5.440;    0.704;    0.000; 4.73625
 410.20;   20.570;    1.890;    0.000;18.68000
 410.48;   13.440;    1.309;    0.000;12.13125
 410.77;    8.250;    2.919;    0.000; 5.33125
 411.06;   17.900;   -0.224;    0.000;18.12375
 411.35;   25.070;    2.226;    0.000;22.84375
 411.64;   17.310;    2.741;    0.000;14.56875
 411.93;   14.440;   -0.534;    0.000;14.97375
 412.22;    6.020;    0.561;    0.000; 5.45875
 412.51;   12.850;    2.220;    0.000;10.63000
 412.80;    6.650;    1.974;    0.000; 4.67625
 413.09;   19.560;    0.749;    0.000;18.81125
 413.38;   13.920;    3.604;    0.000;10.31625
 413.67;   11.950;    0.146;    0.000;11.80375
 413.96;   -2.680;   -0.986;    0.000;-1.69375
 414.24;   17.280;    2.872;    0.000;14.40750
 414.53;   13.200;    3.146;    0.000;10.05375
 414.82;   23.380;    2.290;    0.000;21.09000
 415.11;   20.540;    2.401;    0.000;18.13875
 415.40;   25.730;    0.995;    0.000;24.73500
 415.69;   16.540;    2.255;    0.000;14.28500
 415.98;   18.170;    3.622;    0.000;14.54750
 416.27;    1.380;    2.026;    0.000;-0.64625
 416.56;   30.850;    2.160;    0.000;28.69000
 416.84;    9.120;    1.849;    0.000; 7.27125
 417.13;   15.700;    1.085;    0.000;14.61500
 417.42;   24.050;    2.255;    0.000;21.79500
 417.71;   16.840;    0.942;    0.000;15.89750
 418.00;    8.600;   -0.894;    0.000; 9.49375
 418.29;   15.670;    2.760;    0.000;12.91000
 418.58;   14.630;    1.184;    0.000;13.44625
 418.87;   19.330;    1.616;    0.000;17.71375
 419.15;    7.550;    1.469;    0.000; 6.08125
 419.44;   16.170;    1.505;    0.000;14.66500
 419.73;    7.170;   -0.203;    0.000; 7.37250
 420.02;   20.950;    3.578;    0.000;17.37250
 420.31;   12.220;    0.189;    0.000;12.03125
 420.60;   24.710;    0.344;    0.000;24.36625
 420.89;    9.890;    1.889;    0.000; 8.00125
 421.18;   20.150;    0.249;    0.000;19.90125
 421.46;   19.380;    1.220;    0.000;18.16000
 421.75;   15.620;    1.529;    0.000;14.09125
 422.04;    3.860;    1.446;    0.000; 2.41375
 422.33;   22.960;    1.941;    0.000;21.01875
 422.62;   17.370;    4.503;    0.000;12.86750
 422.91;   21.260;    4.043;    0.000;17.21750
 423.19;    8.970;    3.485;    0.000; 5.48500
 423.48;   35.970;    1.274;    0.000;34.69625
 423.77;    1.780;    2.696;    0.000;-0.91625
 424.06;   13.630;    3.234;    0.000;10.39625
 424.35;    5.720;    0.522;    0.000; 5.19750
 424.64;   34.850;    3.535;    0.000;31.31500
 424.93;    5.810;   -0.317;    0.000; 6.12750
 425.21;   13.820;    2.582;    0.000;11.23750
 425.50;   10.400;    3.263;    0.000; 7.13750
 425.79;   10.150;    2.591;    0.000; 7.55875
 426.08;   23.900;    1.785;    0.000;22.11500
 426.37;   24.450;    1.579;    0.000;22.87125
 426.65;    2.930;    2.955;    0.000;-0.02500
 426.94;   12.830;    2.134;    0.000;10.69625
 427.23;   12.900;    2.475;    0.000;10.42500
 427.52;   22.860;    0.715;    0.000;22.14500
 427.81;    3.470;   -0.177;    0.000; 3.64750
 428.10;   31.380;    2.043;    0.000;29.33750
 428.38;    5.210;    0.154;    0.000; 5.05625
 428.67;   25.170;    2.436;    0.000;22.73375
 428.96;   -4.710;    1.938;    0.000;-6.64750
 429.25;   17.910;    2.326;    0.000;15.58375
 429.54;   10.870;    2.418;    0.000; 8.45250
 429.82;   17.510;    2.749;    0.000;14.76125
 430.11;   13.980;    0.755;    0.000;13.22500
 430.40;   25.070;    2.376;    0.000;22.69375
 430.69;   17.170;    2.435;    0.000;14.73500
 430.98;   19.540;    3.626;    0.000;15.91375
 431.26;   11.780;    4.383;    0.000; 7.39750
 431.55;   19.030;    3.697;    0.000;15.33250
 431.84;   12.950;   -0.666;    0.000;13.61625
 432.13;   23.890;    0.749;    0.000;23.14125
 432.41;    4.560;    2.846;    0.000; 1.71375
 432.70;   26.240;    2.501;    0.000;23.73875
 432.99;   15.660;    2.007;    0.000;13.65250
 433.28;   13.120;    4.089;    0.000; 9.03125
 433.57;   21.290;    0.668;    0.000;20.62250
 433.85;   26.440;    0.570;    0.000;25.87000
 434.14;    8.960;    1.510;    0.000; 7.45000
 434.43;   32.710;    4.943;    0.000;27.76750
 434.72;   13.330;    1.523;    0.000;11.80750
 435.00;   16.290;    4.381;    0.000;11.90875
 435.29;    8.990;    3.159;    0.000; 5.83125
 435.58;   21.450;    3.307;    0.000;18.14250
 435.87;   21.300;    0.380;    0.000;20.92000
 436.15;   18.710;    2.906;    0.000;15.80375
 436.44;   14.530;    2.568;    0.000;11.96250
 436.73;   23.030;    4.294;    0.000;18.73625
 437.02;   13.620;    2.537;    0.000;11.08250
 437.30;   22.550;    2.334;    0.000;20.21625
 437.59;   11.850;    2.810;    0.000; 9.04000
 437.88;   23.130;    5.700;    0.000;17.43000
 438.17;   10.290;   -0.534;    0.000;10.82375
 438.45;   10.960;    3.159;    0.000; 7.80125
 438.74;    5.310;    0.505;    0.000; 4.80500
 439.03;   21.120;    2.618;    0.000;18.50250
 439.32;    8.950;    3.250;    0.000; 5.70000
 439.60;   15.650;    0.890;    0.000;14.76000
 439.89;   14.750;    2.642;    0.000;12.10750
 440.18;   14.090;    2.490;    0.000;11.60000
 440.46;    4.100;    0.183;    0.000; 3.91750
 440.75;   25.930;    2.443;    0.000;23.48750
 441.04;    5.090;    0.079;    0.000; 5.01125
 441.33;   30.800;    3.149;    0.000;27.65125
 441.61;    2.680;    2.630;    0.000; 0.05000
 441.90;   31.890;    3.733;    0.000;28.15750
 442.19;    3.490;   -0.200;    0.000; 3.69000
 442.47;   15.570;    3.862;    0.000;11.70750
 442.76;   15.500;    2.916;    0.000;12.58375
 443.05;   20.860;    2.666;    0.000;18.19375
 443.34;   10.330;    2.057;    0.000; 8.27250
 443.62;   15.430;    1.426;    0.000;14.00375
 443.91;    5.020;    0.027;    0.000; 4.99250
 444.20;   42.340;    6.335;    0.000;36.00500
 444.48;    6.160;    1.109;    0.000; 5.05125
 444.77;   33.960;    4.639;    0.000;29.32125
 445.06;   10.320;    1.806;    0.000; 8.51375
 445.34;   20.720;    0.406;    0.000;20.31375
 445.63;   12.710;    0.630;    0.000;12.08000
 445.92;   36.530;    1.935;    0.000;34.59500
 446.21;   18.030;    3.364;    0.000;14.66625
 446.49;   23.590;    2.110;    0.000;21.48000
 446.78;   18.030;    2.021;    0.000;16.00875
 447.07;   17.610;    0.465;    0.000;17.14500
 447.35;    4.400;    0.983;    0.000; 3.41750
 447.64;   22.990;    3.451;    0.000;19.53875
 447.93;    5.670;    1.934;    0.000; 3.73625
 448.21;    7.490;    1.536;    0.000; 5.95375
 448.50;   13.350;    1.910;    0.000;11.44000
 448.79;   12.800;    1.992;    0.000;10.80750
 449.07;   19.150;    3.325;    0.000;15.82500
 449.36;   18.120;    1.426;    0.000;16.69375
 449.65;    6.320;    0.134;    0.000; 6.18625
 449.93;   19.400;    3.255;    0.000;16.14500
 450.22;   15.100;    1.070;    0.000;14.03000
 450.51;   15.120;    3.435;    0.000;11.68500
 450.79;   11.970;    2.901;    0.000; 9.06875
 451.08;   14.690;    2.376;    0.000;12.31375
 451.36;   11.760;   -0.282;    0.000;12.04250
 451.65;   17.730;    4.582;    0.000;13.14750
 451.94;   12.290;    2.245;    0.000;10.04500
 452.22;   13.140;    1.971;    0.000;11.16875
 452.51;    5.210;    2.864;    0.000; 2.34625
 452.80;   12.390;    0.808;    0.000;11.58250
 453.08;    6.400;    3.300;    0.000; 3.10000
 453.37;   26.030;    5.216;    0.000;20.81375
 453.66;    3.930;    1.974;    0.000; 1.95625
 453.94;   22.690;    2.578;    0.000;20.11250
 454.23;    2.680;    0.707;    0.000; 1.97250
 454.51;   24.600;    5.106;    0.000;19.49375
 454.80;    9.660;    1.065;    0.000; 8.59500
 455.09;   17.100;    3.789;    0.000;13.31125
 455.37;   25.680;    2.000;    0.000;23.68000
 455.66;   20.500;    0.929;    0.000;19.57125
 455.95;   22.560;    2.487;    0.000;20.07250
 456.23;   23.280;    1.810;    0.000;21.47000
 456.52;   11.100;   -1.785;    0.000;12.88500
 456.80;   13.990;    1.676;    0.000;12.31375
 457.09;   10.470;    0.610;    0.000; 9.86000
 457.38;   33.520;    2.624;    0.000;30.89625
 457.66;   17.400;    2.954;    0.000;14.44625
 457.95;   13.810;    2.106;    0.000;11.70375
 458.23;   11.320;   -0.848;    0.000;12.16750
 458.52;   29.410;    3.451;    0.000;25.95875
 458.81;   14.160;    4.972;    0.000; 9.18750
 459.09;   18.370;    4.175;    0.000;14.19500
 459.38;    4.520;    0.647;    0.000; 3.87250
 459.66;   18.290;    2.150;    0.000;16.14000
 459.95;   13.020;    3.480;    0.000; 9.54000
 460.23;   24.060;    1.835;    0.000;22.22500
 460.52;    3.690;   -0.050;    0.000; 3.74000
 460.81;   13.140;    3.735;    0.000; 9.40500
 461.09;    9.990;    2.649;    0.000; 7.34125
 461.38;   24.810;    0.196;    0.000;24.61375
 461.66;    8.980;    2.040;    0.000; 6.94000
 461.95;   16.690;    2.691;    0.000;13.99875
 462.23;   21.400;    2.905;    0.000;18.49500
 462.52;   17.690;    1.970;    0.000;15.72000
 462.81;    1.540;    1.775;    0.000;-0.23500
 463.09;   25.060;    2.996;    0.000;22.06375
 463.38;   11.030;    3.536;    0.000; 7.49375
 463.66;   15.830;    2.416;    0.000;13.41375
 463.95;   17.910;    0.976;    0.000;16.93375
 464.23;   22.310;    3.136;    0.000;19.17375
 464.52;    8.240;    0.415;    0.000; 7.82500
 464.80;   22.580;    2.267;    0.000;20.31250
 465.09;   18.430;    4.450;    0.000;13.98000
 465.38;   16.380;    2.135;    0.000;14.24500
 465.66;   16.950;    3.092;    0.000;13.85750
 465.95;   22.160;    3.005;    0.000;19.15500
 466.23;    4.870;    1.654;    0.000; 3.21625
 466.52;    9.250;    2.730;    0.000; 6.52000
 466.80;   31.700;    4.429;    0.000;27.27125
 467.09;   21.210;    2.030;    0.000;19.18000
 467.37;   17.810;    2.378;    0.000;15.43250
 467.66;   28.770;    4.521;    0.000;24.24875
 467.94;   13.680;    1.929;    0.000;11.75125
 468.23;   21.290;    1.577;    0.000;19.71250
 468.51;   17.610;    3.882;    0.000;13.72750
 468.80;   13.160;    3.013;    0.000;10.14750
 469.08;   21.410;    2.563;    0.000;18.84750
 469.37;   26.230;    3.146;    0.000;23.08375
 469.66;   21.960;    1.077;    0.000;20.88250
 469.94;   19.560;    0.594;    0.000;18.96625
 470.23;   17.930;    0.586;    0.000;17.34375
 470.51;   23.850;    2.723;    0.000;21.12750
 470.80;   33.530;    2.582;    0.000;30.94750
 471.08;   17.060;    3.061;    0.000;13.99875
 471.37;   17.320;    2.378;    0.000;14.94250
 471.65;   38.910;    3.132;    0.000;35.77750
 471.94;   16.330;    0.899;    0.000;15.43125
 472.22;   20.640;    1.457;    0.000;19.18250
 472.51;   20.810;    1.730;    0.000;19.08000
 472.79;   34.370;    3.695;    0.000;30.67500
 473.08;   18.220;    0.592;    0.000;17.62750
 473.36;   29.370;    3.221;    0.000;26.14875
 473.64;   21.120;    1.619;    0.000;19.50125
 473.93;   20.940;    3.253;    0.000;17.68750
 474.21;   17.490;    2.713;    0.000;14.77750
 474.50;   32.170;    4.048;    0.000;28.12250
 474.78;   35.900;    2.095;    0.000;33.80500
 475.07;   24.410;    0.941;    0.000;23.46875
 475.35;   26.180;    3.199;    0.000;22.98125
 475.64;   19.170;    2.451;    0.000;16.71875
 475.92;   16.020;    1.299;    0.000;14.72125
 476.21;   32.040;    0.804;    0.000;31.23625
 476.49;   23.020;    2.276;    0.000;20.74375
 476.78;   29.880;    2.287;    0.000;27.59250
 477.06;   24.750;    2.473;    0.000;22.27750
 477.35;   37.080;    3.790;    0.000;33.29000
 477.63;   16.910;    1.086;    0.000;15.82375
 477.91;   31.010;    1.760;    0.000;29.25000
 478.20;   48.990;    1.059;    0.000;47.93125
 478.48;   34.830;    0.538;    0.000;34.29250
 478.77;   27.600;    3.499;    0.000;24.10125
 479.05;   35.990;    3.216;    0.000;32.77375
 479.34;   37.640;    0.761;    0.000;36.87875
 479.62;   43.190;    3.401;    0.000;39.78875
 479.91;   37.810;   -0.785;    0.000;38.59500
 480.19;   53.710;    2.868;    0.000;50.84250
 480.47;   36.000;    0.215;    0.000;35.78500
 480.76;   45.020;    5.134;    0.000;39.88625
 481.04;   44.200;    2.594;    0.000;41.60625
 481.33;   71.630;    5.226;    0.000;66.40375
 481.61;   61.090;    0.775;    0.000;60.31500
 481.90;   64.200;    3.454;    0.000;60.74625
 482.18;   64.510;    1.354;    0.000;63.15625
 482.46;   78.890;    2.395;    0.000;76.49500
 482.75;   74.090;    3.819;    0.000;70.27125
 483.03;   83.010;    1.339;    0.000;81.67125
 483.32;   89.350;   -0.608;    0.000;89.95750
 483.60;  114.970;    2.681;    0.000;112.28875
 483.88;  105.650;    3.960;    0.000;101.69000
 484.17;  136.870;    1.490;    0.000;135.38000
 484.45;  141.990;    0.410;    0.000;141.58001
 484.74;  161.630;    2.251;    0.000;159.37875
 485.02;  177.710;    2.283;    0.000;175.42751
 485.30;  196.810;    1.720;    0.000;195.09000
 485.59;  208.450;    0.525;    0.000;207.92500
 485.87;  241.060;    1.050;    0.000;240.01000
 486.16;  254.740;    1.403;    0.000;253.33751
 486.44;  290.180;    2.604;    0.000;287.57624
 486.72;  303.050;    1.150;    0.000;301.89999
 487.01;  327.680;    3.671;    0.000;324.00874
 487.29;  374.010;    0.510;    0.000;373.50001
 487.58;  409.140;    5.654;    0.000;403.48626
 487.86;  436.430;    3.342;    0.000;433.08749
 488.14;  488.050;    3.932;    0.000;484.11749
 488.43;  523.840;    0.979;    0.000;522.86128
 488.71;  575.430;    0.730;    0.000;574.69999
 488.99;  618.090;    1.616;    0.000;616.47378
 489.28;  667.710;    0.715;    0.000;666.99502
 489.56;  705.400;    1.239;    0.000;704.16127
 489.85;  794.550;    2.350;    0.000;792.19999
 490.13;  843.380;    2.057;    0.000;841.32250
 490.41;  909.470;    4.855;    0.000;904.61497
 490.70;  970.380;    2.358;    0.000;968.02250
 490.98; 1043.970;    1.931;    0.000;1042.03872
 491.26; 1126.480;   -0.796;    0.000;1127.27623
 491.55; 1201.590;    2.747;    0.000;1198.84247
 491.83; 1290.860;    2.797;    0.000;1288.06249
 492.11; 1382.220;    0.218;    0.000;1382.00247
 492.40; 1465.130;    1.774;    0.000;1463.35625
 492.68; 1567.660;    3.876;    0.000;1563.78378
 492.96; 1675.830;    2.506;    0.000;1673.32371
 493.25; 1772.930;    3.009;    0.000;1769.92130
 493.53; 1851.550;    1.435;    0.000;1850.11505
 493.81; 1989.100;    3.051;    0.000;1986.04873
 494.10; 2103.130;    2.372;    0.000;2100.75738
 494.38; 2231.530;    0.340;    0.000;2231.19003
 494.66; 2362.020;   -0.239;    0.000;2362.25877
 494.95; 2496.090;    2.470;    0.000;2493.62009
 495.23; 2620.920;    3.210;    0.000;2617.70992
 495.51; 2760.120;    4.576;    0.000;2755.54387
 495.80; 2904.010;    2.500;    0.000;2901.51001
 496.08; 3065.050;    4.334;    0.000;3060.71630
 496.36; 3219.850;    2.381;    0.000;3217.46885
 496.65; 3379.160;    0.871;    0.000;3378.28866
 496.93; 3511.730;    2.741;    0.000;3508.98873
 497.21; 3725.620;    0.571;    0.000;3725.04887
 497.50; 3892.790;    3.068;    0.000;3889.72254
 497.78; 4052.920;    1.405;    0.000;4051.51492
 498.06; 4214.050;    0.853;    0.000;4213.19730
 498.34; 4429.170;    2.364;    0.000;4426.80617
 498.63; 4597.960;    3.320;    0.000;4594.63996
 498.91; 4819.870;    4.931;    0.000;4814.93887
 499.19; 5037.770;    1.158;    0.000;5036.61252
 499.48; 5190.330;    2.360;    0.000;5187.97008
 499.76; 5440.830;    3.057;    0.000;5437.77258
 500.04; 5611.100;    4.120;    0.000;5606.98010
 500.32; 5857.600;    3.015;    0.000;5854.58510
 500.61; 6077.090;    2.210;    0.000;6074.87984
 500.89; 6286.140;    2.584;    0.000;6283.55639
 501.17; 6502.730;    1.663;    0.000;6501.06748
 501.46; 6766.330;    3.491;    0.000;6762.83883
 501.74; 6997.430;    4.365;    0.000;6993.06518
 502.02; 7266.720;    3.974;    0.000;7262.74646
 502.30; 7485.360;    3.686;    0.000;7481.67361
 502.59; 7705.870;    3.149;    0.000;7702.72137
 502.87; 7965.620;    2.419;    0.000;7963.20137
 503.15; 8235.520;    3.114;    0.000;8232.40578
 503.43; 8500.480;    1.428;    0.000;8499.05297
 503.72; 8759.230;    1.790;    0.000;8757.44047
 504.00; 9034.920;    1.394;    0.000;9033.52617
 504.28; 9310.450;    2.723;    0.000;9307.72770
 504.56; 9610.670;    3.711;    0.000;9606.95867
 504.85; 9869.100;    1.084;    0.000;9868.01586
 505.13;10074.190;    3.199;    0.000;10070.99168
 505.41;10370.180;    1.260;    0.000;10368.91969
 505.69;10646.860;    4.202;    0.000;10642.65785
 505.98;10954.600;    2.303;    0.000;10952.29711
 506.26;11234.480;    2.465;    0.000;11232.01547
 506.54;11513.210;    1.691;    0.000;11511.51871
 506.82;11802.830;    1.630;    0.000;11801.20008
 507.11;12116.260;    2.685;    0.000;12113.57477
 507.39;12401.780;    2.963;    0.000;12398.81777
 507.67;12695.860;    2.545;    0.000;12693.31535
 507.95;12921.240;    4.004;    0.000;12917.23648
 508.23;13267.350;    1.665;    0.000;13265.68461
 508.52;13566.860;    4.427;    0.000;13562.43285
 508.80;13825.840;    2.648;    0.000;13823.19234
 509.08;14092.530;    3.473;    0.000;14089.05777
 509.36;14402.680;    0.114;    0.000;14402.56594
 509.65;14722.740;    2.144;    0.000;14720.59648
 509.93;14996.090;    1.548;    0.000;14994.54234
 510.21;15341.490;    1.577;    0.000;15339.91273
 510.49;15584.290;    2.626;    0.000;15581.66379
 510.77;15833.750;    2.529;    0.000;15831.22125
 511.06;16127.000;    1.059;    0.000;16125.94125
 511.34;16422.410;    1.541;    0.000;16420.86891
 511.62;16743.070;   -1.497;    0.000;16744.56781
 511.90;17028.230;    3.204;    0.000;17025.02672
 512.18;17341.750;    1.067;    0.000;17340.68250
 512.47;17630.750;    5.470;    0.000;17625.28000
 512.75;17890.971;    1.100;    0.000;17889.87070
 513.03;18185.539;    4.050;    0.000;18181.48906
 513.31;18528.840;    1.416;    0.000;18527.42359
 513.59;18686.279;    3.094;    0.000;18683.18555
 513.87;19053.230;    1.499;    0.000;19051.73172
 514.16;19321.430;    3.134;    0.000;19318.29594
 514.44;19565.910;    1.394;    0.000;19564.51641
 514.72;19828.689;    3.402;    0.000;19825.28695
 515.00;20131.641;    2.842;    0.000;20128.79813
 515.28;20434.811;    3.527;    0.000;20431.28305
 515.56;20649.600;    2.730;    0.000;20646.86961
 515.85;20961.551;    0.644;    0.000;20960.90703
 516.13;21253.660;    2.204;    0.000;21251.45641
 516.41;21558.381;    1.971;    0.000;21556.40961
 516.69;21766.609;    3.354;    0.000;21763.25563
 516.97;22056.391;    4.766;    0.000;22051.62437
 517.25;22232.609;    2.075;    0.000;22230.53437
 517.54;22516.730;    4.198;    0.000;22512.53297
 517.82;22769.740;    2.642;    0.000;22767.09773
 518.10;23030.061;    1.928;    0.000;23028.13305
 518.38;23277.381;    3.320;    0.000;23274.06086
 518.66;23518.990;    3.017;    0.000;23515.97273
 518.94;23795.721;   -0.038;    0.000;23795.75820
 519.22;24071.279;    3.063;    0.000;24068.21680
 519.51;24286.789;    0.155;    0.000;24286.63406
 519.79;24472.641;   -0.216;    0.000;24472.85688
 520.07;24743.551;    3.670;    0.000;24739.88078
 520.35;24956.840;    3.328;    0.000;24953.51234
 520.63;25225.029;    2.414;    0.000;25222.61555
 520.91;25457.910;    0.201;    0.000;25457.70891
 521.19;25695.170;    3.025;    0.000;25692.14492
 521.47;25903.410;    1.909;    0.000;25901.50141
 521.75;26147.650;    2.081;    0.000;26145.56914
 522.04;26372.939;    2.229;    0.000;26370.71070
 522.32;26561.391;    0.170;    0.000;26561.22062
 522.60;26811.410;    3.899;    0.000;26807.51141
 522.88;26954.400;    3.216;    0.000;26951.18414
 523.16;27162.740;    2.065;    0.000;27160.67523
 523.44;27448.189;    2.495;    0.000;27445.69445
 523.72;27582.770;    3.304;    0.000;27579.46578
 524.00;27810.670;    2.655;    0.000;27808.01492
 524.28;28014.199;    2.943;    0.000;28011.25672
 524.57;28184.510;    2.586;    0.000;28181.92352
 524.85;28490.619;    4.845;    0.000;28485.77414
 525.13;28614.760;    4.231;    0.000;28610.52852
 525.41;28870.270;    1.692;    0.000;28868.57703
 525.69;29042.500;    1.334;    0.000;29041.16625
 525.97;29197.430;    4.061;    0.000;29193.36844
 526.25;29315.369;    0.954;    0.000;29314.41539
 526.53;29569.699;    4.273;    0.000;29565.42672
 526.81;29742.170;    0.319;    0.000;29741.85117
 527.09;29937.350;    1.679;    0.000;29935.67086
 527.37;30015.250;    0.134;    0.000;30015.11625
 527.65;30294.490;    3.938;    0.000;30290.55273
 527.93;30412.141;    1.886;    0.000;30410.25437
 528.22;30575.760;    3.976;    0.000;30571.78352
 528.50;30780.600;    1.497;    0.000;30779.10211
 528.78;30934.330;    4.605;    0.000;30929.72508
 529.06;31066.420;    3.001;    0.000;31063.41867
 529.34;31316.740;    3.697;    0.000;31313.04273
 529.62;31496.520;    2.995;    0.000;31493.52453
 529.90;31605.020;    2.693;    0.000;31602.32703
 530.18;31767.910;    0.646;    0.000;31767.26391
 530.46;31960.500;    3.618;    0.000;31956.88250
 530.74;32052.279;    4.294;    0.000;32047.98555
 531.02;32270.619;    2.640;    0.000;32267.97914
 531.30;32387.199;    0.880;    0.000;32386.31922
 531.58;32443.109;    3.714;    0.000;32439.39563
 531.86;32642.480;    2.035;    0.000;32640.44547
 532.14;32807.141;    4.215;    0.000;32802.92562
 532.42;32932.020;    2.910;    0.000;32929.10953
 532.70;33039.930;    3.036;    0.000;33036.89344
 532.98;33190.281;    0.534;    0.000;33189.74750
 533.26;33325.148;    2.263;    0.000;33322.88594
 533.54;33515.871;    1.962;    0.000;33513.90859
 533.82;33611.469;    4.854;    0.000;33606.61500
 534.10;33730.570;    3.501;    0.000;33727.06906
 534.38;33918.219;    0.683;    0.000;33917.53625
 534.66;33994.309;    4.026;    0.000;33990.28234
 534.94;34139.059;    2.694;    0.000;34136.36484
 535.22;34263.422;    2.501;    0.000;34260.92062
 535.50;34389.910;    1.347;    0.000;34388.56266
 535.78;34473.750;    4.506;    0.000;34469.24375
 536.06;34545.250;    5.009;    0.000;34540.24125
 536.34;34667.730;    2.092;    0.000;34665.63797
 536.62;34678.012;    3.473;    0.000;34674.53922
 536.90;34933.160;    4.017;    0.000;34929.14266
 537.18;35049.840;    2.636;    0.000;35047.20359
 537.46;35111.461;    0.501;    0.000;35110.95969
 537.74;35175.199;    3.977;    0.000;35171.22172
 538.02;35362.461;    5.509;    0.000;35356.95219
 538.30;35471.289;    5.718;    0.000;35465.57156
 538.58;35549.449;    2.925;    0.000;35546.52422
 538.86;35621.340;    4.149;    0.000;35617.19109
 539.14;35792.578;    3.205;    0.000;35789.37313
 539.42;35889.180;    5.500;    0.000;35883.67969
 539.70;35968.359;    1.393;    0.000;35966.96687
 539.98;36085.559;    2.892;    0.000;36082.66609
 540.26;36171.238;    1.592;    0.000;36169.64578
 540.54;36218.859;    4.443;    0.000;36214.41687
 540.82;36307.898;    1.806;    0.000;36306.09219
 541.10;36427.359;    4.010;    0.000;36423.34937
 541.38;36546.219;    2.525;    0.000;36543.69375
 541.66;36544.289;    4.036;    0.000;36540.25281
 541.94;36636.371;    5.741;    0.000;36630.62984
 542.22;36849.078;    6.370;    0.000;36842.70813
 542.50;36943.059;    2.181;    0.000;36940.87734
 542.78;36975.711;    3.706;    0.000;36972.00469
 543.06;37068.328;    1.092;    0.000;37067.23563
 543.34;37116.680;    4.554;    0.000;37112.12594
 543.62;37100.871;    1.795;    0.000;37099.07609
 543.90;37311.570;    2.027;    0.000;37309.54281
 544.17;37297.801;    2.539;    0.000;37295.26203
 544.45;37403.559;    5.716;    0.000;37397.84234
 544.73;37461.648;    3.084;    0.000;37458.56469
 545.01;37545.031;    3.473;    0.000;37541.55875
 545.29;37592.852;    4.139;    0.000;37588.71281
 545.57;37652.840;    5.057;    0.000;37647.78234
 545.85;37745.922;    3.080;    0.000;37742.84188
 546.13;37700.250;    3.045;    0.000;37697.20500
 546.41;37881.059;    5.004;    0.000;37876.05484
 546.69;37854.051;    5.885;    0.000;37848.16578
 546.97;37895.539;    3.510;    0.000;37892.02906
 547.25;38008.551;    5.443;    0.000;38003.10828
 547.52;38023.398;    6.606;    0.000;38016.79219
 547.80;38090.699;    4.670;    0.000;38086.02922
 548.08;38067.828;    2.263;    0.000;38065.56562
 548.36;38144.051;    4.355;    0.000;38139.69578
 548.64;38173.969;    4.756;    0.000;38169.21250
 548.92;38264.410;    3.705;    0.000;38260.70516
 549.20;38318.090;    3.259;    0.000;38314.83109
 549.48;38340.371;    4.170;    0.000;38336.20109
 549.76;38425.160;    4.735;    0.000;38420.42516
 550.04;38386.891;    5.597;    0.000;38381.29313
 550.31;38377.801;    1.956;    0.000;38375.84453
 550.59;38398.121;    3.471;    0.000;38394.64984
 550.87;38454.660;    2.305;    0.000;38452.35516
 551.15;38462.301;    5.196;    0.000;38457.10453
 551.43;38526.371;    2.901;    0.000;38523.46984
 551.71;38532.059;    4.271;    0.000;38527.78734
 551.99;38524.371;    2.554;    0.000;38521.81734
 552.27;38548.129;    4.544;    0.000;38543.58516
 552.54;38586.281;    3.098;    0.000;38583.18375
 552.82;38771.602;    2.580;    0.000;38769.02156
 553.10;38604.090;    3.609;    0.000;38600.48109
 553.38;38715.281;    5.986;    0.000;38709.29500
 553.66;38633.129;    4.290;    0.000;38628.83891
 553.94;38698.750;    0.865;    0.000;38697.88500
 554.22;38763.980;    4.026;    0.000;38759.95422
 554.49;38712.738;    1.909;    0.000;38710.82953
 554.77;38694.570;    3.175;    0.000;38691.39531
 555.05;38672.852;    4.770;    0.000;38668.08156
 555.33;38668.039;    3.230;    0.000;38664.80906
 555.61;38735.648;    3.481;    0.000;38732.16719
 555.89;38711.090;    0.751;    0.000;38710.33859
 556.16;38685.371;    1.086;    0.000;38684.28484
 556.44;38683.070;    1.997;    0.000;38681.07281
 556.72;38647.531;    5.874;    0.000;38641.65750
 557.00;38656.051;    2.216;    0.000;38653.83453
 557.28;38712.648;    2.520;    0.000;38710.12844
 557.56;38594.449;    1.341;    0.000;38593.10797
 557.83;38668.250;    6.726;    0.000;38661.52375
 558.11;38642.109;    6.404;    0.000;38635.70563
 558.39;38608.230;    2.997;    0.000;38605.23297
 558.67;38581.980;    1.645;    0.000;38580.33547
 558.95;38561.461;    1.871;    0.000;38559.58969
 559.23;38566.781;    3.966;    0.000;38562.81500
 559.50;38577.711;    3.114;    0.000;38574.59719
 559.78;38463.410;    2.484;    0.000;38460.92641
 560.06;38426.512;    3.674;    0.000;38422.83797
 560.34;38429.359;    4.381;    0.000;38424.97813
 560.62;38415.422;    5.099;    0.000;38410.32312
 560.89;38384.398;    3.236;    0.000;38381.16219
 561.17;38347.422;    3.039;    0.000;38344.38313
 561.45;38258.801;    6.720;    0.000;38252.08078
 561.73;38254.590;    3.614;    0.000;38250.97609
 562.00;38210.340;    1.837;    0.000;38208.50234
 562.28;38147.359;    4.736;    0.000;38142.62313
 562.56;38095.602;    3.688;    0.000;38091.91406
 562.84;38098.609;    5.670;    0.000;38092.93937
 563.12;38059.461;    1.199;    0.000;38058.26219
 563.39;37954.730;    2.850;    0.000;37951.88047
 563.67;37974.059;    4.331;    0.000;37969.72734
 563.95;37863.109;    3.725;    0.000;37859.38438
 564.23;37864.762;    0.817;    0.000;37863.94422
 564.50;37861.051;    3.756;    0.000;37857.29453
 564.78;37724.910;    4.778;    0.000;37720.13266
 565.06;37699.859;    4.095;    0.000;37695.76438
 565.34;37609.691;    3.490;    0.000;37606.20141
 565.61;37583.020;    3.579;    0.000;37579.44078
 565.89;37453.250;    4.356;    0.000;37448.89375
 566.17;37402.801;    1.107;    0.000;37401.69328
 566.45;37372.852;    3.446;    0.000;37369.40531
 566.73;37347.059;    4.733;    0.000;37342.32609
 567.00;37220.648;    2.011;    0.000;37218.63719
 567.28;37158.852;    4.403;    0.000;37154.44906
 567.56;36988.941;    4.230;    0.000;36984.71141
 567.83;37008.039;    4.820;    0.000;37003.21906
 568.11;36937.980;    4.360;    0.000;36933.62047
 568.39;36857.410;    3.311;    0.000;36854.09891
 568.67;36786.949;    4.975;    0.000;36781.97422
 568.94;36639.379;    4.472;    0.000;36634.90641
 569.22;36571.602;    2.889;    0.000;36568.71281
 569.50;36520.801;    2.293;    0.000;36518.50828
 569.78;36408.988;    0.215;    0.000;36408.77328
 570.05;36335.000;    2.606;    0.000;36332.39375
 570.33;36284.969;    2.001;    0.000;36282.96750
 570.61;36143.422;    5.050;    0.000;36138.37187
 570.88;36072.621;    1.764;    0.000;36070.85734
 571.16;36005.230;    2.787;    0.000;36002.44297
 571.44;35912.840;    0.548;    0.000;35912.29234
 571.72;35773.359;    2.101;    0.000;35771.25813
 571.99;35721.852;    2.487;    0.000;35719.36406
 572.27;35655.801;    2.940;    0.000;35652.86078
 572.55;35503.711;    2.769;    0.000;35500.94219
 572.82;35417.738;    3.071;    0.000;35414.66703
 573.10;35251.910;    4.463;    0.000;35247.44766
 573.38;35200.129;    4.084;    0.000;35196.04516
 573.65;35031.320;    4.691;    0.000;35026.62906
 573.93;34972.141;    2.601;    0.000;34969.53938
 574.21;34824.750;    2.024;    0.000;34822.72625
 574.48;34759.199;    4.831;    0.000;34754.36797
 574.76;34621.191;    4.536;    0.000;34616.65516
 575.04;34535.289;    5.972;    0.000;34529.31656
 575.32;34399.391;    0.036;    0.000;34399.35438
 575.59;34267.199;    5.807;    0.000;34261.39172
 575.87;34213.910;    3.089;    0.000;34210.82141
 576.15;34076.570;    4.832;    0.000;34071.73781
 576.42;33878.148;    1.260;    0.000;33876.88844
 576.70;33753.141;    2.868;    0.000;33750.27312
 576.98;33779.621;    4.479;    0.000;33775.14234
 577.25;33523.328;    3.994;    0.000;33519.33437
 577.53;33454.738;    2.311;    0.000;33452.42703
 577.80;33264.770;    4.555;    0.000;33260.21453
 578.08;33159.078;    1.016;    0.000;33158.06187
 578.36;33045.809;    3.935;    0.000;33041.87359
 578.63;32951.191;    2.959;    0.000;32948.23266
 578.91;32775.039;    3.149;    0.000;32771.89031
 579.19;32692.270;    3.899;    0.000;32688.37078
 579.46;32562.369;    3.882;    0.000;32558.48664
 579.74;32363.939;    0.826;    0.000;32363.11320
 580.02;32320.320;    0.681;    0.000;32319.63906
 580.29;32146.240;    3.734;    0.000;32142.50648
 580.57;32008.150;    2.340;    0.000;32005.81039
 580.84;31892.990;    1.306;    0.000;31891.68398
 581.12;31736.490;    4.154;    0.000;31732.33648
 581.40;31670.131;    2.944;    0.000;31667.18711
 581.67;31419.439;    4.294;    0.000;31415.14570
 581.95;31324.000;    1.742;    0.000;31322.25750
 582.23;31180.570;    2.881;    0.000;31177.68906
 582.50;30993.670;    4.459;    0.000;30989.21117
 582.78;30842.340;    2.859;    0.000;30839.48109
 583.05;30700.250;    3.785;    0.000;30696.46500
 583.33;30527.850;    2.399;    0.000;30525.45086
 583.61;30344.520;    6.227;    0.000;30338.29203
 583.88;30203.680;    3.654;    0.000;30200.02594
 584.16;30100.770;    1.746;    0.000;30099.02328
 584.43;29931.061;    3.211;    0.000;29927.84930
 584.71;29801.600;    2.947;    0.000;29798.65211
 584.99;29617.150;    3.717;    0.000;29613.43289
 585.26;29512.061;    2.017;    0.000;29510.04305
 585.54;29356.930;    1.204;    0.000;29355.72594
 585.81;29209.240;    4.169;    0.000;29205.07148
 586.09;29101.180;    3.445;    0.000;29097.73469
 586.37;28907.529;    1.883;    0.000;28905.64680
 586.64;28783.920;    4.314;    0.000;28779.60617
 586.92;28611.330;    1.679;    0.000;28609.65133
 587.19;28497.039;    3.080;    0.000;28493.95906
 587.47;28335.420;    2.747;    0.000;28332.67242
 587.74;28192.939;    4.613;    0.000;28188.32695
 588.02;28027.490;    4.313;    0.000;28023.17773
 588.30;27857.090;    3.340;    0.000;27853.74984
 588.57;27721.131;    3.376;    0.000;27717.75461
 588.85;27549.650;    4.094;    0.000;27545.55664
 589.12;27443.840;    4.117;    0.000;27439.72234
 589.40;27355.510;    2.787;    0.000;27352.72227
 589.67;27155.980;    2.685;    0.000;27153.29547
 589.95;27006.801;    7.534;    0.000;26999.26703
 590.22;26884.520;    2.001;    0.000;26882.51828
 590.50;26724.449;    3.696;    0.000;26720.75297
 590.77;26600.500;    1.840;    0.000;26598.66000
 591.05;26397.750;    4.359;    0.000;26393.39125
 591.33;26249.480;    1.175;    0.000;26248.30547
 591.60;26120.920;    1.119;    0.000;26119.80117
 591.88;25922.471;    4.168;    0.000;25918.30320
 592.15;25785.971;    3.402;    0.000;25782.56820
 592.43;25614.320;    2.320;    0.000;25612.00031
 592.70;25454.189;    3.095;    0.000;25451.09445
 592.98;25354.369;    3.245;    0.000;25351.12414
 593.25;25177.240;    3.697;    0.000;25173.54273
 593.53;25027.000;    2.335;    0.000;25024.66500
 593.80;24813.320;    3.291;    0.000;24810.02906
 594.08;24643.131;    1.874;    0.000;24641.25711
 594.35;24454.859;    4.060;    0.000;24450.79938
 594.63;24298.570;    2.872;    0.000;24295.69781
 594.90;24208.070;    2.609;    0.000;24205.46156
 595.18;24067.449;    3.821;    0.000;24063.62797
 595.45;23893.430;    4.101;    0.000;23889.32844
 595.73;23656.529;    3.088;    0.000;23653.44180
 596.00;23439.109;    5.176;    0.000;23433.93313
 596.28;23361.529;    2.150;    0.000;23359.37930
 596.55;23146.500;    4.939;    0.000;23141.56125
 596.83;23038.900;    1.852;    0.000;23037.04789
 597.10;22878.840;    4.657;    0.000;22874.18234
 597.38;22732.770;    3.055;    0.000;22729.71453
 597.65;22534.990;    2.369;    0.000;22532.62148
 597.93;22367.980;    0.613;    0.000;22367.36797
 598.20;22251.400;    3.918;    0.000;22247.48289
 598.48;22103.779;    1.860;    0.000;22101.91930
 598.75;21866.750;    3.500;    0.000;21863.25000
 599.03;21751.420;    4.341;    0.000;21747.07867
 599.30;21636.930;    1.952;    0.000;21634.97719
 599.58;21445.330;    3.211;    0.000;21442.11883
 599.85;21310.660;    5.479;    0.000;21305.18141
 600.12;21142.051;    2.605;    0.000;21139.44578
 600.40;20947.949;    4.610;    0.000;20943.33922
 600.67;20801.010;    3.875;    0.000;20797.13477
 600.95;20639.250;    3.932;    0.000;20635.31750
 601.22;20522.211;    4.343;    0.000;20517.86844
 601.50;20385.289;    3.861;    0.000;20381.42781
 601.77;20248.141;    2.813;    0.000;20245.32813
 602.05;20069.131;    3.898;    0.000;20065.23336
 602.32;19920.721;    2.983;    0.000;19917.73820
 602.59;19783.520;    2.529;    0.000;19780.99078
 602.87;19657.891;    4.855;    0.000;19653.03562
 603.14;19514.141;    3.612;    0.000;19510.52813
 603.42;19349.350;    2.557;    0.000;19346.79211
 603.69;19210.381;    1.731;    0.000;19208.64961
 603.97;19094.221;    4.331;    0.000;19089.88945
 604.24;18967.900;    3.800;    0.000;18964.10039
 604.51;18822.910;    3.688;    0.000;18819.22266
 604.79;18752.141;    3.882;    0.000;18748.25813
 605.06;18571.539;    3.945;    0.000;18567.59406
 605.34;18472.160;    4.537;    0.000;18467.62266
 605.61;18350.279;    2.057;    0.000;18348.22180
 605.89;18193.789;    3.287;    0.000;18190.50156
 606.16;18091.920;    4.349;    0.000;18087.57117
 606.43;17961.650;    5.481;    0.000;17956.16914
 606.71;17849.670;    2.475;    0.000;17847.19492
 606.98;17770.811;    2.328;    0.000;17768.48305
 607.26;17551.020;    3.761;    0.000;17547.25828
 607.53;17419.109;    2.716;    0.000;17416.39313
 607.80;17387.590;    2.881;    0.000;17384.70859
 608.08;17224.150;    3.045;    0.000;17221.10539
 608.35;17083.391;    3.132;    0.000;17080.25813
 608.62;16958.730;    2.546;    0.000;16956.18422
 608.90;16889.760;    1.881;    0.000;16887.87852
 609.17;16839.730;    1.808;    0.000;16837.92297
 609.45;16650.070;    3.072;    0.000;16646.99781
 609.72;16573.980;    4.076;    0.000;16569.90422
 609.99;16442.039;    1.740;    0.000;16440.29906
 610.27;16334.060;    3.930;    0.000;16330.12957
 610.54;16261.670;   -0.248;    0.000;16261.91742
 610.81;16093.670;    3.979;    0.000;16089.69117
 611.09;16020.000;    2.641;    0.000;16017.35875
 611.36;15935.160;    0.728;    0.000;15934.43266
 611.64;15786.960;    3.644;    0.000;15783.31621
 611.91;15736.020;    2.205;    0.000;15733.81453
 612.18;15613.380;    3.130;    0.000;15610.24988
 612.46;15550.420;    4.631;    0.000;15545.78867
 612.73;15416.500;    1.941;    0.000;15414.55875
 613.00;15283.920;    3.451;    0.000;15280.46867
 613.28;15186.130;    2.829;    0.000;15183.30113
 613.55;15046.530;    5.354;    0.000;15041.17652
 613.82;14929.120;    2.598;    0.000;14926.52262
 614.10;14775.840;    2.566;    0.000;14773.27359
 614.37;14633.980;    0.998;    0.000;14632.98297
 614.64;14501.430;    1.727;    0.000;14499.70219
 614.92;14269.410;    1.755;    0.000;14267.65516
 615.19;14181.250;    3.310;    0.000;14177.94000
 615.46;13958.860;    3.815;    0.000;13955.04535
 615.74;13810.210;    3.493;    0.000;13806.71746
 616.01;13572.270;   -0.661;    0.000;13572.93078
 616.28;13382.920;    3.483;    0.000;13379.43742
 616.56;13151.010;    1.890;    0.000;13149.11977
 616.83;12916.200;    2.476;    0.000;12913.72395
 617.10;12763.360;    4.282;    0.000;12759.07785
 617.37;12794.000;    2.747;    0.000;12791.25250
 617.65;12875.030;    1.979;    0.000;12873.05152
 617.92;12970.390;    3.259;    0.000;12967.13090
 618.19;12916.600;    3.304;    0.000;12913.29586
 618.47;12779.550;    2.418;    0.000;12777.13230
 618.74;12746.200;    2.545;    0.000;12743.65520
 619.01;12670.230;    5.466;    0.000;12664.76422
 619.28;12599.050;    6.039;    0.000;12593.01105
 619.56;12544.240;    4.155;    0.000;12540.08523
 619.83;12496.680;    3.957;    0.000;12492.72219
 620.10;12399.680;    3.467;    0.000;12396.21219
 620.38;12336.530;    2.330;    0.000;12334.20027
 620.65;12237.900;    3.352;    0.000;12234.54789
 620.92;12238.430;    2.168;    0.000;12236.26219
 621.19;12188.640;    4.168;    0.000;12184.47215
 621.47;12202.790;    0.951;    0.000;12201.83879
 621.74;12265.870;    4.323;    0.000;12261.54762
 622.01;12239.720;    1.462;    0.000;12238.25723
 622.28;12226.770;    4.025;    0.000;12222.74453
 622.56;12202.820;    2.351;    0.000;12200.46906
 622.83;12170.660;    1.730;    0.000;12168.93016
 623.10;12088.820;    2.729;    0.000;12086.09156
 623.38;12051.660;    2.005;    0.000;12049.65516
 623.65;11987.230;    4.239;    0.000;11982.99172
 623.92;11931.060;    1.536;    0.000;11929.52332
 624.19;11902.040;   -0.880;    0.000;11902.92004
 624.46;11830.510;    3.061;    0.000;11827.44852
 624.74;11779.890;    3.045;    0.000;11776.84465
 625.01;11746.440;    5.025;    0.000;11741.41543
 625.28;11668.560;    1.938;    0.000;11666.62207
 625.55;11641.190;    1.933;    0.000;11639.25793
 625.83;11563.090;    3.122;    0.000;11559.96734
 626.10;11549.860;    3.759;    0.000;11546.10160
 626.37;11469.590;    1.891;    0.000;11467.69859
 626.64;11395.530;    2.188;    0.000;11393.34277
 626.92;11358.330;    1.146;    0.000;11357.18383
 627.19;11349.900;    3.395;    0.000;11346.50539
 627.46;11311.810;    1.855;    0.000;11309.95457
 627.73;11226.950;   -0.625;    0.000;11227.57520
 628.00;11193.060;    4.034;    0.000;11189.02582
 628.28;11144.210;    2.981;    0.000;11141.22871
 628.55;11119.810;    0.068;    0.000;11119.74207
 628.82;11067.730;    1.947;    0.000;11065.78297
 629.09;11002.950;    4.360;    0.000;10998.59020
 629.36;10940.730;    5.664;    0.000;10935.06672
 629.64;10926.330;    0.757;    0.000;10925.57258
 629.91;10865.750;    6.573;    0.000;10859.17750
 630.18;10782.160;    3.014;    0.000;10779.14641
 630.45;10733.910;    0.545;    0.000;10733.36516
 630.72;10649.790;   -1.060;    0.000;10650.85004
 631.00;10665.110;    1.430;    0.000;10663.68035
 631.27;10608.070;    2.735;    0.000;10605.33531
 631.54;10530.070;    1.822;    0.000;10528.24781
 631.81;10489.950;    3.679;    0.000;10486.27145
 632.08;10439.850;    3.724;    0.000;10436.12586
 632.35;10371.000;    2.265;    0.000;10368.73500
 632.63;10352.470;    4.170;    0.000;10348.29973
 632.90;10331.170;    2.181;    0.000;10328.98867
 633.17;10290.080;    1.319;    0.000;10288.76133
 633.44;10258.440;    3.421;    0.000;10255.01918
 633.71;10230.890;    3.719;    0.000;10227.17090
 633.98;10169.860;    0.863;    0.000;10168.99785
 634.25;10129.470;    4.139;    0.000;10125.33098
 634.53;10135.320;    3.731;    0.000;10131.58906
 634.80;10119.080;    2.301;    0.000;10116.77883
 635.07;10115.680;    2.280;    0.000;10113.39969
 635.34;10113.510;    4.559;    0.000;10108.95102
 635.61;10099.840;    4.886;    0.000;10094.95359
 635.88;10073.170;    2.765;    0.000;10070.40492
 636.15;10141.350;    3.779;    0.000;10137.57086
 636.43;10152.670;    3.138;    0.000;10149.53242
 636.70;10116.640;    0.309;    0.000;10116.33090
 636.97;10065.540;    0.026;    0.000;10065.51379
 637.24; 9991.700;    2.896;    0.000;9988.80395
 637.51; 9801.290;    4.227;    0.000;9797.06254
 637.78; 9676.680;    1.205;    0.000;9675.47469
 638.05; 9615.730;   -0.521;    0.000;9616.25172
 638.32; 9574.370;    4.594;    0.000;9569.77637
 638.60; 9525.430;    1.989;    0.000;9523.44094
 638.87; 9432.540;    0.371;    0.000;9432.16879
 639.14; 9390.050;    4.139;    0.000;9385.91105
 639.41; 9342.250;    0.873;    0.000;9341.37750
 639.68; 9257.450;    3.072;    0.000;9254.37770
 639.95; 9164.120;    1.040;    0.000;9163.08012
 640.22; 9135.040;    3.735;    0.000;9131.30504
 640.49; 9061.290;    2.639;    0.000;9058.65129
 640.76; 8994.210;    5.461;    0.000;8988.74871
 641.03; 8887.050;    0.767;    0.000;8886.28230
 641.30; 8767.860;    4.760;    0.000;8763.10035
 641.58; 8691.700;    0.679;    0.000;8691.02145
 641.85; 8599.920;    3.010;    0.000;8596.90992
 642.12; 8482.500;    1.204;    0.000;8481.29625
 642.39; 8442.120;    4.154;    0.000;8437.96637
 642.66; 8381.570;    1.847;    0.000;8379.72281
 642.93; 8308.360;    1.470;    0.000;8306.89035
 643.20; 8260.770;    1.317;    0.000;8259.45203
 643.47; 8219.680;    3.454;    0.000;8216.22594
 643.74; 8125.080;    0.748;    0.000;8124.33258
 644.01; 8111.320;    3.763;    0.000;8107.55732
 644.28; 8033.240;    0.605;    0.000;8032.63523
 644.55; 7997.480;    2.486;    0.000;7994.99373
 644.82; 7950.830;    2.384;    0.000;7948.44633
 645.09; 7861.330;    0.360;    0.000;7860.97008
 645.36; 7816.180;    3.155;    0.000;7813.02518
 645.63; 7804.720;    2.894;    0.000;7801.82646
 645.91; 7713.590;    3.947;    0.000;7709.64234
 646.18; 7683.720;    3.690;    0.000;7680.03021
 646.45; 7648.340;    0.995;    0.000;7647.34484
 646.72; 7594.060;    1.101;    0.000;7592.95881
 646.99; 7554.630;    1.396;    0.000;7553.23363
 647.26; 7469.900;    1.024;    0.000;7468.87615
 647.53; 7411.610;    1.119;    0.000;7410.49111
 647.80; 7429.520;    1.765;    0.000;7427.75502
 648.07; 7346.000;    0.945;    0.000;7345.05500
 648.34; 7328.110;    1.820;    0.000;7326.28986
 648.61; 7247.870;    1.154;    0.000;7246.71637
 648.88; 7186.290;    2.699;    0.000;7183.59129
 649.15; 7164.090;    1.045;    0.000;7163.04484
 649.42; 7112.860;    2.971;    0.000;7109.88861
 649.69; 7091.300;   -1.864;    0.000;7093.16355
 649.96; 7014.600;    0.123;    0.000;7014.47760
 650.23; 6989.780;   -1.247;    0.000;6991.02729
 650.50; 6961.150;    2.479;    0.000;6958.67115
 650.77; 6900.050;   -0.845;    0.000;6900.89480
 651.04; 6861.560;    4.423;    0.000;6857.13756
 651.31; 6821.280;    1.202;    0.000;6820.07729
 651.58; 6755.740;    1.992;    0.000;6753.74773
 651.85; 6720.920;    0.651;    0.000;6720.26867
 652.12; 6716.210;    1.250;    0.000;6714.95996
 652.39; 6629.780;    2.362;    0.000;6627.41729
 652.66; 6604.160;    3.281;    0.000;6600.87891
 652.93; 6532.170;    2.255;    0.000;6529.91492
 653.20; 6544.990;    2.949;    0.000;6542.04148
 653.47; 6459.290;    0.469;    0.000;6458.82129
 653.74; 6416.040;    4.386;    0.000;6411.65379
 654.01; 6424.480;    2.973;    0.000;6421.50748
 654.28; 6342.690;    1.301;    0.000;6341.38869
 654.55; 6284.550;   -1.832;    0.000;6286.38230
 654.81; 6266.620;    3.639;    0.000;6262.98137
 655.08; 6211.920;    0.624;    0.000;6211.29617
 655.35; 6179.300;    4.320;    0.000;6174.97980
 655.62; 6101.650;   -1.529;    0.000;6103.17865
 655.89; 6092.520;    2.852;    0.000;6089.66752
 656.16; 6046.900;    0.510;    0.000;6046.38990
 656.43; 6003.280;    3.440;    0.000;5999.83979
 656.70; 5986.430;    1.716;    0.000;5984.71393
 656.97; 5922.230;    2.947;    0.000;5919.28248
 657.24; 5873.110;    2.443;    0.000;5870.66736
 657.51; 5837.940;    5.190;    0.000;5832.74994
 657.78; 5819.460;    2.088;    0.000;5817.37246
 658.05; 5771.320;    2.378;    0.000;5768.94232
 658.32; 5723.000;    2.024;    0.000;5720.97625
 658.59; 5686.130;    2.130;    0.000;5683.99988
 658.86; 5668.740;    1.824;    0.000;5666.91648
 659.12; 5612.960;    2.666;    0.000;5610.29371
 659.39; 5556.330;    1.124;    0.000;5555.20633
 659.66; 5560.060;    3.401;    0.000;5556.65881
 659.93; 5522.570;    1.985;    0.000;5520.58482
 660.20; 5439.670;    3.110;    0.000;5436.55992
 660.47; 5418.390;    2.070;    0.000;5416.32014
 660.74; 5379.350;    1.519;    0.000;5377.83135
 661.01; 5358.930;    5.176;    0.000;5353.75393
 661.28; 5296.660;    1.305;    0.000;5295.35516
 661.55; 5268.470;    3.871;    0.000;5264.59896
 661.81; 5254.030;    0.349;    0.000;5253.68104
 662.08; 5183.640;   -1.056;    0.000;5184.69639
 662.35; 5153.940;    0.981;    0.000;5152.95869
 662.62; 5115.950;    0.535;    0.000;5115.41520
 662.89; 5104.720;    3.275;    0.000;5101.44521
 663.16; 5049.610;   -0.139;    0.000;5049.74861
 663.43; 5007.480;    1.344;    0.000;5006.13623
 663.70; 4928.670;    3.266;    0.000;4925.40367
 663.96; 4942.340;    1.253;    0.000;4941.08734
 664.23; 4882.140;    0.530;    0.000;4881.61014
 664.50; 4871.020;    2.487;    0.000;4868.53252
 664.77; 4825.380;   -0.877;    0.000;4826.25738
 665.04; 4790.490;    3.953;    0.000;4786.53773
 665.31; 4748.820;    0.842;    0.000;4747.97732
 665.58; 4734.890;    2.457;    0.000;4732.43264
 665.84; 4705.710;    0.780;    0.000;4704.92996
 666.11; 4661.010;    4.791;    0.000;4656.21852
 666.38; 4598.650;   -0.827;    0.000;4599.47740
 666.65; 4584.730;    2.049;    0.000;4582.68123
 666.92; 4554.200;   -1.602;    0.000;4555.80270
 667.19; 4536.680;    2.217;    0.000;4534.46268
 667.46; 4497.160;    0.044;    0.000;4497.11641
 667.72; 4472.350;    2.615;    0.000;4469.73510
 667.99; 4431.820;    1.617;    0.000;4430.20232
 668.26; 4387.220;    4.448;    0.000;4382.77271
 668.53; 4357.680;    1.530;    0.000;4356.15018
 668.80; 4344.310;    1.789;    0.000;4342.52131
 669.06; 4291.190;    3.941;    0.000;4287.24869
 669.33; 4282.240;    4.309;    0.000;4277.93148
 669.60; 4217.830;    0.438;    0.000;4217.39258
 669.87; 4212.960;    1.599;    0.000;4211.36121
 670.14; 4151.160;   -0.375;    0.000;4151.53516
 670.41; 4143.820;    1.401;    0.000;4142.41857
 670.67; 4113.080;    2.004;    0.000;4111.07633
 670.94; 4068.440;    0.808;    0.000;4067.63244
 671.21; 4016.340;    2.151;    0.000;4014.18884
 671.48; 3986.880;   -0.835;    0.000;3987.71488
 671.75; 3965.980;    2.424;    0.000;3963.55623
 672.01; 3954.100;    3.504;    0.000;3950.59635
 672.28; 3906.240;    1.559;    0.000;3904.68124
 672.55; 3905.470;    3.671;    0.000;3901.79872
 672.82; 3840.550;    1.102;    0.000;3839.44755
 673.08; 3832.040;    2.175;    0.000;3829.86504
 673.35; 3795.210;   -0.296;    0.000;3795.50621
 673.62; 3756.420;    0.715;    0.000;3755.70492
 673.89; 3700.860;   -1.376;    0.000;3702.23636
 674.16; 3676.930;    2.699;    0.000;3674.23118
 674.42; 3683.250;    3.569;    0.000;3679.68125
 674.69; 3645.900;    0.779;    0.000;3645.12115
 674.96; 3619.670;    1.980;    0.000;3617.68992
 675.23; 3590.130;    2.409;    0.000;3587.72113
 675.49; 3545.920;    1.455;    0.000;3544.46492
 675.76; 3529.040;    3.918;    0.000;3525.12254
 676.03; 3516.740;    2.640;    0.000;3514.09999
 676.30; 3462.580;    3.191;    0.000;3459.38883
 676.56; 3451.120;    1.544;    0.000;3449.57637
 676.83; 3431.750;    2.005;    0.000;3429.74500
 677.10; 3384.900;    0.876;    0.000;3384.02365
 677.37; 3346.790;    5.404;    0.000;3341.38629
 677.63; 3329.540;   -0.745;    0.000;3330.28504
 677.90; 3304.910;    4.010;    0.000;3300.89991
 678.17; 3279.720;    1.760;    0.000;3277.95997
 678.44; 3271.180;    2.400;    0.000;3268.77993
 678.70; 3205.650;    1.548;    0.000;3204.10240
 678.97; 3202.630;    1.459;    0.000;3201.17113
 679.24; 3168.880;    0.824;    0.000;3168.05613
 679.50; 3148.440;    2.297;    0.000;3146.14244
 679.77; 3121.720;    0.320;    0.000;3121.39997
 680.04; 3106.810;    0.405;    0.000;3106.40506
 680.31; 3070.370;   -0.887;    0.000;3071.25762
 680.57; 3040.690;    2.870;    0.000;3037.81994
 680.84; 3034.240;    1.740;    0.000;3032.49999
 681.11; 3010.650;    1.115;    0.000;3009.53490
 681.37; 2983.700;   -1.815;    0.000;2985.51495
 681.64; 2961.140;   -0.892;    0.000;2962.03239
 681.91; 2916.330;    4.430;    0.000;2911.90008
 682.17; 2903.350;    3.001;    0.000;2900.34885
 682.44; 2864.900;   -1.503;    0.000;2866.40240
 682.71; 2831.460;    3.140;    0.000;2828.31996
 682.98; 2848.580;    1.636;    0.000;2846.94383
 683.24; 2800.700;   -0.827;    0.000;2801.52745
 683.51; 2785.890;    0.954;    0.000;2784.93614
 683.78; 2763.400;    1.344;    0.000;2762.05615
 684.04; 2759.590;    1.450;    0.000;2758.14009
 684.31; 2704.270;    0.043;    0.000;2704.22752
 684.58; 2674.340;    1.136;    0.000;2673.20384
 684.84; 2687.500;    2.069;    0.000;2685.43125
 685.11; 2657.180;    3.858;    0.000;2653.32243
 685.38; 2646.840;    4.713;    0.000;2642.12759
 685.64; 2616.690;    0.870;    0.000;2615.81994
 685.91; 2602.060;   -0.069;    0.000;2602.12881
 686.17; 2565.590;    2.316;    0.000;2563.27384
 686.44; 2554.740;   -0.858;    0.000;2555.59749
 686.71; 2533.930;    1.816;    0.000;2532.11368
 686.97; 2512.230;   -1.670;    0.000;2513.89998
 687.24; 2491.070;    0.944;    0.000;2490.12632
 687.51; 2484.170;    0.550;    0.000;2483.61992
 687.77; 2453.340;    1.104;    0.000;2452.23634
 688.04; 2431.420;    1.634;    0.000;2429.78617
 688.31; 2409.160;    2.836;    0.000;2406.32366
 688.57; 2404.220;    1.955;    0.000;2402.26497
 688.84; 2402.270;    1.581;    0.000;2400.68877
 689.10; 2363.270;    3.057;    0.000;2360.21252
 689.37; 2331.810;    1.930;    0.000;2329.88006
 689.64; 2310.270;    0.310;    0.000;2309.96002
 689.90; 2286.670;    1.576;    0.000;2285.09367
 690.17; 2283.290;    3.089;    0.000;2280.20129
 690.44; 2239.320;   -0.029;    0.000;2239.34882
 690.70; 2226.860;    2.069;    0.000;2224.79136
 690.97; 2189.090;    0.464;    0.000;2188.62634
 691.23; 2198.210;    2.264;    0.000;2195.94621
 691.50; 2162.830;    0.368;    0.000;2162.46258
 691.77; 2140.910;    3.309;    0.000;2137.60116
 692.03; 2153.290;   -0.905;    0.000;2154.19504
 692.30; 2110.280;    1.190;    0.000;2109.09003
 692.56; 2092.270;    0.126;    0.000;2092.14377
 692.83; 2068.750;    0.384;    0.000;2068.36625
 693.10; 2053.330;    3.125;    0.000;2050.20508
 693.36; 2029.050;    2.911;    0.000;2026.13880
 693.63; 1996.610;    0.608;    0.000;1996.00249
 693.89; 1973.200;   -0.538;    0.000;1973.73745
 694.16; 1968.070;    0.642;    0.000;1967.42745
 694.42; 1950.910;    0.609;    0.000;1950.30128
 694.69; 1919.210;    3.661;    0.000;1915.54871
 694.96; 1956.180;    3.156;    0.000;1953.02380
 695.22; 1903.330;    2.274;    0.000;1901.05621
 695.49; 1880.850;    3.946;    0.000;1876.90373
 695.75; 1835.060;    2.188;    0.000;1832.87256
 696.02; 1848.530;    2.641;    0.000;1845.88878
 696.28; 1817.030;    2.575;    0.000;1814.45503
 696.55; 1802.000;    1.420;    0.000;1800.58000
 696.81; 1762.620;    1.639;    0.000;1760.98125
 697.08; 1755.600;    0.668;    0.000;1754.93248
 697.34; 1720.690;    0.815;    0.000;1719.87494
 697.61; 1713.110;    1.273;    0.000;1711.83749
 697.88; 1693.400;    0.400;    0.000;1693.00002
 698.14; 1667.920;    0.565;    0.000;1667.35504
 698.41; 1651.720;    2.316;    0.000;1649.40372
 698.67; 1626.330;    0.394;    0.000;1625.93621
 698.94; 1611.550;   -0.249;    0.000;1611.79880
 699.20; 1596.550;   -1.043;    0.000;1597.59255
 699.47; 1572.400;    3.237;    0.000;1569.16252
 699.73; 1557.260;    2.318;    0.000;1554.94251
 700.00; 1534.680;   -2.205;    0.000;1536.88505
 700.26; 1509.270;    1.921;    0.000;1507.34877
 700.53; 1496.970;   -0.345;    0.000;1497.31497
 700.79; 1464.540;    2.044;    0.000;1462.49629
 701.06; 1466.460;    1.224;    0.000;1465.23621
 701.32; 1452.870;    3.382;    0.000;1449.48750
 701.59; 1412.620;    0.240;    0.000;1412.38000
 701.85; 1399.230;   -1.337;    0.000;1400.56748
 702.12; 1370.220;   -0.553;    0.000;1370.77247
 702.38; 1364.270;    0.720;    0.000;1363.55002
 702.65; 1342.210;    2.704;    0.000;1339.50621
 702.91; 1344.760;    3.130;    0.000;1341.63001
 703.18; 1297.510;    0.159;    0.000;1297.35126
 703.44; 1288.800;    2.589;    0.000;1286.21130
 703.71; 1274.240;    0.451;    0.000;1273.78874
 703.97; 1244.680;    1.933;    0.000;1242.74755
 704.24; 1223.630;    2.733;    0.000;1220.89750
 704.50; 1209.160;   -1.066;    0.000;1210.22628
 704.76; 1178.810;    0.973;    0.000;1177.83756
 705.03; 1182.840;    3.154;    0.000;1179.68622
 705.29; 1166.670;   -1.855;    0.000;1168.52504
 705.56; 1149.840;    0.824;    0.000;1149.01622
 705.82; 1113.770;    1.599;    0.000;1112.17127
 706.09; 1130.280;    3.196;    0.000;1127.08378
 706.35; 1084.530;   -0.994;    0.000;1085.52378
 706.62; 1081.530;    3.101;    0.000;1078.42878
 706.88; 1051.650;    0.259;    0.000;1051.39127
 707.15; 1039.110;    2.235;    0.000;1036.87499
 707.41; 1009.540;    1.023;    0.000;1008.51748
 707.67; 1001.580;    2.314;    0.000;999.26627
 707.94;  993.870;    0.341;    0.000;993.52875
 708.20;  966.060;    2.445;    0.000;963.61500
 708.47;  945.580;    0.235;    0.000;945.34502
 708.73;  942.350;    1.543;    0.000;940.80748
 709.00;  932.000;    1.543;    0.000;930.45750
 709.26;  925.920;    3.355;    0.000;922.56498
 709.52;  913.080;    1.150;    0.000;911.93002
 709.79;  891.580;    2.364;    0.000;889.21627
 710.05;  865.430;    1.482;    0.000;863.94749
 710.32;  864.970;    2.600;    0.000;862.36997
 710.58;  850.990;   -0.961;    0.000;851.95124
 710.84;  841.060;    3.686;    0.000;837.37375
 711.11;  832.630;    0.292;    0.000;832.33750
 711.37;  820.940;    3.571;    0.000;817.36875
 711.64;  806.850;    1.284;    0.000;805.56623
 711.90;  797.800;    3.639;    0.000;794.16124
 712.16;  793.490;    3.284;    0.000;790.20624
 712.43;  782.290;    1.572;    0.000;780.71748
 712.69;  767.670;    3.364;    0.000;764.30623
 712.96;  753.610;    2.591;    0.000;751.01874
 713.22;  749.170;    1.612;    0.000;747.55748
 713.48;  725.940;    0.123;    0.000;725.81750
 713.75;  731.760;   -1.460;    0.000;733.22001
 714.01;  719.210;    5.713;    0.000;713.49752
 714.27;  697.740;    1.730;    0.000;696.00999
 714.54;  722.670;    2.946;    0.000;719.72373
 714.80;  701.300;    1.184;    0.000;700.11624
 715.06;  699.230;    2.250;    0.000;696.97998
 715.33;  673.010;    1.124;    0.000;671.88626
 715.59;  684.350;    1.466;    0.000;682.88373
 715.86;  661.050;    3.069;    0.000;657.98124
 716.12;  666.620;    1.867;    0.000;664.75250
 716.38;  654.370;    2.986;    0.000;651.38375
 716.65;  641.360;    3.819;    0.000;637.54124
 716.91;  634.300;    0.629;    0.000;633.67124
 717.17;  643.120;    3.425;    0.000;639.69500
 717.44;  632.390;    2.554;    0.000;629.83626
 717.70;  636.440;    3.246;    0.000;633.19375
 717.96;  626.570;    0.561;    0.000;626.00876
 718.23;  627.410;   -0.406;    0.000;627.81622
 718.49;  620.290;    1.106;    0.000;619.18373
 718.75;  609.710;    4.903;    0.000;604.80752
 719.02;  610.020;    0.034;    0.000;609.98627
 719.28;  621.220;    0.564;    0.000;620.65622
 719.54;  597.630;    0.788;    0.000;596.84250
 719.80;  604.350;    2.293;    0.000;602.05748
 720.07;  594.500;   -0.094;    0.000;594.59375
 720.33;  598.120;    1.286;    0.000;596.83375
 720.59;  595.530;    1.628;    0.000;593.90253
 720.86;  590.820;   -1.405;    0.000;592.22501
 721.12;  583.740;    1.731;    0.000;582.00874
 721.38;  592.500;    4.088;    0.000;588.41250
 721.65;  592.400;   -0.108;    0.000;592.50752
 721.91;  600.420;   -0.026;    0.000;600.44623
 722.17;  565.160;   -0.304;    0.000;565.46372
 722.43;  571.340;    3.338;    0.000;568.00253
 722.70;  560.320;    0.495;    0.000;559.82501
 722.96;  587.420;    4.814;    0.000;582.60623
 723.22;  567.570;    2.186;    0.000;565.38376
 723.48;  578.070;    3.430;    0.000;574.64001
 723.75;  558.930;    2.215;    0.000;556.71499
 724.01;  570.470;    1.500;    0.000;568.96997
 724.27;  566.050;   -0.826;    0.000;566.87624
 724.54;  566.990;    2.814;    0.000;564.17624
 724.80;  559.010;   -1.109;    0.000;560.11876
 725.06;  561.760;    3.160;    0.000;558.60001
 725.32;  564.560;    2.344;    0.000;562.21625
 725.59;  552.360;    1.226;    0.000;551.13374
 725.85;  542.760;    2.034;    0.000;540.72626
 726.11;  563.620;    2.994;    0.000;560.62625
 726.37;  542.700;    3.204;    0.000;539.49626
 726.64;  555.230;    2.474;    0.000;552.75623
 726.90;  543.880;    3.596;    0.000;540.28375
 727.16;  552.020;    0.375;    0.000;551.64502
 727.42;  547.640;    0.449;    0.000;547.19126
 727.68;  554.970;    0.172;    0.000;554.79747
 727.95;  528.120;    2.132;    0.000;525.98750
 728.21;  559.970;    3.517;    0.000;556.45247
 728.47;  536.680;   -0.545;    0.000;537.22499
 728.73;  545.650;    3.100;    0.000;542.55002
 729.00;  527.550;    0.755;    0.000;526.79499
 729.26;  532.880;    0.587;    0.000;532.29250
 729.52;  529.750;   -0.405;    0.000;530.15500
 729.78;  525.130;   -2.089;    0.000;527.21875
 730.04;  527.380;    4.343;    0.000;523.03750
 730.31;  527.350;    3.566;    0.000;523.78373
 730.57;  508.560;    4.318;    0.000;504.24250
 730.83;  529.000;    2.994;    0.000;526.00625
 731.09;  517.410;   -0.604;    0.000;518.01372
 731.35;  524.820;    2.505;    0.000;522.31501
 731.62;  496.720;    0.100;    0.000;496.62000
 731.88;  504.690;    1.690;    0.000;503.00000
 732.14;  502.080;   -1.254;    0.000;503.33374
 732.40;  511.000;    3.940;    0.000;507.06000
 732.66;  502.700;    1.069;    0.000;501.63126
 732.92;  484.930;    2.316;    0.000;482.61374
 733.19;  485.710;    1.539;    0.000;484.17124
 733.45;  489.920;    5.839;    0.000;484.08126
 733.71;  482.320;    1.001;    0.000;481.31876
 733.97;  515.900;    3.849;    0.000;512.05127
 734.23;  481.610;   -2.451;    0.000;484.06124
 734.49;  481.180;    3.328;    0.000;477.85249
 734.76;  476.100;    1.984;    0.000;474.11626
 735.02;  474.270;    1.000;    0.000;473.26999
 735.28;  464.080;    1.494;    0.000;462.58624
 735.54;  473.650;    2.599;    0.000;471.05124
 735.80;  448.440;    3.059;    0.000;445.38125
 736.06;  464.150;    1.774;    0.000;462.37624
 736.32;  440.730;   -0.745;    0.000;441.47501
 736.59;  452.490;    1.776;    0.000;450.71374
 736.85;  443.540;    2.046;    0.000;441.49376
 737.11;  446.730;    1.040;    0.000;445.69001
 737.37;  434.620;   -0.538;    0.000;435.15750
 737.63;  433.390;    2.409;    0.000;430.98126
 737.89;  434.220;   -0.147;    0.000;434.36750
 738.15;  431.990;    2.342;    0.000;429.64749
 738.41;  419.290;   -1.143;    0.000;420.43251
 738.67;  423.720;    0.023;    0.000;423.69750
 738.94;  412.990;   -1.278;    0.000;414.26749
 739.20;  415.510;   -0.135;    0.000;415.64501
 739.46;  427.330;    1.821;    0.000;425.50874
 739.72;  401.240;    2.342;    0.000;398.89749
 739.98;  398.830;   -0.039;    0.000;398.86874
 740.24;  403.690;    1.996;    0.000;401.69375
 740.50;  390.160;    2.144;    0.000;388.01625
 740.76;  393.790;    4.496;    0.000;389.29376
 741.02;  371.540;    2.037;    0.000;369.50251
 741.28;  394.880;    4.015;    0.000;390.86501
 741.54;  380.750;    2.483;    0.000;378.26750
 741.81;  381.200;    3.010;    0.000;378.19001
 742.07;  362.680;    1.163;    0.000;361.51749
 742.33;  385.560;    2.645;    0.000;382.91500
 742.59;  367.350;    1.821;    0.000;365.52876
 742.85;  363.110;    0.298;    0.000;362.81249
 743.11;  346.230;    1.705;    0.000;344.52501
 743.37;  344.580;    0.685;    0.000;343.89499
 743.63;  332.090;    4.071;    0.000;328.01875
 743.89;  357.980;    4.113;    0.000;353.86751
 744.15;  340.080;    0.405;    0.000;339.67499
 744.41;  347.310;   -1.540;    0.000;348.85000
 744.67;  315.840;    1.661;    0.000;314.17875
 744.93;  345.090;    0.085;    0.000;345.00500
 745.19;  323.650;    2.245;    0.000;321.40499
 745.45;  323.380;    0.485;    0.000;322.89500
 745.71;  309.340;    1.388;    0.000;307.95250
 745.97;  316.190;    1.060;    0.000;315.13000
 746.23;  305.940;    1.283;    0.000;304.65750
 746.49;  300.650;    3.820;    0.000;296.82999
 746.75;  297.390;    3.335;    0.000;294.05501
 747.02;  291.470;    1.569;    0.000;289.90125
 747.28;  278.660;   -0.540;    0.000;279.20000
 747.54;  295.930;    2.818;    0.000;293.11249
 747.80;  281.220;   -1.074;    0.000;282.29375
 748.06;  277.840;   -5.407;    0.000;283.24750
 748.32;  269.850;    3.335;    0.000;266.51501
 748.58;  278.140;    4.275;    0.000;273.86501
 748.84;  265.890;    1.499;    0.000;264.39126
 749.10;  341.980;    9.339;    0.000;332.64126
 749.36;  264.700;    2.190;    0.000;262.51001
 749.62;  254.840;    2.432;    0.000;252.40750
 749.88;  257.860;    1.871;    0.000;255.98874
 750.14;  247.850;    3.449;    0.000;244.40126
 750.40;  254.280;   -1.523;    0.000;255.80250
 750.66;  254.200;    5.100;    0.000;249.10000
 750.91;  241.100;    1.121;    0.000;239.97876
 751.17;  231.330;    4.999;    0.000;226.33125
 751.43;  229.990;   -1.806;    0.000;231.79626
 751.69;  240.230;    4.175;    0.000;236.05500
 751.95;  235.820;    1.244;    0.000;234.57626
 752.21;  232.240;    2.675;    0.000;229.56501
 752.47;  218.380;    1.139;    0.000;217.24125
 752.73;  218.760;    3.609;    0.000;215.15124
 752.99;  196.550;   -0.211;    0.000;196.76125
 753.25;  213.530;    2.358;    0.000;211.17250
 753.51;  206.390;    1.201;    0.000;205.18875
 753.77;  206.290;    1.548;    0.000;204.74249
 754.03;  199.680;    0.859;    0.000;198.82124
 754.29;  203.430;    1.796;    0.000;201.63374
 754.55;  187.350;    3.635;    0.000;183.71501
 754.81;  190.820;    2.146;    0.000;188.67376
 755.07;  188.480;    0.389;    0.000;188.09125
 755.33;  194.060;    2.674;    0.000;191.38625
 755.59;  171.600;    1.291;    0.000;170.30876
 755.85;  186.500;    1.286;    0.000;185.21375
 756.10;  185.520;    2.474;    0.000;183.04625
 756.36;  176.390;    1.336;    0.000;175.05375
 756.62;  162.090;    1.236;    0.000;160.85375
 756.88;  187.640;    1.444;    0.000;186.19625
 757.14;  175.750;    1.900;    0.000;173.85000
 757.40;  172.180;    3.004;    0.000;169.17624
 757.66;  166.510;    2.839;    0.000;163.67124
 757.92;  161.100;    2.434;    0.000;158.66626
 758.18;  155.230;    1.880;    0.000;153.35000
 758.44;  158.550;    1.215;    0.000;157.33500
 758.70;  156.450;    1.508;    0.000;154.94250
 758.95;  151.520;   -0.256;    0.000;151.77625
 759.21;  146.490;    0.169;    0.000;146.32126
 759.47;  156.610;    4.939;    0.000;151.67125
 759.73;  136.810;    0.292;    0.000;136.51750
 759.99;  146.070;    3.420;    0.000;142.65001
 760.25;  140.360;    0.416;    0.000;139.94375
 760.51;  154.730;   -0.933;    0.000;155.66250
 760.77;  140.470;    3.746;    0.000;136.72375
 761.02;  146.180;    3.771;    0.000;142.40874
 761.28;  126.160;    1.756;    0.000;124.40375
 761.54;  140.410;    3.152;    0.000;137.25750
 761.80;  121.520;    2.394;    0.000;119.12625
 762.06;  136.420;    2.415;    0.000;134.00500
 762.32;  115.370;   -0.226;    0.000;115.59625
 762.58;  126.870;    0.177;    0.000;126.69250
 762.83;  131.120;    2.280;    0.000;128.84000
 763.09;  124.860;    4.425;    0.000;120.43500
 763.35;  115.050;    2.086;    0.000;112.96375
 763.61;  135.900;    3.421;    0.000;132.47874
 763.87;  126.390;    2.898;    0.000;123.49250
 764.13;  122.990;    2.771;    0.000;120.21875
 764.38;  115.050;    0.603;    0.000;114.44750
 764.64;  117.640;    0.809;    0.000;116.83125
 764.90;  112.300;    2.140;    0.000;110.16000
 765.16;  128.510;    2.909;    0.000;125.60124
 765.42;  110.510;    1.378;    0.000;109.13250
 765.68;  111.490;    1.506;    0.000;109.98375
 765.93;  104.770;    0.826;    0.000;103.94375
 766.19;  121.950;    1.595;    0.000;120.35500
 766.45;   93.980;    3.033;    0.000;90.94750
 766.71;  109.990;    1.970;    0.000;108.02000
 766.97;   94.150;    1.930;    0.000;92.22000
 767.22;  101.750;    0.001;    0.000;101.74875
 767.48;   98.480;    2.169;    0.000;96.31125
 767.74;   92.910;    3.239;    0.000;89.67125
 768.00;   94.460;    0.127;    0.000;94.33250
 768.26;   98.820;    2.041;    0.000;96.77875
 768.51;   86.980;    1.921;    0.000;85.05875
 768.77;  109.000;    2.866;    0.000;106.13375
 769.03;   82.640;    1.215;    0.000;81.42500
 769.29;   93.530;    3.609;    0.000;89.92125
 769.54;   79.270;   -1.861;    0.000;81.13125
 769.80;   95.450;    1.023;    0.000;94.42750
 770.06;   75.050;   -2.848;    0.000;77.89750
 770.32;   93.380;    3.336;    0.000;90.04375
 770.57;   78.910;    3.290;    0.000;75.62000
 770.83;   87.270;    2.001;    0.000;85.26875
 771.09;   76.290;    0.305;    0.000;75.98500
 771.35;   82.780;   -0.986;    0.000;83.76625
 771.61;   81.520;    3.224;    0.000;78.29625
 771.86;   81.490;    2.035;    0.000;79.45500
 772.12;   76.750;    2.678;    0.000;74.07250
 772.38;   79.530;    2.819;    0.000;76.71125
 772.63;   75.220;    2.169;    0.000;73.05125
 772.89;   78.660;    1.089;    0.000;77.57125
 773.15;   73.310;    3.095;    0.000;70.21500
 773.41;   79.890;    2.499;    0.000;77.39125
 773.66;   69.170;    2.453;    0.000;66.71750
 773.92;   78.410;    2.392;    0.000;76.01750
 774.18;   74.770;    0.616;    0.000;74.15375
 774.44;   68.230;    2.901;    0.000;65.32875
 774.69;   69.960;    2.365;    0.000;67.59500
 774.95;   69.440;    1.592;    0.000;67.84750
 775.21;   68.970;    3.401;    0.000;65.56875
 775.46;   51.680;    2.118;    0.000;49.56250
 775.72;   60.940;   -0.757;    0.000;61.69750
 775.98;   75.700;    2.870;    0.000;72.83000
 776.24;   53.300;    0.654;    0.000;52.64625
 776.49;   72.450;    0.461;    0.000;71.98875
 776.75;   51.130;   -0.097;    0.000;51.22750
 777.01;   53.540;    2.346;    0.000;51.19375
 777.26;   77.270;   -0.501;    0.000;77.77125
 777.52;   62.610;    3.513;    0.000;59.09750
 777.78;   58.970;    2.825;    0.000;56.14500
 778.03;   62.760;    4.813;    0.000;57.94750
 778.29;   54.190;   -1.135;    0.000;55.32500
 778.55;   67.900;    4.461;    0.000;63.43875
 778.80;   53.640;    4.707;    0.000;48.93250
 779.06;   49.840;    1.582;    0.000;48.25750
 779.32;   40.150;   -1.487;    0.000;41.63750
 779.57;   57.690;    5.735;    0.000;51.95500
 779.83;   47.900;    0.904;    0.000;46.99625
 780.09;   55.990;    4.139;    0.000;51.85125
 780.34;   47.930;    2.516;    0.000;45.41375
 780.60;   61.220;    5.276;    0.000;55.94375
 780.86;   48.400;    1.526;    0.000;46.87375
 781.11;   55.830;    2.318;    0.000;53.51250
 781.37;   39.780;    0.714;    0.000;39.06625
 781.63;   57.380;    0.601;    0.000;56.77875
 781.88;   29.220;    0.507;    0.000;28.71250
 782.14;   47.120;    2.296;    0.000;44.82375
 782.39;   38.130;    1.691;    0.000;36.43875
 782.65;   46.110;    0.065;    0.000;46.04500
 782.91;   47.160;    2.026;    0.000;45.13375
 783.16;   51.290;    1.395;    0.000;49.89500
 783.42;   26.230;    0.733;    0.000;25.49750
 783.67;   43.800;    2.081;    0.000;41.71875
 783.93;   33.480;    0.939;    0.000;32.54125
 784.19;   43.560;    1.356;    0.000;42.20375
 784.44;   49.920;    2.641;    0.000;47.27875
 784.70;   46.440;    3.922;    0.000;42.51750
 784.96;   24.110;   -0.010;    0.000;24.12000
 785.21;   29.680;    0.863;    0.000;28.81750
 785.47;   40.280;    1.643;    0.000;38.63750
 785.72;   22.850;    0.114;    0.000;22.73625
 785.98;   29.600;   -0.705;    0.000;30.30500
 786.23;   28.390;    1.793;    0.000;26.59750
 786.49;   24.110;    0.989;    0.000;23.12125
 786.75;   29.070;    3.019;    0.000;26.05125
 787.00;   24.880;    0.529;    0.000;24.35125
 787.26;   20.930;    1.590;    0.000;19.34000
 787.51;   33.670;    0.141;    0.000;33.52875
 787.77;   46.210;    1.200;    0.000;45.01000
 788.02;   27.130;    1.789;    0.000;25.34125
 788.28;   25.700;    0.800;    0.000;24.90000
 788.54;   25.760;   -0.199;    0.000;25.95875
 788.79;   30.890;    0.516;    0.000;30.37375
 789.05;   13.420;    3.386;    0.000;10.03375
 789.30;   21.590;    5.298;    0.000;16.29250
 789.56;    9.610;    1.327;    0.000; 8.28250
 789.81;   20.240;    2.234;    0.000;18.00625
 790.07;    4.240;   -0.301;    0.000; 4.54125
 790.32;   29.650;    1.149;    0.000;28.50125
 790.58;   15.250;    1.655;    0.000;13.59500
 790.83;   12.090;    5.036;    0.000; 7.05375
 791.09;    8.920;    0.239;    0.000; 8.68125
 791.35;   13.270;    0.884;    0.000;12.38625
 791.60;    6.260;    1.294;    0.000; 4.96625
 791.86;   12.480;    3.580;    0.000; 8.90000
 792.11;    8.860;    0.661;    0.000; 8.19875
 792.37;   14.600;    2.549;    0.000;12.05125
 792.62;   18.135;    2.610;    0.000;15.52500
 792.88;   21.670;    2.671;    0.000;18.99875
 793.13;   13.960;    1.554;    0.000;12.40625
 793.39;   15.480;    2.964;    0.000;12.51625
 793.64;    5.060;    1.725;    0.000; 3.33500
 793.90;   15.320;    0.824;    0.000;14.49625
 794.15;    5.710;    4.068;    0.000; 1.64250
 794.41;   10.810;    2.352;    0.000; 8.45750
 794.66;   12.020;    1.508;    0.000;10.51250
 794.92;   12.800;    4.101;    0.000; 8.69875
 795.17;    0.140;   -0.748;    0.000; 0.88750
 795.43;    3.450;    2.310;    0.000; 1.14000
 795.68;   -0.290;    1.050;    0.000;-1.34000
 795.94;   12.850;    2.206;    0.000;10.64375
 796.19;    4.690;    2.890;    0.000; 1.80000
 796.44;    5.400;    2.810;    0.000; 2.59000
 796.70;    0.030;   -0.166;    0.000; 0.19625
 796.95;   11.950;    4.159;    0.000; 7.79125
 797.21;   -4.410;    0.479;    0.000;-4.88875
 797.46;   -3.650;   -2.271;    0.000;-1.37875
 797.72;   -7.590;   -0.439;    0.000;-7.15125
 797.97;    0.730;    0.895;    0.000;-0.16500
 798.23;   -9.130;    5.259;    0.000;-14.38875
 798.48;    3.480;    0.045;    0.000; 3.43500
 798.74;   -0.760;    0.639;    0.000;-1.39875
 798.99;    2.240;    2.686;    0.000;-0.44625
 799.24;   -3.450;    3.122;    0.000;-6.57250
 799.50;    5.790;    1.000;    0.000; 4.79000
 799.75;   -1.310;   -0.770;    0.000;-0.54000
 800.01;    2.460;   -0.245;    0.000; 2.70500
 800.26;  -13.460;   -0.215;    0.000;-13.24500
 800.52;   -4.140;    2.511;    0.000;-6.65125
 800.77;  -15.610;    2.716;    0.000;-18.32625
 801.02;   -9.800;    1.580;    0.000;-11.38000
 801.28;  -13.750;   -0.673;    0.000;-13.07750
 801.53;   -1.780;    0.356;    0.000;-2.13625
 801.79;   -7.280;    3.321;    0.000;-10.60125
 802.04;   -4.840;    1.775;    0.000;-6.61500
 802.29;   -4.740;    1.541;    0.000;-6.28125
 802.55;  -10.070;   -0.161;    0.000;-9.90875
 802.80;  -13.250;    1.750;    0.000;-15.00000
 803.06;   -5.290;    1.202;    0.000;-6.49250
 803.31;  -11.360;    2.051;    0.000;-13.41125
 803.56;   -3.930;    1.589;    0.000;-5.51875
 803.82;  -14.040;    1.819;    0.000;-15.85875
 804.07;    0.060;    1.121;    0.000;-1.06125
 804.32;  -14.470;    2.470;    0.000;-16.94000
 804.58;   -9.600;    0.745;    0.000;-10.34500
 804.83;  -19.790;    2.861;    0.000;-22.65125
 805.09;   -7.820;    2.116;    0.000;-9.93625
 805.34;  -18.770;    2.130;    0.000;-20.90000
 805.59;   -2.080;    1.832;    0.000;-3.91250
 805.85;  -16.690;    2.691;    0.000;-19.38125
 806.10;  -10.380;    4.224;    0.000;-14.60375
 806.35;   -6.270;    1.335;    0.000;-7.60500
 806.61;   -9.030;    3.255;    0.000;-12.28500
 806.86;  -14.550;    2.753;    0.000;-17.30250
 807.11;   -7.060;    2.922;    0.000;-9.98250
 807.37;   -6.640;    2.905;    0.000;-9.54500
 807.62;  -15.640;    1.607;    0.000;-17.24750
 807.87;  -19.220;    6.104;    0.000;-25.32375
 808.13;  -12.740;    0.795;    0.000;-13.53500
 808.38;  -13.770;   -0.554;    0.000;-13.21625
 808.63;   -8.380;    4.699;    0.000;-13.07875
 808.89;  -26.310;   -1.511;    0.000;-24.79875
 809.14;  -21.470;    1.401;    0.000;-22.87125
 809.39;  -30.330;   -2.053;    0.000;-28.27750
 809.65;  -25.650;    1.450;    0.000;-27.10000
 809.90;  -18.840;    3.850;    0.000;-22.69000
 810.15;  -17.750;    2.366;    0.000;-20.11625
 810.41;  -23.410;    0.111;    0.000;-23.52125
 810.66;  -18.320;    1.721;    0.000;-20.04125
 810.91;  -29.710;    0.284;    0.000;-29.99375
 811.16;  -19.960;    3.254;    0.000;-23.21375
 811.42;  -16.590;    1.806;    0.000;-18.39625
 811.67;  -20.260;    5.146;    0.000;-25.40625
 811.92;  -22.910;    1.339;    0.000;-24.24875
 812.18;  -17.110;    3.764;    0.000;-20.87375
 812.43;  -33.770;    0.262;    0.000;-34.03250
 812.68;  -21.100;   -0.415;    0.000;-20.68500
 812.93;  -23.090;   -0.444;    0.000;-22.64625
 813.19;  -14.120;    3.415;    0.000;-17.53500
 813.44;  -24.480;   -0.468;    0.000;-24.01250
 813.69;  -11.870;    3.735;    0.000;-15.60500
 813.95;  -20.730;    0.120;    0.000;-20.85000
 814.20;  -19.290;    1.482;    0.000;-20.77250
 814.45;  -33.210;    1.362;    0.000;-34.57250
 814.70;  -17.470;    2.450;    0.000;-19.92000
 814.96;  -30.570;    1.610;    0.000;-32.18000
 815.21;  -24.390;    0.421;    0.000;-24.81125
 815.46;  -31.950;    3.360;    0.000;-35.31000
 815.71;  -17.350;    1.746;    0.000;-19.09625
 815.96;  -26.120;    1.210;    0.000;-27.33000
 816.22;  -24.930;    3.869;    0.000;-28.79875
 816.47;  -33.400;    1.704;    0.000;-35.10375
 816.72;  -24.980;    2.375;    0.000;-27.35500
 816.97;  -29.690;    0.006;    0.000;-29.69625
 817.23;  -19.680;    2.188;    0.000;-21.86750
 817.48;  -31.850;    0.579;    0.000;-32.42875
 817.73;  -23.730;    1.298;    0.000;-25.02750
 817.98;  -14.750;    4.060;    0.000;-18.81000
 818.23;  -19.700;    2.849;    0.000;-22.54875
 818.49;  -22.500;    2.114;    0.000;-24.61375
 818.74;  -14.460;    3.495;    0.000;-17.95500
 818.99;  -27.880;    3.039;    0.000;-30.91875
 819.24;  -14.670;    4.864;    0.000;-19.53375
 819.50;  -39.470;   -0.814;    0.000;-38.65625
 819.75;  -19.320;    1.827;    0.000;-21.14750
 820.00;  -13.420;    2.721;    0.000;-16.14125
 820.25;  -23.130;    2.957;    0.000;-26.08750
 820.50;  -33.800;    0.806;    0.000;-34.60625
 820.75;  -25.930;    2.321;    0.000;-28.25125
 821.01;  -29.700;   -0.526;    0.000;-29.17375
 821.26;  -30.190;    2.589;    0.000;-32.77875
 821.51;  -26.410;    1.920;    0.000;-28.33000
 821.76;  -27.830;    2.214;    0.000;-30.04375
 822.01;  -33.050;    2.021;    0.000;-35.07125
 822.26;  -28.650;    2.135;    0.000;-30.78500
 822.52;  -24.200;    0.341;    0.000;-24.54125
 822.77;  -27.870;    2.754;    0.000;-30.62375
 823.02;  -32.630;    3.078;    0.000;-35.70750
 823.27;  -26.050;    2.414;    0.000;-28.46375
 823.52;  -33.970;   -1.496;    0.000;-32.47375
 823.77;  -32.720;    2.965;    0.000;-35.68500
 824.03;  -23.690;   -1.638;    0.000;-22.05250
 824.28;  -40.140;    1.317;    0.000;-41.45750
 824.53;  -31.480;    1.336;    0.000;-32.81625
 824.78;  -22.800;    0.855;    0.000;-23.65500
 825.03;  -38.410;    2.570;    0.000;-40.98000
 825.28;  -31.690;    2.166;    0.000;-33.85625
 825.53;  -39.890;    2.836;    0.000;-42.72625
 825.78;  -32.230;    2.856;    0.000;-35.08625
 826.04;  -41.420;   -0.415;    0.000;-41.00500
 826.29;  -25.280;    0.965;    0.000;-26.24500
 826.54;  -36.350;    0.800;    0.000;-37.15000
 826.79;  -24.680;    0.228;    0.000;-24.90750
 827.04;  -42.640;    2.715;    0.000;-45.35500
 827.29;  -31.460;    2.820;    0.000;-34.28000
 827.54;  -35.820;    1.196;    0.000;-37.01625
 827.79;  -33.930;    0.577;    0.000;-34.50750
 828.04;  -37.230;    1.154;    0.000;-38.38375
 828.29;  -28.630;    2.582;    0.000;-31.21250
 828.55;  -44.760;    0.469;    0.000;-45.22875
 828.80;  -29.940;    3.072;    0.000;-33.01250
 829.05;  -38.740;    0.731;    0.000;-39.47125
 829.30;  -43.700;    2.580;    0.000;-46.28000
 829.55;  -38.160;    0.910;    0.000;-39.07000
 829.80;  -32.840;    4.061;    0.000;-36.90125
 830.05;  -40.520;   -0.123;    0.000;-40.39750
 830.30;  -36.460;    2.500;    0.000;-38.96000
 830.55;  -40.170;    1.209;    0.000;-41.37875
 830.80;  -37.960;    0.980;    0.000;-38.94000
 831.05;  -48.130;    1.500;    0.000;-49.63000
 831.30;  -30.590;    2.391;    0.000;-32.98125
 831.55;  -32.150;    2.223;    0.000;-34.37250
 831.80;  -35.080;    2.836;    0.000;-37.91625
 832.05;  -35.560;    1.240;    0.000;-36.80000
 832.30;  -21.650;    2.408;    0.000;-24.05750
 832.56;  -50.820;    2.081;    0.000;-52.90125
 832.81;  -42.400;    1.378;    0.000;-43.77750
 833.06;  -36.660;    4.117;    0.000;-40.77750
 833.31;  -44.780;    2.487;    0.000;-47.26750
 833.56;  -37.870;    0.243;    0.000;-38.11250
 833.81;  -32.060;    2.466;    0.000;-34.52625
 834.06;  -36.470;    1.622;    0.000;-38.09250
 834.31;  -33.720;    3.581;    0.000;-37.30125
 834.56;  -33.870;    4.500;    0.000;-38.37000
 834.81;  -46.130;    1.409;    0.000;-47.53875
 835.06;  -45.020;    0.406;    0.000;-45.42625
 835.31;  -36.110;    3.463;    0.000;-39.57250
 835.56;  -43.600;   -0.016;    0.000;-43.58375
 835.81;  -32.270;    2.260;    0.000;-34.53000
 836.06;  -27.050;    1.614;    0.000;-28.66375
 836.31;  -44.790;    2.148;    0.000;-46.93750
 836.56;  -45.330;    3.629;    0.000;-48.95875
 836.81;  -38.590;    2.047;    0.000;-40.63750
 837.06;  -36.370;    0.816;    0.000;-37.18625
 837.31;  -38.820;    1.456;    0.000;-40.27625
 837.56;  -49.510;    1.783;    0.000;-51.29250
 837.81;  -37.990;    2.975;    0.000;-40.96500
 838.06;  -38.740;    4.039;    0.000;-42.77875
 838.31;  -48.670;    0.147;    0.000;-48.81750
 838.56;  -56.610;    1.841;    0.000;-58.45125
 838.80;  -39.630;    2.314;    0.000;-41.94375
 839.05;  -46.310;    1.386;    0.000;-47.69625
 839.30;  -50.670;    0.001;    0.000;-50.67125
 839.55;  -51.690;    0.301;    0.000;-51.99125
 839.80;  -42.880;    3.539;    0.000;-46.41875
 840.05;  -49.410;    1.010;    0.000;-50.42000
 840.30;  -28.850;    4.226;    0.000;-33.07625
 840.55;  -47.740;    1.514;    0.000;-49.25375
 840.80;  -40.510;    4.875;    0.000;-45.38500
 841.05;  -45.310;    0.784;    0.000;-46.09375
 841.30;  -34.680;    3.494;    0.000;-38.17375
 841.55;  -48.800;   -0.995;    0.000;-47.80500
 841.80;  -46.760;    1.559;    0.000;-48.31875
 842.05;  -64.520;   -1.285;    0.000;-63.23500
 842.30;  -37.770;    2.414;    0.000;-40.18375
 842.55;  -45.140;    1.058;    0.000;-46.19750
 842.79;  -52.080;    1.925;    0.000;-54.00500
 843.04;  -33.860;    0.854;    0.000;-34.71375
 843.29;  -45.890;    2.419;    0.000;-48.30875
 843.54;  -38.800;    4.284;    0.000;-43.08375
 843.79;  -45.530;    1.813;    0.000;-47.34250
 844.04;  -49.940;    4.705;    0.000;-54.64500
 844.29;  -53.080;    2.770;    0.000;-55.85000
 844.54;  -48.160;    1.173;    0.000;-49.33250
 844.79;  -43.710;    3.172;    0.000;-46.88250
 845.04;  -39.060;   -1.031;    0.000;-38.02875
 845.28;  -43.080;    3.310;    0.000;-46.39000
 845.53;  -41.360;    1.750;    0.000;-43.11000
 845.78;  -27.690;    1.957;    0.000;-29.64750
 846.03;  -43.320;    1.346;    0.000;-44.66625
 846.28;  -54.070;    2.110;    0.000;-56.18000
 846.53;  -38.040;    0.154;    0.000;-38.19375
 846.78;  -40.330;    4.660;    0.000;-44.99000
 847.02;  -36.490;    2.714;    0.000;-39.20375
 847.27;  -39.920;    1.837;    0.000;-41.75750
 847.52;  -53.060;    3.047;    0.000;-56.10750
 847.77;  -49.320;    3.314;    0.000;-52.63375
 848.02;  -51.320;   -0.440;    0.000;-50.88000
 848.27;  -43.350;    3.787;    0.000;-47.13750
 848.52;  -59.730;    2.264;    0.000;-61.99375
 848.76;  -42.060;    0.844;    0.000;-42.90375
 849.01;  -47.800;    2.570;    0.000;-50.37000
 849.26;  -48.040;    0.859;    0.000;-48.89875
 849.51;  -45.130;    3.328;    0.000;-48.45750
 849.76;  -46.450;    1.469;    0.000;-47.91875
 850.01;  -53.210;    0.701;    0.000;-53.91125
 850.25;  -48.660;    0.585;    0.000;-49.24500
 850.50;  -54.400;    0.848;    0.000;-55.24750
 850.75;  -47.590;    1.875;    0.000;-49.46500
 851.00;  -54.450;   -0.499;    0.000;-53.95125
 851.25;  -47.720;    3.796;    0.000;-51.51625
 851.49;  -55.500;    3.533;    0.000;-59.03250
 851.74;  -54.280;   -0.102;    0.000;-54.17750
 851.99;  -46.530;    2.578;    0.000;-49.10750
 852.24;  -50.640;    0.231;    0.000;-50.87125
 852.49;  -59.100;    0.465;    0.000;-59.56500
 852.73;  -50.550;    2.121;    0.000;-52.67125
 852.98;  -56.950;    0.601;    0.000;-57.55125
 853.23;  -50.400;    4.595;    0.000;-54.99500
 853.48;  -63.880;   -0.339;    0.000;-63.54125
 853.73;  -54.660;    1.725;    0.000;-56.38500
 853.97;  -62.370;    1.999;    0.000;-64.36875
 854.22;  -58.650;    2.446;    0.000;-61.09625
 854.47;  -60.290;    2.151;    0.000;-62.44125
 854.72;  -55.320;    1.765;    0.000;-57.08500
 854.96;  -56.690;    2.703;    0.000;-59.39250
 855.21;  -42.260;    1.244;    0.000;-43.50375
 855.46;  -46.990;    0.944;    0.000;-47.93375
 855.71;  -62.380;    0.262;    0.000;-62.64250
 855.95;  -52.170;    2.922;    0.000;-55.09250
 856.20;  -55.750;    2.591;    0.000;-58.34125
 856.45;  -61.550;    1.355;    0.000;-62.90500
 856.70;  -54.250;    4.641;    0.000;-58.89125
 856.94;  -58.990;    1.589;    0.000;-60.57875
 857.19;  -47.080;    2.404;    0.000;-49.48375
 857.44;  -58.690;    1.933;    0.000;-60.62250
 857.69;  -50.290;    5.104;    0.000;-55.39375
 857.93;  -62.320;    3.511;    0.000;-65.83125
 858.18;  -52.150;    1.986;    0.000;-54.13625
 858.43;  -56.650;   -0.159;    0.000;-56.49125
 858.67;  -45.410;    5.415;    0.000;-50.82500
 858.92;  -60.370;    1.999;    0.000;-62.36875
 859.17;  -37.920;    4.201;    0.000;-42.12125
 859.42;  -64.830;    0.545;    0.000;-65.37500
 859.66;  -54.880;    3.158;    0.000;-58.03750
 859.91;  -58.810;   -0.270;    0.000;-58.54000
 860.16;  -58.120;    1.684;    0.000;-59.80375
 860.40;  -54.840;    1.197;    0.000;-56.03750
 860.65;  -59.320;    1.515;    0.000;-60.83500
 860.90;  -65.690;   -0.985;    0.000;-64.70500
 861.14;  -44.720;    0.160;    0.000;-44.88000
 861.39;  -67.850;    0.465;    0.000;-68.31500
 861.64;  -49.370;    3.563;    0.000;-52.93250
 861.88;  -63.370;    3.859;    0.000;-67.22875
 862.13;  -55.030;    2.254;    0.000;-57.28375
 862.38;  -67.220;    0.489;    0.000;-67.70875
 862.62;  -53.240;    1.619;    0.000;-54.85875
 862.87;  -62.200;    0.080;    0.000;-62.28000
 863.12;  -58.770;    0.527;    0.000;-59.29750
 863.36;  -62.120;    3.011;    0.000;-65.13125
 863.61;  -54.390;    2.111;    0.000;-56.50125
 863.86;  -66.280;    0.804;    0.000;-67.08375
 864.10;  -61.580;    2.416;    0.000;-63.99625
 864.35;  -62.560;    1.164;    0.000;-63.72375
 864.60;  -61.620;    0.605;    0.000;-62.22500
 864.84;  -59.220;    1.896;    0.000;-61.11625
 865.09;  -57.560;    2.196;    0.000;-59.75625
 865.33;  -59.290;    3.348;    0.000;-62.63750
 865.58;  -46.880;    3.236;    0.000;-50.11625
 865.83;  -64.460;    2.321;    0.000;-66.78125
 866.07;  -58.440;    2.855;    0.000;-61.29500
 866.32;  -40.730;    2.915;    0.000;-43.64500
 866.57;  -57.550;   -1.800;    0.000;-55.75000
 866.81;  -59.010;    1.764;    0.000;-60.77375
 867.06;  -62.570;   -0.352;    0.000;-62.21750
 867.30;  -62.250;   -0.220;    0.000;-62.03000
 867.55;  -57.950;    1.786;    0.000;-59.73625
 867.80;  -52.770;    2.810;    0.000;-55.58000
 868.04;  -58.220;    4.080;    0.000;-62.30000
 868.29;  -68.930;    3.003;    0.000;-71.93250
 868.53;  -54.740;    3.311;    0.000;-58.05125
 868.78;  -70.500;   -0.996;    0.000;-69.50375
 869.03;  -50.240;    2.876;    0.000;-53.11625
 869.27;  -70.570;    2.398;    0.000;-72.96750
 869.52;  -52.510;    3.370;    0.000;-55.88000
 869.76;  -59.630;    2.531;    0.000;-62.16125
 870.01;  -51.610;    3.679;    0.000;-55.28875
 870.25;  -53.160;    3.981;    0.000;-57.14125
 870.50;  -60.890;    2.935;    0.000;-63.82500
 870.75;  -70.890;    0.636;    0.000;-71.52625
 870.99;  -53.110;    0.940;    0.000;-54.05000
 871.24;  -62.420;    0.904;    0.000;-63.32375
 871.48;  -48.160;    5.313;    0.000;-53.47250
 871.73;  -59.510;    2.930;    0.000;-62.44000
 871.97;  -56.480;    2.589;    0.000;-59.06875
 872.22;  -57.750;    3.342;    0.000;-61.09250
 872.46;  -58.490;    2.088;    0.000;-60.57750
 872.71;  -63.320;    0.244;    0.000;-63.56375
 872.95;  -53.730;    2.320;    0.000;-56.05000
 873.20;  -60.140;    2.894;    0.000;-63.03375
 873.44;  -47.580;    4.470;    0.000;-52.05000
 873.69;  -64.740;    2.315;    0.000;-67.05500
 873.94;  -48.080;    3.934;    0.000;-52.01375
 874.18;  -64.660;    1.847;    0.000;-66.50750
 874.43;  -57.000;    2.386;    0.000;-59.38625
 874.67;  -54.790;   -0.515;    0.000;-54.27500
 874.92;  -50.880;    1.961;    0.000;-52.84125
 875.16;  -61.030;    4.129;    0.000;-65.15875
 875.41;  -62.550;    0.016;    0.000;-62.56625
 875.65;  -64.050;   -0.228;    0.000;-63.82250
 875.90;  -52.670;    5.189;    0.000;-57.85875
 876.14;  -70.360;    2.056;    0.000;-72.41625
 876.39;  -58.020;    3.029;    0.000;-61.04875
 876.63;  -63.630;    2.815;    0.000;-66.44500
 876.88;  -57.220;    1.354;    0.000;-58.57375
 877.12;  -60.760;    1.954;    0.000;-62.71375
 877.36;  -56.230;    1.592;    0.000;-57.82250
 877.61;  -68.930;    1.324;    0.000;-70.25375
 877.85;  -52.330;    3.668;    0.000;-55.99750
 878.10;  -60.400;    1.811;    0.000;-62.21125
 878.34;  -46.350;    4.662;    0.000;-51.01250
 878.59;  -58.790;    3.560;    0.000;-62.35000
 878.83;  -62.330;    3.334;    0.000;-65.66375
 879.08;  -60.850;    4.274;    0.000;-65.12375
 879.32;  -56.850;    3.205;    0.000;-60.05500
 879.57;  -56.340;    3.221;    0.000;-59.56125
 879.81;  -60.770;    0.571;    0.000;-61.34125
 880.05;  -62.450;    2.775;    0.000;-65.22500
 880.30;  -49.690;    1.899;    0.000;-51.58875
 880.54;  -69.170;    2.659;    0.000;-71.82875
 880.79;  -60.310;    1.919;    0.000;-62.22875
 881.03;  -58.510;    1.780;    0.000;-60.29000
 881.28;  -34.610;    4.125;    0.000;-38.73500
 881.52;  -62.610;    4.539;    0.000;-67.14875
 881.76;  -58.560;    2.729;    0.000;-61.28875
 882.01;  -52.340;    1.770;    0.000;-54.11000
 882.25;  -60.470;    5.285;    0.000;-65.75500
 882.50;  -68.660;    1.586;    0.000;-70.24625
 882.74;  -47.530;    1.505;    0.000;-49.03500
 882.98;  -55.910;    2.839;    0.000;-58.74875
 883.23;  -61.600;    1.059;    0.000;-62.65875
 883.47;  -64.710;    4.950;    0.000;-69.66000
 883.72;  -52.650;    4.606;    0.000;-57.25625
 883.96;  -52.000;    4.194;    0.000;-56.19375
 884.20;  -57.560;    1.607;    0.000;-59.16750
 884.45;  -60.000;    3.172;    0.000;-63.17250
 884.69;  -42.250;    5.045;    0.000;-47.29500
 884.94;  -49.030;    3.589;    0.000;-52.61875
 885.18;  -59.950;    2.435;    0.000;-62.38500
 885.42;  -56.520;    2.079;    0.000;-58.59875
 885.67;  -45.340;    3.995;    0.000;-49.33500
 885.91;  -64.640;    1.904;    0.000;-66.54375
 886.15;  -51.490;    1.859;    0.000;-53.34875
 886.40;  -62.780;    1.438;    0.000;-64.21750
 886.64;  -57.630;    3.661;    0.000;-61.29125
 886.88;  -63.540;    2.609;    0.000;-66.14875
 887.13;  -46.080;    3.316;    0.000;-49.39625
 887.37;  -60.370;    2.561;    0.000;-62.93125
 887.62;  -44.330;    4.399;    0.000;-48.72875
 887.86;  -49.120;    3.491;    0.000;-52.61125
 888.10;  -47.420;    5.320;    0.000;-52.74000
 888.35;  -49.580;    4.015;    0.000;-53.59500
 888.59;  -55.050;    5.435;    0.000;-60.48500
 888.83;  -55.600;    3.104;    0.000;-58.70375
 889.07;  -49.950;    3.310;    0.000;-53.26000
 889.32;  -58.660;    5.429;    0.000;-64.08875
 889.56;  -50.620;    3.888;    0.000;-54.50750
 889.80;  -48.410;    2.438;    0.000;-50.84750
 890.05;  -49.620;    2.096;    0.000;-51.71625
 890.29;  -58.970;    3.392;    0.000;-62.36250
 890.53;  -46.600;    4.108;    0.000;-50.70750
 890.78;  -63.250;    3.010;    0.000;-66.26000
 891.02;  -45.960;    3.884;    0.000;-49.84375
 891.26;  -51.870;    4.090;    0.000;-55.96000
 891.51;  -36.140;    3.727;    0.000;-39.86750
 891.75;  -43.140;    1.636;    0.000;-44.77625
 891.99;  -57.920;    4.133;    0.000;-62.05250
 892.23;  -56.970;    1.094;    0.000;-58.06375
 892.48;  -41.950;    6.174;    0.000;-48.12375
 892.72;  -47.660;    4.309;    0.000;-51.96875
 892.96;  -39.340;    6.463;    0.000;-45.80250
 893.20;  -54.840;    3.534;    0.000;-58.37375
 893.45;  -51.020;    4.674;    0.000;-55.69375
 893.69;  -51.090;    4.350;    0.000;-55.44000
 893.93;  -41.280;    3.811;    0.000;-45.09125
 894.17;  -48.240;    3.632;    0.000;-51.87250
 894.42;  -35.860;    3.563;    0.000;-39.42250
 894.66;  -38.170;    3.575;    0.000;-41.74500
 894.90;  -33.150;    4.434;    0.000;-37.58375
 895.14;  -45.060;    5.156;    0.000;-50.21625
 895.39;  -43.330;    2.453;    0.000;-45.78250
 895.63;  -40.330;    3.581;    0.000;-43.91125
 895.87;  -38.540;    2.703;    0.000;-41.24250
 896.11;  -43.150;    3.902;    0.000;-47.05250
 896.36;  -29.260;    4.361;    0.000;-33.62125
 896.60;  -58.470;    4.684;    0.000;-63.15375
 896.84;  -19.500;    7.503;    0.000;-27.00250
 897.08;  -33.640;    7.704;    0.000;-41.34375
 897.32;  -27.980;    6.090;    0.000;-34.07000
 897.57;  -31.410;    5.235;    0.000;-36.64500
 897.81;  -33.820;    6.305;    0.000;-40.12500
 898.05;  -40.580;    6.220;    0.000;-46.80000
 898.29;  -28.900;    6.834;    0.000;-35.73375
 898.53;  -27.290;    5.426;    0.000;-32.71625
 898.78;  -24.350;    7.475;    0.000;-31.82500
 899.02;  -29.530;    5.856;    0.000;-35.38625
 899.26;   -9.410;    8.570;    0.000;-17.98000
 899.50;   -5.580;    7.455;    0.000;-13.03500
 899.74;  -12.640;    5.930;    0.000;-18.57000
 899.99;  -18.170;    9.002;    0.000;-27.17250
 900.23;   -0.980;    9.759;    0.000;-10.73875
 900.47;   -8.040;    9.193;    0.000;-17.23250
 900.71;    8.770;    9.520;    0.000;-0.75000
 900.95;   15.120;    9.591;    0.000; 5.52875
 901.19;   14.310;    9.936;    0.000; 4.37375
 901.44;   14.540;   11.654;    0.000; 2.88625
 901.68;   41.320;   11.363;    0.000;29.95750
 901.92;   37.670;   12.930;    0.000;24.74000
 902.16;   49.180;   12.275;    0.000;36.90500
 902.40;   55.740;   15.089;    0.000;40.65125
 902.64;   87.620;   18.999;    0.000;68.62125
 902.88;   99.970;   18.346;    0.000;81.62375
 903.13;  119.890;   19.689;    0.000;100.20125

