p4
Integration time [ms]:  20.000
Averaging Nr. [scans]: 50
Smoothing Nr. [pixels]: 0
Data measured with spectrometer [name]: 1307077U2
Wave   ;Sample   ;Dark     ;Reference;Scope Corrected for Dark
[nm]   ;[counts] ;[counts] ;[counts] 

 350.80;   11.460;   -3.950;    0.000;15.41000
 351.10;   18.520;    2.790;    0.000;15.73000
 351.39;    5.580;   -5.780;    0.000;11.36000
 351.69;   -4.600;   -6.710;    0.000; 2.11000
 351.99;    1.880;  -10.760;    0.000;12.64000
 352.28;   -8.080;  -11.870;    0.000; 3.79000
 352.58;    9.460;    2.640;    0.000; 6.82000
 352.88;   -9.180;   -3.560;    0.000;-5.62000
 353.17;   14.940;   -1.460;    0.000;16.40000
 353.47;    5.460;   -7.300;    0.000;12.76000
 353.76;    7.180;    3.730;    0.000; 3.45000
 354.06;   14.400;    1.480;    0.000;12.92000
 354.36;   13.000;    2.120;    0.000;10.88000
 354.65;   26.720;   12.260;    0.000;14.46000
 354.95;    7.140;    1.380;    0.000; 5.76000
 355.24;   -5.840;   -7.520;    0.000; 1.68000
 355.54;    2.920;   -6.140;    0.000; 9.06000
 355.84;    7.840;    1.010;    0.000; 6.83000
 356.13;   36.200;    1.060;    0.000;35.14000
 356.43;    3.920;   -3.280;    0.000; 7.20000
 356.72;    5.740;   -7.820;    0.000;13.56000
 357.02;   -3.060;    1.340;    0.000;-4.40000
 357.31;   24.560;    4.400;    0.000;20.16000
 357.61;   17.680;    0.390;    0.000;17.29000
 357.91;  -13.380;   -9.460;    0.000;-3.92000
 358.20;   15.080;   -6.210;    0.000;21.29000
 358.50;   -0.120;   -0.320;    0.000; 0.20000
 358.79;    6.320;   -0.240;    0.000; 6.56000
 359.09;   24.260;    4.600;    0.000;19.66000
 359.38;   -0.720;   -4.910;    0.000; 4.19000
 359.68;   -5.940;   -6.920;    0.000; 0.98000
 359.98;   18.180;   -3.210;    0.000;21.39000
 360.27;    4.680;   -5.880;    0.000;10.56000
 360.57;    2.280;   -6.850;    0.000; 9.13000
 360.86;    0.860;   -3.030;    0.000; 3.89000
 361.16;    3.880;  -10.940;    0.000;14.82000
 361.45;    2.620;   -3.610;    0.000; 6.23000
 361.75;   -8.140;   -6.330;    0.000;-1.81000
 362.04;   35.880;    7.330;    0.000;28.55000
 362.34;    6.120;   -8.080;    0.000;14.20000
 362.64;    1.640;   -4.150;    0.000; 5.79000
 362.93;    5.260;  -11.650;    0.000;16.91000
 363.23;   -2.620;   -3.380;    0.000; 0.76000
 363.52;   -1.720;   -7.930;    0.000; 6.21000
 363.82;   10.200;   -3.630;    0.000;13.83000
 364.11;    5.880;   -3.640;    0.000; 9.52000
 364.41;   -9.400;   -7.090;    0.000;-2.31000
 364.70;   -9.700;   -9.000;    0.000;-0.70000
 365.00;   17.920;    0.260;    0.000;17.66000
 365.29;   -2.000;   -7.370;    0.000; 5.37000
 365.59;   -1.820;   -3.180;    0.000; 1.36000
 365.88;    3.820;  -15.140;    0.000;18.96000
 366.18;    9.460;   -3.430;    0.000;12.89000
 366.47;  -11.060;   -8.280;    0.000;-2.78000
 366.77;    8.000;   -6.540;    0.000;14.54000
 367.06;   -0.680;   -3.040;    0.000; 2.36000
 367.36;   23.560;   -6.830;    0.000;30.39000
 367.65;    7.740;   -1.150;    0.000; 8.89000
 367.95;    7.380;   -6.850;    0.000;14.23000
 368.24;    3.540;   -4.930;    0.000; 8.47000
 368.54;  -10.560;  -13.980;    0.000; 3.42000
 368.83;   10.760;   -1.360;    0.000;12.12000
 369.13;   20.100;   -2.650;    0.000;22.75000
 369.42;    1.400;   -5.530;    0.000; 6.93000
 369.72;    8.580;   -9.410;    0.000;17.99000
 370.01;    7.940;   -1.870;    0.000; 9.81000
 370.31;   12.660;    2.490;    0.000;10.17000
 370.60;   31.800;   -0.490;    0.000;32.29000
 370.90;   14.680;   -4.910;    0.000;19.59000
 371.19;    0.640;   -8.640;    0.000; 9.28000
 371.49;   -6.840;  -15.270;    0.000; 8.43000
 371.78;    0.020;  -12.190;    0.000;12.21000
 372.08;    9.720;   -4.150;    0.000;13.87000
 372.37;    3.480;   -7.430;    0.000;10.91000
 372.67;    7.580;   -1.910;    0.000; 9.49000
 372.96;    2.620;   -4.090;    0.000; 6.71000
 373.26;    2.780;  -11.210;    0.000;13.99000
 373.55;    2.560;   -3.340;    0.000; 5.90000
 373.85;   -1.340;  -14.000;    0.000;12.66000
 374.14;   16.760;   -0.440;    0.000;17.20000
 374.43;   -3.420;   -4.860;    0.000; 1.44000
 374.73;   -4.920;   -5.870;    0.000; 0.95000
 375.02;   11.700;   -6.640;    0.000;18.34000
 375.32;   -5.080;   -8.860;    0.000; 3.78000
 375.61;    0.840;   -4.690;    0.000; 5.53000
 375.91;    2.060;   -6.400;    0.000; 8.46000
 376.20;   -7.740;   -8.800;    0.000; 1.06000
 376.50;    5.340;   -2.750;    0.000; 8.09000
 376.79;   -8.540;  -12.990;    0.000; 4.45000
 377.08;   -9.680;   -9.810;    0.000; 0.13000
 377.38;   -3.460;   -9.410;    0.000; 5.95000
 377.67;    0.640;  -15.820;    0.000;16.46000
 377.97;   11.080;  -12.430;    0.000;23.51000
 378.26;    4.800;   -3.550;    0.000; 8.35000
 378.56;   -7.120;  -11.760;    0.000; 4.64000
 378.85;    0.980;   -6.770;    0.000; 7.75000
 379.14;   -5.200;  -10.870;    0.000; 5.67000
 379.44;    5.120;   -7.950;    0.000;13.07000
 379.73;    5.980;  -12.070;    0.000;18.05000
 380.03;   -6.560;  -10.640;    0.000; 4.08000
 380.32;    6.560;  -10.740;    0.000;17.30000
 380.62;    2.200;  -11.160;    0.000;13.36000
 380.91;    9.460;   -2.790;    0.000;12.25000
 381.20;    3.160;   -6.380;    0.000; 9.54000
 381.50;    0.220;   -6.110;    0.000; 6.33000
 381.79;   -8.200;   -7.870;    0.000;-0.33000
 382.09;    4.680;   -7.030;    0.000;11.71000
 382.38;    1.780;  -10.330;    0.000;12.11000
 382.67;   -2.420;  -10.730;    0.000; 8.31000
 382.97;   -4.400;   -5.370;    0.000; 0.97000
 383.26;   -1.880;   -3.260;    0.000; 1.38000
 383.56;   11.320;   -3.260;    0.000;14.58000
 383.85;   -0.960;  -12.650;    0.000;11.69000
 384.14;    8.960;    0.820;    0.000; 8.14000
 384.44;    0.520;   -6.530;    0.000; 7.05000
 384.73;    2.960;   -5.430;    0.000; 8.39000
 385.02;   10.680;   -6.450;    0.000;17.13000
 385.32;   12.720;   -4.570;    0.000;17.29000
 385.61;  -13.120;  -16.270;    0.000; 3.15000
 385.91;    5.020;   -9.440;    0.000;14.46000
 386.20;   -7.920;  -10.110;    0.000; 2.19000
 386.49;  -13.020;  -14.900;    0.000; 1.88000
 386.79;   15.320;   -7.340;    0.000;22.66000
 387.08;   -6.400;   -6.300;    0.000;-0.10000
 387.37;   -6.220;   -8.420;    0.000; 2.20000
 387.67;  -10.700;   -6.130;    0.000;-4.57000
 387.96;   -3.740;   -9.280;    0.000; 5.54000
 388.25;    4.720;   -1.410;    0.000; 6.13000
 388.55;  -18.240;  -10.080;    0.000;-8.16000
 388.84;   -5.100;  -12.690;    0.000; 7.59000
 389.14;   -5.500;  -11.090;    0.000; 5.59000
 389.43;    1.780;   -9.030;    0.000;10.81000
 389.72;   -7.100;  -13.300;    0.000; 6.20000
 390.02;   -7.520;   -9.420;    0.000; 1.90000
 390.31;    8.280;   -2.070;    0.000;10.35000
 390.60;    1.260;   -4.250;    0.000; 5.51000
 390.90;    0.280;  -15.000;    0.000;15.28000
 391.19;   -2.020;   -8.270;    0.000; 6.25000
 391.48;   -1.640;  -13.200;    0.000;11.56000
 391.78;   -6.460;   -9.570;    0.000; 3.11000
 392.07;   75.840;   16.810;    0.000;59.03000
 392.36;   13.520;   -1.800;    0.000;15.32000
 392.66;    2.200;  -11.850;    0.000;14.05000
 392.95;  -12.440;  -10.380;    0.000;-2.06000
 393.24;   -5.860;  -20.110;    0.000;14.25000
 393.53;    5.140;   -8.500;    0.000;13.64000
 393.83;  -13.440;  -10.870;    0.000;-2.57000
 394.12;    3.760;  -16.700;    0.000;20.46000
 394.41;   -1.660;  -13.050;    0.000;11.39000
 394.71;   -0.200;   -7.960;    0.000; 7.76000
 395.00;    1.180;  -12.500;    0.000;13.68000
 395.29;    5.820;   -8.400;    0.000;14.22000
 395.59;   -6.020;  -20.950;    0.000;14.93000
 395.88;  -10.880;  -16.060;    0.000; 5.18000
 396.17;  -11.760;   -8.460;    0.000;-3.30000
 396.46;   10.840;   -3.560;    0.000;14.40000
 396.76;   -6.300;  -13.050;    0.000; 6.75000
 397.05;   22.860;    2.180;    0.000;20.68000
 397.34;   -6.280;  -20.090;    0.000;13.81000
 397.64;  -11.840;   -9.050;    0.000;-2.79000
 397.93;  -12.460;  -18.420;    0.000; 5.96000
 398.22;  -12.440;  -12.920;    0.000; 0.48000
 398.51;   -4.500;   -9.770;    0.000; 5.27000
 398.81;   -7.860;  -12.510;    0.000; 4.65000
 399.10;   -5.660;   -2.690;    0.000;-2.97000
 399.39;   10.460;  -11.900;    0.000;22.36000
 399.69;    2.740;  -13.740;    0.000;16.48000
 399.98;    3.920;   -4.100;    0.000; 8.02000
 400.27;  -12.480;  -13.520;    0.000; 1.04000
 400.56;   -7.960;  -16.060;    0.000; 8.10000
 400.86;   -6.880;  -13.820;    0.000; 6.94000
 401.15;    9.140;   -4.180;    0.000;13.32000
 401.44;   -7.380;  -15.730;    0.000; 8.35000
 401.73;    6.700;   -2.540;    0.000; 9.24000
 402.03;   -1.740;  -10.300;    0.000; 8.56000
 402.32;    1.080;  -17.030;    0.000;18.11000
 402.61;   -6.300;   -9.950;    0.000; 3.65000
 402.90;  -13.320;  -11.420;    0.000;-1.90000
 403.20;   -2.220;   -6.220;    0.000; 4.00000
 403.49;    4.480;   -6.030;    0.000;10.51000
 403.78;    2.240;  -11.040;    0.000;13.28000
 404.07;  -14.600;  -18.650;    0.000; 4.05000
 404.37;    9.640;  -10.470;    0.000;20.11000
 404.66;   -0.580;  -14.960;    0.000;14.38000
 404.95;   -1.060;   -0.330;    0.000;-0.73000
 405.24;   -9.340;  -15.620;    0.000; 6.28000
 405.53;   -4.020;  -15.660;    0.000;11.64000
 405.83;   12.060;   -4.700;    0.000;16.76000
 406.12;   -7.600;  -10.900;    0.000; 3.30000
 406.41;   13.280;   -6.740;    0.000;20.02000
 406.70;  -14.580;  -12.650;    0.000;-1.93000
 407.00;    9.680;   -5.150;    0.000;14.83000
 407.29;    4.400;  -10.150;    0.000;14.55000
 407.58;  -14.080;  -15.850;    0.000; 1.77000
 407.87;   -4.700;  -15.280;    0.000;10.58000
 408.16;  -13.880;  -17.930;    0.000; 4.05000
 408.46;   -7.600;  -11.550;    0.000; 3.95000
 408.75;   -3.360;  -11.910;    0.000; 8.55000
 409.04;    4.480;   -9.380;    0.000;13.86000
 409.33;   10.640;   -5.530;    0.000;16.17000
 409.62;    2.900;   -9.060;    0.000;11.96000
 409.92;    4.480;   -7.890;    0.000;12.37000
 410.21;   -2.480;  -11.510;    0.000; 9.03000
 410.50;   -8.280;  -15.240;    0.000; 6.96000
 410.79;    6.720;   -3.910;    0.000;10.63000
 411.08;   -4.720;  -18.230;    0.000;13.51000
 411.37;   -8.900;  -12.950;    0.000; 4.05000
 411.67;   -4.920;  -15.120;    0.000;10.20000
 411.96;    2.880;  -13.530;    0.000;16.41000
 412.25;   -9.940;  -11.720;    0.000; 1.78000
 412.54;   -3.340;  -14.570;    0.000;11.23000
 412.83;   -6.840;  -15.690;    0.000; 8.85000
 413.13;    3.960;  -12.520;    0.000;16.48000
 413.42;   -1.700;  -11.540;    0.000; 9.84000
 413.71;    5.440;  -16.160;    0.000;21.60000
 414.00;   -9.880;  -15.050;    0.000; 5.17000
 414.29;    0.780;  -10.400;    0.000;11.18000
 414.58;   -5.220;  -20.050;    0.000;14.83000
 414.87;   -3.760;  -11.570;    0.000; 7.81000
 415.17;  -19.160;  -14.460;    0.000;-4.70000
 415.46;   -8.200;  -14.740;    0.000; 6.54000
 415.75;    6.900;  -15.050;    0.000;21.95000
 416.04;    3.660;  -19.580;    0.000;23.24000
 416.33;   -2.900;  -10.240;    0.000; 7.34000
 416.62;   -5.720;  -16.750;    0.000;11.03000
 416.91;   -5.560;   -9.630;    0.000; 4.07000
 417.21;   -4.040;   -9.770;    0.000; 5.73000
 417.50;  -10.020;  -22.390;    0.000;12.37000
 417.79;   -9.460;  -14.440;    0.000; 4.98000
 418.08;  -14.420;  -16.260;    0.000; 1.84000
 418.37;   -9.000;  -12.710;    0.000; 3.71000
 418.66;    0.180;  -14.780;    0.000;14.96000
 418.95;   13.420;  -12.220;    0.000;25.64000
 419.24;   -9.180;  -16.910;    0.000; 7.73000
 419.54;    0.020;  -14.290;    0.000;14.31000
 419.83;   -4.660;   -7.000;    0.000; 2.34000
 420.12;   -7.720;  -17.080;    0.000; 9.36000
 420.41;   14.780;   -6.120;    0.000;20.90000
 420.70;  -16.920;  -15.970;    0.000;-0.95000
 420.99;    9.240;   -7.860;    0.000;17.10000
 421.28;    0.080;  -14.590;    0.000;14.67000
 421.57;    0.280;  -13.670;    0.000;13.95000
 421.86;   14.620;   -3.720;    0.000;18.34000
 422.16;   10.080;   -4.790;    0.000;14.87000
 422.45;    1.740;   -7.870;    0.000; 9.61000
 422.74;   -9.720;  -11.510;    0.000; 1.79000
 423.03;   -2.100;   -8.230;    0.000; 6.13000
 423.32;   -9.640;  -16.280;    0.000; 6.64000
 423.61;   13.300;  -10.700;    0.000;24.00000
 423.90;    8.080;  -18.810;    0.000;26.89000
 424.19;   47.020;    3.040;    0.000;43.98000
 424.48;   -7.240;  -13.640;    0.000; 6.40000
 424.77;    3.700;  -15.110;    0.000;18.81000
 425.06;    7.820;   -8.550;    0.000;16.37000
 425.35;    5.400;  -12.070;    0.000;17.47000
 425.65;   -6.360;  -12.850;    0.000; 6.49000
 425.94;   -3.000;  -13.500;    0.000;10.50000
 426.23;   -9.980;  -18.630;    0.000; 8.65000
 426.52;   -9.340;  -18.760;    0.000; 9.42000
 426.81;   18.500;   -4.960;    0.000;23.46000
 427.10;  -11.180;  -18.640;    0.000; 7.46000
 427.39;   -2.620;  -17.730;    0.000;15.11000
 427.68;    5.940;   -6.060;    0.000;12.00000
 427.97;    6.020;   -9.970;    0.000;15.99000
 428.26;  -15.820;  -21.550;    0.000; 5.73000
 428.55;   17.460;   -7.010;    0.000;24.47000
 428.84;    8.380;  -15.510;    0.000;23.89000
 429.13;  -10.280;  -21.800;    0.000;11.52000
 429.42;    7.020;   -6.430;    0.000;13.45000
 429.71;    5.920;  -12.900;    0.000;18.82000
 430.00;   -0.940;  -27.260;    0.000;26.32000
 430.29;   -7.840;  -18.790;    0.000;10.95000
 430.58;   -1.660;  -19.950;    0.000;18.29000
 430.87;   -3.680;  -18.710;    0.000;15.03000
 431.16;   -7.100;  -27.130;    0.000;20.03000
 431.46;    4.340;  -12.580;    0.000;16.92000
 431.75;   -8.560;  -16.460;    0.000; 7.90000
 432.04;    6.480;  -12.750;    0.000;19.23000
 432.33;  -16.580;  -15.960;    0.000;-0.62000
 432.62;    7.760;  -16.610;    0.000;24.37000
 432.91;  -12.140;  -15.280;    0.000; 3.14000
 433.20;   -2.400;  -14.090;    0.000;11.69000
 433.49;   -2.440;  -21.180;    0.000;18.74000
 433.78;  -15.300;  -15.380;    0.000; 0.08000
 434.07;   -6.760;  -18.570;    0.000;11.81000
 434.36;  -12.700;  -18.360;    0.000; 5.66000
 434.65;   -9.360;  -19.110;    0.000; 9.75000
 434.94;   -7.020;  -16.660;    0.000; 9.64000
 435.23;    9.640;  -14.870;    0.000;24.51000
 435.52;    8.840;  -15.280;    0.000;24.12000
 435.81;   -5.360;  -19.590;    0.000;14.23000
 436.10;   12.840;   -8.920;    0.000;21.76000
 436.39;   15.860;   -9.090;    0.000;24.95000
 436.68;    8.520;   -9.150;    0.000;17.67000
 436.97;   -9.980;  -17.940;    0.000; 7.96000
 437.26;    1.360;  -11.060;    0.000;12.42000
 437.55;    0.180;  -14.150;    0.000;14.33000
 437.83;  -10.580;  -20.360;    0.000; 9.78000
 438.12;  -14.120;  -19.980;    0.000; 5.86000
 438.41;   -1.400;  -18.690;    0.000;17.29000
 438.70;   22.920;   -6.450;    0.000;29.37000
 438.99;   12.900;   -3.000;    0.000;15.90000
 439.28;   -2.180;  -13.960;    0.000;11.78000
 439.57;   -6.400;   -8.660;    0.000; 2.26000
 439.86;   -5.480;  -20.460;    0.000;14.98000
 440.15;   -8.220;  -10.490;    0.000; 2.27000
 440.44;   -0.240;  -14.790;    0.000;14.55000
 440.73;    0.000;  -19.990;    0.000;19.99000
 441.02;  -10.860;  -18.940;    0.000; 8.08000
 441.31;    1.560;  -17.020;    0.000;18.58000
 441.60;    5.300;  -10.820;    0.000;16.12000
 441.89;  -12.180;  -18.180;    0.000; 6.00000
 442.18;    6.980;  -11.380;    0.000;18.36000
 442.47;   -5.220;  -20.660;    0.000;15.44000
 442.76;    3.740;  -17.440;    0.000;21.18000
 443.05;    3.220;   -6.670;    0.000; 9.89000
 443.34;    2.860;  -21.050;    0.000;23.91000
 443.63;   -3.000;  -21.060;    0.000;18.06000
 443.91;    0.740;  -24.010;    0.000;24.75000
 444.20;   -1.580;  -15.210;    0.000;13.63000
 444.49;   -2.040;  -17.150;    0.000;15.11000
 444.78;   -2.280;  -10.890;    0.000; 8.61000
 445.07;    9.100;  -13.040;    0.000;22.14000
 445.36;  -14.760;  -25.850;    0.000;11.09000
 445.65;   -0.580;  -13.460;    0.000;12.88000
 445.94;  -16.860;  -17.420;    0.000; 0.56000
 446.23;   14.780;  -14.150;    0.000;28.93000
 446.52;   12.660;  -19.520;    0.000;32.18000
 446.81;    0.120;  -16.560;    0.000;16.68000
 447.10;   -6.180;  -13.040;    0.000; 6.86000
 447.38;   -6.680;  -16.320;    0.000; 9.64000
 447.67;   19.980;  -14.960;    0.000;34.94000
 447.96;   -0.340;  -20.220;    0.000;19.88000
 448.25;   -9.220;  -17.610;    0.000; 8.39000
 448.54;    4.580;  -20.490;    0.000;25.07000
 448.83;    6.700;  -21.650;    0.000;28.35000
 449.12;   -8.080;  -24.330;    0.000;16.25000
 449.41;    5.900;  -17.380;    0.000;23.28000
 449.70;   -6.320;  -19.200;    0.000;12.88000
 449.98;   -1.560;  -18.990;    0.000;17.43000
 450.27;   10.240;  -10.630;    0.000;20.87000
 450.56;  -14.060;  -19.350;    0.000; 5.29000
 450.85;    8.880;  -18.980;    0.000;27.86000
 451.14;   -9.000;  -18.310;    0.000; 9.31000
 451.43;  -13.120;  -19.640;    0.000; 6.52000
 451.72;   -9.180;  -20.630;    0.000;11.45000
 452.01;    5.580;  -12.200;    0.000;17.78000
 452.29;  -11.420;  -18.350;    0.000; 6.93000
 452.58;   -8.740;  -25.270;    0.000;16.53000
 452.87;   -8.580;  -19.090;    0.000;10.51000
 453.16;   -6.460;  -11.330;    0.000; 4.87000
 453.45;   14.980;  -14.720;    0.000;29.70000
 453.74;    7.140;  -10.690;    0.000;17.83000
 454.03;   -7.480;  -21.930;    0.000;14.45000
 454.31;   -5.960;  -22.490;    0.000;16.53000
 454.60;   -5.920;  -21.160;    0.000;15.24000
 454.89;   10.240;  -12.560;    0.000;22.80000
 455.18;   -9.020;  -24.060;    0.000;15.04000
 455.47;  -20.380;  -26.150;    0.000; 5.77000
 455.76;   -4.580;  -27.400;    0.000;22.82000
 456.04;    7.100;  -25.580;    0.000;32.68000
 456.33;  -10.340;  -25.270;    0.000;14.93000
 456.62;   -0.700;  -18.480;    0.000;17.78000
 456.91;   -7.560;  -23.960;    0.000;16.40000
 457.20;    7.600;  -15.140;    0.000;22.74000
 457.49;   -0.220;  -14.830;    0.000;14.61000
 457.77;  -14.820;  -20.000;    0.000; 5.18000
 458.06;    4.040;  -12.460;    0.000;16.50000
 458.35;  -18.420;  -24.180;    0.000; 5.76000
 458.64;   -3.240;  -11.000;    0.000; 7.76000
 458.93;   -1.080;  -15.890;    0.000;14.81000
 459.21;   -6.340;  -21.440;    0.000;15.10000
 459.50;   -4.880;  -22.030;    0.000;17.15000
 459.79;  -11.180;  -19.740;    0.000; 8.56000
 460.08;   -6.760;  -20.210;    0.000;13.45000
 460.37;  -11.080;  -17.330;    0.000; 6.25000
 460.65;   -9.340;  -20.980;    0.000;11.64000
 460.94;   -4.080;  -24.100;    0.000;20.02000
 461.23;   -1.240;  -16.720;    0.000;15.48000
 461.52;   22.760;  -10.800;    0.000;33.56000
 461.81;   -0.500;  -18.200;    0.000;17.70000
 462.09;   -1.960;  -16.530;    0.000;14.57000
 462.38;  -11.720;  -21.390;    0.000; 9.67000
 462.67;   -7.140;  -25.110;    0.000;17.97000
 462.96;   -0.800;  -24.230;    0.000;23.43000
 463.24;   -1.800;  -23.650;    0.000;21.85000
 463.53;    3.140;  -17.480;    0.000;20.62000
 463.82;   -8.700;  -19.800;    0.000;11.10000
 464.11;   -7.140;  -21.730;    0.000;14.59000
 464.40;  -13.420;  -22.130;    0.000; 8.71000
 464.68;  -15.040;  -21.480;    0.000; 6.44000
 464.97;    0.440;  -19.470;    0.000;19.91000
 465.26;    1.560;  -17.460;    0.000;19.02000
 465.55;    3.820;  -20.890;    0.000;24.71000
 465.83;   -6.600;  -20.920;    0.000;14.32000
 466.12;  -11.720;  -22.340;    0.000;10.62000
 466.41;   14.380;  -21.380;    0.000;35.76000
 466.70;  -16.860;  -23.610;    0.000; 6.75000
 466.98;   -9.960;  -20.090;    0.000;10.13000
 467.27;    2.500;  -18.760;    0.000;21.26000
 467.56;   13.600;  -20.980;    0.000;34.58000
 467.85;   -4.360;  -15.930;    0.000;11.57000
 468.13;   -6.340;  -14.330;    0.000; 7.99000
 468.42;    2.220;  -17.700;    0.000;19.92000
 468.71;   13.600;  -20.100;    0.000;33.70000
 468.99;    3.740;  -17.320;    0.000;21.06000
 469.28;   -4.880;  -22.330;    0.000;17.45000
 469.57;   -2.220;  -21.170;    0.000;18.95000
 469.86;    7.800;  -18.660;    0.000;26.46000
 470.14;  -11.640;  -24.400;    0.000;12.76000
 470.43;    3.980;  -16.250;    0.000;20.23000
 470.72;  -10.580;  -27.700;    0.000;17.12000
 471.00;   -4.140;  -21.470;    0.000;17.33000
 471.29;   14.120;  -12.190;    0.000;26.31000
 471.58;   18.540;  -14.440;    0.000;32.98000
 471.87;    2.960;  -20.260;    0.000;23.22000
 472.15;    1.800;  -27.280;    0.000;29.08000
 472.44;   25.820;  -13.550;    0.000;39.37000
 472.73;  -15.200;  -28.340;    0.000;13.14000
 473.01;    0.160;  -26.320;    0.000;26.48000
 473.30;   10.320;  -23.100;    0.000;33.42000
 473.59;   -1.780;  -19.590;    0.000;17.81000
 473.87;    6.660;  -19.240;    0.000;25.90000
 474.16;   -2.780;  -20.110;    0.000;17.33000
 474.45;   -2.920;  -30.440;    0.000;27.52000
 474.74;   -8.200;  -22.750;    0.000;14.55000
 475.02;   -1.840;  -15.460;    0.000;13.62000
 475.31;    4.340;  -20.200;    0.000;24.54000
 475.60;    9.580;  -27.200;    0.000;36.78000
 475.88;    9.000;  -25.920;    0.000;34.92000
 476.17;   20.460;  -16.890;    0.000;37.35000
 476.46;   -7.500;  -20.900;    0.000;13.40000
 476.74;  -10.200;  -23.070;    0.000;12.87000
 477.03;   -6.760;  -22.890;    0.000;16.13000
 477.32;    4.940;  -21.040;    0.000;25.98000
 477.60;   -0.040;  -24.890;    0.000;24.85000
 477.89;    4.240;  -14.910;    0.000;19.15000
 478.18;    7.680;  -15.900;    0.000;23.58000
 478.46;   11.440;  -19.520;    0.000;30.96000
 478.75;    5.020;  -18.520;    0.000;23.54000
 479.03;   -6.040;  -17.330;    0.000;11.29000
 479.32;    3.980;  -26.670;    0.000;30.65000
 479.61;   -8.820;  -32.440;    0.000;23.62000
 479.89;   -6.920;  -24.740;    0.000;17.82000
 480.18;    8.540;  -21.450;    0.000;29.99000
 480.47;   10.520;  -18.220;    0.000;28.74000
 480.75;   -4.660;  -29.820;    0.000;25.16000
 481.04;    7.560;  -20.400;    0.000;27.96000
 481.33;   12.780;  -16.240;    0.000;29.02000
 481.61;    8.600;  -20.830;    0.000;29.43000
 481.90;  -10.980;  -33.240;    0.000;22.26000
 482.18;    9.820;  -23.490;    0.000;33.31000
 482.47;    2.280;  -18.580;    0.000;20.86000
 482.76;    3.700;  -24.650;    0.000;28.35000
 483.04;    1.360;  -22.560;    0.000;23.92000
 483.33;    1.520;  -27.450;    0.000;28.97000
 483.61;    5.000;  -18.390;    0.000;23.39000
 483.90;    9.340;  -22.630;    0.000;31.97000
 484.19;    0.400;  -31.890;    0.000;32.29000
 484.47;    7.920;  -27.650;    0.000;35.57000
 484.76;   -5.200;  -22.480;    0.000;17.28000
 485.05;   17.280;  -15.900;    0.000;33.18000
 485.33;   16.720;  -20.520;    0.000;37.24000
 485.62;    9.240;  -23.220;    0.000;32.46000
 485.90;    9.320;  -19.330;    0.000;28.65000
 486.19;    2.420;  -21.960;    0.000;24.38000
 486.47;   42.840;  -17.750;    0.000;60.59000
 486.76;   12.040;  -32.110;    0.000;44.15000
 487.05;   32.820;  -21.590;    0.000;54.41000
 487.33;   28.200;  -24.120;    0.000;52.32000
 487.62;   32.380;  -27.370;    0.000;59.75000
 487.90;   33.360;  -24.640;    0.000;58.00000
 488.19;   40.260;  -17.250;    0.000;57.51000
 488.47;   45.260;  -20.280;    0.000;65.54000
 488.76;   49.040;  -22.200;    0.000;71.24000
 489.05;   70.260;  -13.720;    0.000;83.98000
 489.33;   56.700;  -24.060;    0.000;80.76000
 489.62;   71.100;  -27.760;    0.000;98.86000
 489.90;   58.660;  -29.230;    0.000;87.89000
 490.19;   66.280;  -20.080;    0.000;86.36000
 490.47;   86.560;  -27.170;    0.000;113.73000
 490.76;  109.420;  -30.390;    0.000;139.81000
 491.05;  122.180;  -18.700;    0.000;140.88000
 491.33;  115.580;  -19.160;    0.000;134.74000
 491.62;  129.640;  -30.080;    0.000;159.72000
 491.90;  145.660;  -24.970;    0.000;170.63000
 492.19;  149.160;  -29.880;    0.000;179.04000
 492.47;  171.680;  -26.010;    0.000;197.68999
 492.76;  193.560;  -25.800;    0.000;219.36000
 493.04;  210.020;  -23.090;    0.000;233.11000
 493.33;  226.760;  -29.680;    0.000;256.43999
 493.61;  267.500;  -28.280;    0.000;295.78000
 493.90;  290.340;  -25.470;    0.000;315.81000
 494.18;  319.160;  -21.360;    0.000;340.52000
 494.47;  351.500;  -21.500;    0.000;373.00000
 494.75;  365.460;  -25.740;    0.000;391.19999
 495.04;  414.040;  -25.010;    0.000;439.05001
 495.32;  431.740;  -24.280;    0.000;456.01999
 495.61;  476.600;  -26.390;    0.000;502.99001
 495.89;  517.120;  -25.210;    0.000;542.32999
 496.18;  553.200;  -24.900;    0.000;578.10001
 496.46;  619.000;  -25.570;    0.000;644.57000
 496.75;  666.140;  -19.200;    0.000;685.34002
 497.03;  702.300;  -21.850;    0.000;724.14999
 497.32;  759.660;  -28.930;    0.000;788.58997
 497.60;  810.800;  -27.460;    0.000;838.25999
 497.89;  881.940;  -26.060;    0.000;908.00000
 498.17;  935.780;  -23.200;    0.000;958.98003
 498.46; 1032.260;  -31.150;    0.000;1063.41001
 498.74; 1094.940;  -21.420;    0.000;1116.35994
 499.03; 1182.300;  -27.500;    0.000;1209.80005
 499.31; 1244.840;  -33.980;    0.000;1278.81997
 499.60; 1335.480;  -26.560;    0.000;1362.03998
 499.88; 1439.080;  -13.310;    0.000;1452.38996
 500.17; 1486.600;  -32.950;    0.000;1519.54998
 500.45; 1571.420;  -26.850;    0.000;1598.27004
 500.74; 1678.640;  -32.110;    0.000;1710.75002
 501.02; 1786.980;  -28.340;    0.000;1815.31998
 501.31; 1889.880;  -30.740;    0.000;1920.62000
 501.59; 1998.820;  -22.990;    0.000;2021.80995
 501.88; 2108.660;  -24.540;    0.000;2133.19991
 502.16; 2218.060;  -33.190;    0.000;2251.25006
 502.45; 2343.060;  -27.850;    0.000;2370.91006
 502.73; 2459.700;  -30.030;    0.000;2489.72995
 503.01; 2568.100;  -26.800;    0.000;2594.90010
 503.30; 2709.680;  -26.540;    0.000;2736.21993
 503.58; 2807.500;  -37.970;    0.000;2845.47000
 503.87; 2970.520;  -21.070;    0.000;2991.59002
 504.15; 3111.000;  -31.700;    0.000;3142.70000
 504.44; 3248.740;  -22.380;    0.000;3271.11999
 504.72; 3414.220;  -16.240;    0.000;3430.45997
 505.00; 3522.580;  -31.090;    0.000;3553.67008
 505.29; 3715.640;  -18.750;    0.000;3734.38989
 505.57; 3863.840;  -26.120;    0.000;3889.96009
 505.86; 3980.460;  -30.130;    0.000;4010.58996
 506.14; 4201.840;  -40.580;    0.000;4242.41985
 506.43; 4340.240;  -16.980;    0.000;4357.22023
 506.71; 4512.760;  -26.380;    0.000;4539.13976
 506.99; 4670.320;  -33.030;    0.000;4703.34982
 507.28; 4836.400;  -27.620;    0.000;4864.01990
 507.56; 5051.700;  -28.400;    0.000;5080.10019
 507.85; 5263.280;  -26.630;    0.000;5289.90978
 508.13; 5416.560;  -23.390;    0.000;5439.95006
 508.41; 5607.920;  -13.300;    0.000;5621.21992
 508.70; 5804.480;  -30.090;    0.000;5834.56998
 508.98; 5981.180;  -29.260;    0.000;6010.44018
 509.27; 6164.240;  -34.820;    0.000;6199.06023
 509.55; 6397.920;  -20.900;    0.000;6418.81992
 509.83; 6558.120;  -32.250;    0.000;6590.37012
 510.12; 6739.680;  -25.080;    0.000;6764.76018
 510.40; 6972.600;  -26.530;    0.000;6999.13010
 510.69; 7161.660;  -26.360;    0.000;7188.02016
 510.97; 7393.420;  -25.960;    0.000;7419.37992
 511.25; 7573.880;  -25.560;    0.000;7599.43988
 511.54; 7758.980;  -32.180;    0.000;7791.15998
 511.82; 7999.480;  -23.410;    0.000;8022.88998
 512.11; 8235.680;  -28.130;    0.000;8263.80969
 512.39; 8404.060;  -32.100;    0.000;8436.15957
 512.67; 8592.040;  -23.390;    0.000;8615.43004
 512.96; 8836.840;  -27.360;    0.000;8864.19984
 513.24; 9101.880;  -25.540;    0.000;9127.41988
 513.52; 9182.620;  -20.710;    0.000;9203.33012
 513.81; 9389.340;  -27.450;    0.000;9416.78984
 514.09; 9578.740;  -31.630;    0.000;9610.37023
 514.37; 9758.720;  -28.900;    0.000;9787.61973
 514.66; 9977.840;  -26.830;    0.000;10004.66984
 514.94;10293.400;  -30.930;    0.000;10324.33039
 515.22;10473.640;  -20.740;    0.000;10494.37965
 515.51;10621.760;  -28.110;    0.000;10649.86977
 515.79;10857.900;  -30.680;    0.000;10888.58039
 516.07;11030.220;  -21.420;    0.000;11051.63973
 516.36;11280.060;  -30.450;    0.000;11310.50957
 516.64;11469.560;  -27.560;    0.000;11497.11957
 516.92;11687.560;  -28.140;    0.000;11715.69957
 517.21;11870.020;  -33.670;    0.000;11903.68953
 517.49;12168.300;  -21.660;    0.000;12189.95980
 517.77;12405.200;  -23.850;    0.000;12429.05020
 518.06;12648.520;  -35.280;    0.000;12683.79953
 518.34;12811.200;  -22.260;    0.000;12833.46020
 518.62;13009.420;  -18.090;    0.000;13027.50992
 518.91;13183.600;  -25.090;    0.000;13208.68961
 519.19;13401.580;  -29.320;    0.000;13430.90008
 519.47;13612.180;  -25.890;    0.000;13638.06969
 519.76;13840.480;  -20.890;    0.000;13861.37047
 520.04;14010.620;  -27.100;    0.000;14037.72012
 520.32;14223.680;  -24.040;    0.000;14247.71969
 520.61;14369.220;  -17.280;    0.000;14386.49973
 520.89;14584.840;  -26.150;    0.000;14610.98984
 521.17;14695.820;  -27.250;    0.000;14723.07031
 521.45;14935.460;  -26.190;    0.000;14961.64996
 521.74;15121.880;  -27.770;    0.000;15149.64988
 522.02;15282.880;  -32.340;    0.000;15315.21988
 522.30;15496.380;  -30.190;    0.000;15526.56988
 522.59;15642.040;  -17.950;    0.000;15659.99004
 522.87;15772.580;  -35.830;    0.000;15808.41008
 523.15;16027.600;  -22.330;    0.000;16049.92961
 523.43;16138.680;  -36.850;    0.000;16175.52969
 523.72;16336.600;  -22.470;    0.000;16359.06961
 524.00;16474.039;  -26.840;    0.000;16500.87906
 524.28;16648.439;  -30.100;    0.000;16678.53945
 524.57;16841.100;  -28.250;    0.000;16869.34961
 524.85;16897.000;  -33.210;    0.000;16930.21000
 525.13;17082.000;  -28.900;    0.000;17110.90000
 525.41;17221.439;  -26.930;    0.000;17248.36945
 525.70;17378.119;  -39.770;    0.000;17417.88914
 525.98;17556.779;  -28.770;    0.000;17585.54930
 526.26;17675.561;  -28.530;    0.000;17704.09055
 526.54;17807.760;  -37.240;    0.000;17844.99977
 526.83;17965.619;  -31.260;    0.000;17996.87914
 527.11;18136.320;  -29.840;    0.000;18166.16031
 527.39;18350.500;  -27.920;    0.000;18378.42000
 527.67;18424.340;  -33.060;    0.000;18457.39985
 527.96;18599.881;  -33.590;    0.000;18633.47086
 528.24;18755.680;  -30.660;    0.000;18786.33969
 528.52;18857.240;  -24.870;    0.000;18882.11024
 528.80;19081.779;  -28.750;    0.000;19110.52930
 529.08;19141.939;  -34.880;    0.000;19176.81945
 529.37;19329.279;  -25.970;    0.000;19355.24930
 529.65;19418.240;  -21.850;    0.000;19440.09023
 529.93;19477.801;  -27.970;    0.000;19505.77078
 530.21;19735.840;  -33.080;    0.000;19768.91985
 530.50;19800.500;  -30.560;    0.000;19831.06000
 530.78;19898.820;  -27.290;    0.000;19926.11031
 531.06;19938.500;  -32.640;    0.000;19971.14000
 531.34;20156.160;  -31.410;    0.000;20187.57016
 531.62;20199.240;  -29.810;    0.000;20229.05023
 531.91;20352.000;  -33.270;    0.000;20385.27000
 532.19;20436.039;  -28.780;    0.000;20464.81906
 532.47;20572.400;  -30.330;    0.000;20602.73039
 532.75;20599.340;  -25.280;    0.000;20624.61984
 533.03;20787.080;  -26.860;    0.000;20813.94008
 533.32;20820.820;  -23.280;    0.000;20844.10031
 533.60;20976.699;  -34.090;    0.000;21010.78922
 533.88;21107.500;  -20.750;    0.000;21128.25000
 534.16;21123.000;  -30.960;    0.000;21153.96000
 534.44;21347.199;  -26.490;    0.000;21373.68922
 534.72;21382.900;  -32.560;    0.000;21415.46039
 535.01;21544.680;  -25.270;    0.000;21569.94969
 535.29;21550.619;  -23.350;    0.000;21573.96914
 535.57;21608.260;  -25.910;    0.000;21634.16977
 535.85;21723.859;  -23.170;    0.000;21747.02938
 536.13;21917.600;  -28.940;    0.000;21946.53961
 536.42;21968.920;  -27.660;    0.000;21996.57992
 536.70;22081.240;  -35.120;    0.000;22116.36023
 536.98;22130.500;  -22.910;    0.000;22153.41000
 537.26;22270.561;  -19.290;    0.000;22289.85055
 537.54;22303.141;  -26.340;    0.000;22329.48063
 537.82;22388.920;  -21.930;    0.000;22410.84992
 538.10;22465.020;  -27.700;    0.000;22492.71953
 538.39;22643.939;  -28.600;    0.000;22672.53945
 538.67;22673.680;  -27.310;    0.000;22700.98969
 538.95;22705.199;  -30.120;    0.000;22735.31922
 539.23;22844.439;  -22.970;    0.000;22867.40945
 539.51;22892.920;  -22.060;    0.000;22914.97992
 539.79;23003.520;  -26.640;    0.000;23030.15953
 540.07;23063.320;  -22.100;    0.000;23085.42031
 540.36;23130.180;  -30.750;    0.000;23160.92969
 540.64;23208.279;  -22.510;    0.000;23230.78930
 540.92;23238.199;  -30.820;    0.000;23269.01922
 541.20;23404.740;  -29.640;    0.000;23434.38023
 541.48;23491.141;  -12.470;    0.000;23503.61063
 541.76;23538.260;  -26.780;    0.000;23565.03977
 542.04;23596.100;  -23.270;    0.000;23619.36961
 542.32;23677.039;  -24.220;    0.000;23701.25906
 542.61;23735.221;  -33.520;    0.000;23768.74070
 542.89;23859.680;  -17.240;    0.000;23876.91969
 543.17;23867.779;  -25.240;    0.000;23893.01930
 543.45;23961.301;  -24.660;    0.000;23985.96078
 543.73;23976.500;  -28.070;    0.000;24004.57000
 544.01;24027.119;  -29.250;    0.000;24056.36914
 544.29;24162.980;  -19.640;    0.000;24182.62047
 544.57;24190.340;  -34.410;    0.000;24224.74984
 544.85;24285.840;  -23.490;    0.000;24309.32984
 545.13;24247.760;  -25.150;    0.000;24272.90977
 545.42;24392.020;  -24.120;    0.000;24416.13953
 545.70;24377.500;  -20.880;    0.000;24398.38000
 545.98;24406.920;  -22.690;    0.000;24429.60992
 546.26;24466.020;  -22.680;    0.000;24488.69953
 546.54;24561.539;  -26.680;    0.000;24588.21906
 546.82;24586.980;  -22.560;    0.000;24609.54047
 547.10;24606.320;  -25.490;    0.000;24631.81031
 547.38;24645.820;  -18.460;    0.000;24664.28031
 547.66;24657.100;  -24.450;    0.000;24681.54961
 547.94;24693.641;  -22.110;    0.000;24715.75063
 548.22;24769.160;  -28.020;    0.000;24797.18016
 548.50;24787.080;  -35.840;    0.000;24822.92008
 548.78;24721.039;  -28.210;    0.000;24749.24906
 549.06;24835.641;  -25.700;    0.000;24861.34063
 549.34;24934.779;  -30.930;    0.000;24965.70930
 549.63;24922.539;  -17.470;    0.000;24940.00906
 549.91;24950.980;  -26.020;    0.000;24977.00047
 550.19;24949.160;  -30.840;    0.000;24980.00016
 550.47;24969.881;  -33.570;    0.000;25003.45086
 550.75;24978.381;  -29.150;    0.000;25007.53086
 551.03;25064.641;  -31.230;    0.000;25095.87062
 551.31;24987.480;  -27.700;    0.000;25015.18047
 551.59;25129.721;  -27.320;    0.000;25157.04070
 551.87;25120.400;  -25.060;    0.000;25145.46039
 552.15;25081.881;  -29.650;    0.000;25111.53086
 552.43;25121.301;  -17.690;    0.000;25138.99078
 552.71;25096.039;  -26.730;    0.000;25122.76906
 552.99;25209.400;  -27.320;    0.000;25236.72039
 553.27;25257.900;  -33.900;    0.000;25291.80039
 553.55;25268.820;  -29.130;    0.000;25297.95031
 553.83;25230.400;  -34.100;    0.000;25264.50039
 554.11;25331.180;  -29.070;    0.000;25360.24969
 554.39;25295.820;  -17.350;    0.000;25313.17031
 554.67;25357.119;  -31.140;    0.000;25388.25914
 554.95;25303.119;  -15.790;    0.000;25318.90914
 555.23;25365.061;  -19.190;    0.000;25384.25055
 555.51;25274.619;  -23.860;    0.000;25298.47914
 555.79;25294.961;  -26.610;    0.000;25321.57094
 556.07;25310.619;  -33.750;    0.000;25344.36914
 556.35;25247.961;  -33.080;    0.000;25281.04094
 556.63;25278.020;  -23.190;    0.000;25301.20953
 556.91;25234.900;  -20.140;    0.000;25255.04039
 557.19;25302.119;  -33.420;    0.000;25335.53914
 557.47;25238.539;  -26.860;    0.000;25265.39906
 557.75;25281.180;  -27.600;    0.000;25308.77969
 558.03;25296.221;  -23.720;    0.000;25319.94070
 558.31;25282.000;  -32.820;    0.000;25314.82000
 558.59;25342.801;  -28.200;    0.000;25371.00078
 558.87;25307.920;  -31.300;    0.000;25339.21992
 559.15;25365.461;  -29.920;    0.000;25395.38094
 559.43;25276.600;  -31.700;    0.000;25308.29961
 559.71;25341.801;  -29.390;    0.000;25371.19078
 559.99;25344.199;  -29.950;    0.000;25374.14922
 560.27;25320.381;  -31.860;    0.000;25352.24086
 560.55;25384.520;  -27.330;    0.000;25411.84953
 560.82;25372.539;  -30.590;    0.000;25403.12906
 561.10;25245.180;  -35.810;    0.000;25280.98969
 561.38;25226.100;  -27.550;    0.000;25253.64961
 561.66;25184.580;  -27.770;    0.000;25212.35008
 561.94;25240.180;  -36.790;    0.000;25276.96969
 562.22;25167.520;  -29.270;    0.000;25196.78953
 562.50;25241.961;  -25.730;    0.000;25267.69094
 562.78;25181.420;  -28.210;    0.000;25209.62992
 563.06;25045.340;  -32.200;    0.000;25077.53984
 563.34;25067.920;  -32.310;    0.000;25100.22992
 563.62;25038.301;  -26.420;    0.000;25064.72078
 563.90;24984.680;  -33.310;    0.000;25017.98969
 564.18;24929.439;  -30.050;    0.000;24959.48945
 564.46;24956.420;  -33.070;    0.000;24989.48992
 564.74;24866.439;  -26.370;    0.000;24892.80945
 565.01;24874.779;  -34.630;    0.000;24909.40930
 565.29;24804.680;  -30.890;    0.000;24835.56969
 565.57;24773.359;  -27.770;    0.000;24801.12938
 565.85;24692.939;  -26.540;    0.000;24719.47945
 566.13;24640.260;  -35.020;    0.000;24675.27977
 566.41;24687.039;  -27.970;    0.000;24715.00906
 566.69;24586.320;  -26.850;    0.000;24613.17031
 566.97;24516.080;  -35.710;    0.000;24551.79008
 567.25;24506.801;  -26.920;    0.000;24533.72078
 567.53;24510.119;  -31.550;    0.000;24541.66914
 567.80;24385.119;  -29.830;    0.000;24414.94914
 568.08;24384.740;  -23.950;    0.000;24408.69024
 568.36;24341.580;  -39.610;    0.000;24381.19008
 568.64;24294.600;  -31.690;    0.000;24326.28961
 568.92;24295.400;  -24.250;    0.000;24319.65039
 569.20;24170.439;  -32.220;    0.000;24202.65945
 569.48;24137.801;  -33.550;    0.000;24171.35078
 569.76;24074.420;  -41.820;    0.000;24116.23992
 570.03;24008.020;  -26.520;    0.000;24034.53953
 570.31;23882.820;  -33.390;    0.000;23916.21031
 570.59;23884.920;  -29.380;    0.000;23914.29992
 570.87;23808.020;  -30.810;    0.000;23838.82953
 571.15;23874.020;  -35.650;    0.000;23909.66953
 571.43;23762.199;  -28.530;    0.000;23790.72922
 571.71;23759.199;  -40.130;    0.000;23799.32922
 571.98;23606.980;  -30.700;    0.000;23637.68047
 572.26;23510.900;  -33.520;    0.000;23544.42039
 572.54;23544.539;  -36.750;    0.000;23581.28906
 572.82;23447.180;  -35.020;    0.000;23482.19969
 573.10;23403.320;  -32.420;    0.000;23435.74031
 573.38;23380.439;  -33.880;    0.000;23414.31945
 573.66;23185.141;  -34.190;    0.000;23219.33062
 573.93;23284.801;  -33.870;    0.000;23318.67078
 574.21;23173.721;  -31.820;    0.000;23205.54070
 574.49;23093.619;  -31.910;    0.000;23125.52914
 574.77;23022.301;  -29.890;    0.000;23052.19078
 575.05;22963.859;  -22.870;    0.000;22986.72938
 575.33;22817.961;  -31.620;    0.000;22849.58094
 575.60;22764.119;  -29.990;    0.000;22794.10914
 575.88;22711.039;  -30.640;    0.000;22741.67906
 576.16;22585.420;  -31.370;    0.000;22616.78992
 576.44;22519.080;  -30.170;    0.000;22549.25008
 576.72;22466.580;  -30.330;    0.000;22496.91008
 576.99;22369.461;  -35.380;    0.000;22404.84094
 577.27;22303.641;  -32.010;    0.000;22335.65062
 577.55;22184.420;  -20.740;    0.000;22205.15992
 577.83;22122.779;  -38.350;    0.000;22161.12930
 578.11;22040.699;  -30.600;    0.000;22071.29922
 578.38;21958.260;  -33.300;    0.000;21991.55976
 578.66;21907.320;  -33.190;    0.000;21940.51031
 578.94;21762.320;  -34.250;    0.000;21796.57031
 579.22;21761.160;  -36.890;    0.000;21798.05016
 579.50;21728.340;  -16.500;    0.000;21744.83984
 579.77;21687.699;  -27.820;    0.000;21715.51922
 580.05;21493.480;  -33.860;    0.000;21527.34047
 580.33;21476.061;  -36.230;    0.000;21512.29055
 580.61;21384.881;  -31.810;    0.000;21416.69086
 580.88;21250.680;  -31.550;    0.000;21282.22969
 581.16;21138.939;  -30.380;    0.000;21169.31945
 581.44;21027.080;  -26.740;    0.000;21053.82008
 581.72;20988.980;  -36.870;    0.000;21025.85047
 581.99;20846.881;  -28.000;    0.000;20874.88086
 582.27;20859.420;  -32.620;    0.000;20892.03992
 582.55;20636.461;  -39.650;    0.000;20676.11094
 582.83;20584.221;  -31.420;    0.000;20615.64070
 583.10;20547.100;  -34.040;    0.000;20581.13961
 583.38;20407.400;  -33.790;    0.000;20441.19039
 583.66;20359.900;  -23.360;    0.000;20383.26039
 583.94;20173.080;  -37.120;    0.000;20210.20008
 584.21;20180.000;  -36.200;    0.000;20216.20000
 584.49;19993.721;  -31.210;    0.000;20024.93070
 584.77;19970.240;  -41.490;    0.000;20011.73024
 585.05;19828.939;  -41.880;    0.000;19870.81945
 585.32;19764.359;  -40.900;    0.000;19805.25938
 585.60;19647.340;  -35.320;    0.000;19682.65984
 585.88;19579.881;  -36.100;    0.000;19615.98086
 586.16;19420.961;  -33.460;    0.000;19454.42094
 586.43;19384.580;  -23.040;    0.000;19407.62008
 586.71;19197.020;  -33.020;    0.000;19230.03953
 586.99;19138.141;  -38.700;    0.000;19176.84063
 587.26;19018.721;  -39.100;    0.000;19057.82070
 587.54;18955.381;  -29.820;    0.000;18985.20086
 587.82;18868.900;  -31.730;    0.000;18900.63039
 588.10;18731.199;  -35.850;    0.000;18767.04922
 588.37;18583.580;  -41.630;    0.000;18625.21008
 588.65;18474.180;  -32.470;    0.000;18506.64969
 588.93;18348.340;  -32.150;    0.000;18380.48985
 589.20;18368.900;  -34.030;    0.000;18402.93039
 589.48;18199.301;  -34.930;    0.000;18234.23078
 589.76;18121.020;  -15.830;    0.000;18136.84953
 590.03;17957.260;  -40.290;    0.000;17997.54977
 590.31;17927.500;  -33.480;    0.000;17960.98000
 590.59;17748.859;  -33.000;    0.000;17781.85938
 590.86;17634.461;  -31.500;    0.000;17665.96094
 591.14;17552.020;  -37.450;    0.000;17589.46953
 591.42;17543.900;  -37.920;    0.000;17581.82039
 591.70;17370.381;  -32.300;    0.000;17402.68086
 591.97;17301.160;  -26.470;    0.000;17327.63016
 592.25;17142.160;  -31.490;    0.000;17173.65016
 592.53;17009.820;  -39.370;    0.000;17049.19031
 592.80;16939.141;  -30.970;    0.000;16970.11062
 593.08;16895.439;  -28.190;    0.000;16923.62945
 593.36;16696.740;  -33.690;    0.000;16730.43023
 593.63;16643.660;  -28.510;    0.000;16672.17016
 593.91;16569.119;  -39.300;    0.000;16608.41914
 594.18;16460.340;  -30.740;    0.000;16491.07984
 594.46;16361.640;  -37.200;    0.000;16398.83965
 594.74;16207.500;  -35.270;    0.000;16242.77000
 595.01;16114.860;  -39.910;    0.000;16154.77035
 595.29;16020.020;  -37.830;    0.000;16057.84953
 595.57;15936.280;  -30.310;    0.000;15966.59027
 595.84;15818.660;  -34.070;    0.000;15852.73016
 596.12;15659.000;  -35.950;    0.000;15694.95000
 596.40;15565.220;  -47.400;    0.000;15612.61973
 596.67;15528.920;  -33.240;    0.000;15562.15992
 596.95;15346.460;  -31.840;    0.000;15378.29996
 597.22;15273.040;  -42.200;    0.000;15315.24004
 597.50;15128.380;  -33.310;    0.000;15161.68988
 597.78;15010.680;  -35.870;    0.000;15046.54969
 598.05;14896.520;  -42.370;    0.000;14938.88953
 598.33;14800.820;  -31.360;    0.000;14832.18031
 598.61;14720.820;  -34.100;    0.000;14754.92031
 598.88;14643.900;  -43.010;    0.000;14686.91039
 599.16;14554.900;  -38.270;    0.000;14593.17039
 599.43;14418.440;  -44.250;    0.000;14462.69043
 599.71;14303.620;  -31.350;    0.000;14334.97012
 599.99;14178.040;  -40.440;    0.000;14218.48004
 600.26;14038.900;  -34.480;    0.000;14073.38039
 600.54;14032.140;  -35.880;    0.000;14068.01965
 600.81;13927.440;  -30.800;    0.000;13958.24043
 601.09;13761.160;  -38.420;    0.000;13799.58015
 601.36;13655.360;  -43.640;    0.000;13699.00035
 601.64;13622.740;  -36.270;    0.000;13659.01023
 601.92;13508.980;  -40.290;    0.000;13549.27047
 602.19;13420.780;  -43.490;    0.000;13464.27028
 602.47;13240.800;  -41.720;    0.000;13282.51981
 602.74;13210.140;  -33.580;    0.000;13243.71965
 603.02;13135.920;  -30.880;    0.000;13166.79992
 603.29;13053.380;  -30.150;    0.000;13083.52988
 603.57;13009.840;  -38.680;    0.000;13048.51984
 603.85;12791.500;  -36.240;    0.000;12827.74000
 604.12;12835.060;  -25.740;    0.000;12860.79957
 604.40;12664.360;  -37.040;    0.000;12701.40035
 604.67;12549.920;  -31.720;    0.000;12581.63992
 604.95;12451.020;  -36.850;    0.000;12487.86953
 605.22;12432.740;  -36.400;    0.000;12469.14024
 605.50;12301.340;  -42.480;    0.000;12343.81984
 605.77;12199.780;  -37.250;    0.000;12237.03027
 606.05;12161.060;  -39.640;    0.000;12200.69957
 606.33;12053.720;  -35.100;    0.000;12088.81973
 606.60;11996.800;  -44.280;    0.000;12041.07980
 606.88;11950.700;  -33.550;    0.000;11984.25019
 607.15;11852.340;  -35.810;    0.000;11888.14985
 607.43;11702.880;  -38.570;    0.000;11741.44988
 607.70;11637.780;  -33.540;    0.000;11671.32027
 607.98;11560.880;  -38.040;    0.000;11598.91988
 608.25;11482.940;  -39.360;    0.000;11522.30043
 608.53;11391.040;  -46.700;    0.000;11437.74004
 608.80;11289.120;  -39.200;    0.000;11328.32012
 609.08;11272.600;  -41.820;    0.000;11314.41961
 609.35;11235.580;  -35.520;    0.000;11271.10008
 609.63;11150.800;  -44.390;    0.000;11195.18980
 609.90;11050.500;  -36.930;    0.000;11087.43000
 610.18;11040.500;  -28.100;    0.000;11068.60000
 610.45;10901.640;  -47.230;    0.000;10948.86965
 610.73;10848.280;  -40.590;    0.000;10888.87027
 611.00;10844.960;  -28.940;    0.000;10873.89996
 611.28;10709.920;  -41.770;    0.000;10751.68992
 611.55;10657.700;  -47.150;    0.000;10704.85020
 611.83;10569.740;  -42.410;    0.000;10612.15023
 612.10;10538.120;  -47.870;    0.000;10585.99012
 612.38;10470.800;  -43.330;    0.000;10514.12981
 612.65;10450.860;  -38.760;    0.000;10489.62035
 612.93;10385.580;  -46.440;    0.000;10432.02008
 613.20;10239.300;  -40.520;    0.000;10279.81981
 613.48;10204.780;  -42.680;    0.000;10247.46027
 613.75;10150.440;  -49.140;    0.000;10199.58043
 614.03;10128.960;  -35.760;    0.000;10164.71996
 614.30;10001.860;  -49.280;    0.000;10051.14035
 614.57; 9992.440;  -47.070;    0.000;10039.51043
 614.85; 9913.720;  -40.710;    0.000;9954.42973
 615.12; 9862.400;  -40.130;    0.000;9902.53039
 615.40; 9793.140;  -45.350;    0.000;9838.48965
 615.67; 9702.100;  -41.120;    0.000;9743.21961
 615.95; 9702.500;  -42.780;    0.000;9745.28000
 616.22; 9670.900;  -39.310;    0.000;9710.21039
 616.50; 9594.680;  -36.190;    0.000;9630.86969
 616.77; 9510.960;  -39.210;    0.000;9550.16996
 617.05; 9438.140;  -40.130;    0.000;9478.26965
 617.32; 9350.500;  -41.510;    0.000;9392.01000
 617.59; 9268.460;  -39.270;    0.000;9307.72996
 617.87; 9119.600;  -46.440;    0.000;9166.03961
 618.14; 9033.920;  -39.430;    0.000;9073.34992
 618.42; 8984.080;  -48.270;    0.000;9032.35008
 618.69; 8892.080;  -42.280;    0.000;8934.36008
 618.97; 8793.280;  -50.160;    0.000;8843.44027
 619.24; 8700.660;  -46.580;    0.000;8747.24016
 619.51; 8565.020;  -37.650;    0.000;8602.66953
 619.79; 8430.020;  -40.650;    0.000;8470.66953
 620.06; 8261.480;  -36.470;    0.000;8297.95047
 620.34; 8096.800;  -42.190;    0.000;8138.98980
 620.61; 7945.140;  -36.840;    0.000;7981.98014
 620.88; 7970.640;  -52.820;    0.000;8023.46014
 621.16; 8095.440;  -38.520;    0.000;8133.95994
 621.43; 8150.980;  -40.070;    0.000;8191.04998
 621.71; 8184.120;  -40.440;    0.000;8224.56012
 621.98; 8075.460;  -42.920;    0.000;8118.37996
 622.25; 7946.900;  -42.110;    0.000;7989.00990
 622.53; 7932.940;  -43.900;    0.000;7976.83994
 622.80; 7861.240;  -48.280;    0.000;7909.52023
 623.08; 7792.080;  -48.410;    0.000;7840.49008
 623.35; 7755.160;  -42.130;    0.000;7797.29016
 623.62; 7733.860;  -41.870;    0.000;7775.72986
 623.90; 7690.080;  -44.400;    0.000;7734.48008
 624.17; 7651.260;  -45.690;    0.000;7696.94976
 624.44; 7605.960;  -37.610;    0.000;7643.56996
 624.72; 7500.360;  -46.110;    0.000;7546.46986
 624.99; 7575.780;  -46.780;    0.000;7622.55978
 625.26; 7557.100;  -48.840;    0.000;7605.94010
 625.54; 7592.040;  -34.500;    0.000;7626.54004
 625.81; 7576.180;  -39.400;    0.000;7615.58018
 626.09; 7600.400;  -42.260;    0.000;7642.65990
 626.36; 7532.780;  -45.970;    0.000;7578.74979
 626.63; 7576.220;  -41.260;    0.000;7617.48021
 626.91; 7508.960;  -45.500;    0.000;7554.45996
 627.18; 7498.140;  -36.360;    0.000;7534.50014
 627.45; 7428.640;  -44.240;    0.000;7472.88014
 627.73; 7449.220;  -37.730;    0.000;7486.95021
 628.00; 7418.140;  -50.130;    0.000;7468.27014
 628.27; 7369.820;  -40.330;    0.000;7410.14983
 628.55; 7363.060;  -44.630;    0.000;7407.69006
 628.82; 7326.120;  -48.870;    0.000;7374.99012
 629.09; 7318.060;  -49.850;    0.000;7367.91006
 629.37; 7287.840;  -48.480;    0.000;7336.31984
 629.64; 7252.460;  -48.280;    0.000;7300.73996
 629.91; 7249.860;  -45.620;    0.000;7295.47986
 630.18; 7207.220;  -51.830;    0.000;7259.05022
 630.46; 7191.200;  -36.850;    0.000;7228.05019
 630.73; 7153.800;  -39.860;    0.000;7193.65981
 631.00; 7146.300;  -47.900;    0.000;7194.19981
 631.28; 7090.860;  -49.040;    0.000;7139.89986
 631.55; 7115.900;  -43.760;    0.000;7159.65990
 631.82; 7098.680;  -44.290;    0.000;7142.97018
 632.10; 7046.600;  -39.890;    0.000;7086.49010
 632.37; 6988.220;  -43.540;    0.000;7031.76022
 632.64; 7003.460;  -40.290;    0.000;7043.74996
 632.91; 6976.160;  -40.250;    0.000;7016.41016
 633.19; 6923.460;  -41.720;    0.000;6965.17996
 633.46; 6872.980;  -51.730;    0.000;6924.70998
 633.73; 6884.880;  -38.000;    0.000;6922.87988
 634.01; 6863.960;  -45.300;    0.000;6909.25996
 634.28; 6813.440;  -41.280;    0.000;6854.71994
 634.55; 6893.760;  -41.150;    0.000;6934.90977
 634.82; 6766.800;  -47.530;    0.000;6814.32980
 635.10; 6781.760;  -39.270;    0.000;6821.02977
 635.37; 6781.280;  -47.120;    0.000;6828.39978
 635.64; 6763.020;  -54.360;    0.000;6817.38002
 635.91; 6715.460;  -48.020;    0.000;6763.47996
 636.19; 6719.620;  -44.600;    0.000;6764.22012
 636.46; 6760.640;  -48.800;    0.000;6809.44014
 636.73; 6777.620;  -39.570;    0.000;6817.19012
 637.00; 6787.940;  -42.160;    0.000;6830.09994
 637.28; 6758.540;  -50.320;    0.000;6808.86004
 637.55; 6729.720;  -43.570;    0.000;6773.29021
 637.82; 6625.420;  -46.760;    0.000;6672.17992
 638.09; 6523.120;  -39.060;    0.000;6562.18012
 638.37; 6444.600;  -46.470;    0.000;6491.07010
 638.64; 6408.720;  -47.310;    0.000;6456.03022
 638.91; 6381.280;  -41.310;    0.000;6422.58979
 639.18; 6400.580;  -43.470;    0.000;6444.05008
 639.46; 6326.120;  -48.390;    0.000;6374.51012
 639.73; 6293.780;  -39.780;    0.000;6333.55978
 640.00; 6241.260;  -45.530;    0.000;6286.78976
 640.27; 6213.920;  -46.560;    0.000;6260.47992
 640.54; 6149.680;  -51.660;    0.000;6201.34018
 640.82; 6141.700;  -48.560;    0.000;6190.26020
 641.09; 6050.160;  -48.760;    0.000;6098.92015
 641.36; 6011.820;  -46.200;    0.000;6058.01982
 641.63; 5974.100;  -55.600;    0.000;6029.70010
 641.91; 5954.320;  -46.400;    0.000;6000.71983
 642.18; 5847.620;  -52.210;    0.000;5899.83012
 642.45; 5763.600;  -52.490;    0.000;5816.09010
 642.72; 5723.960;  -53.360;    0.000;5777.31996
 642.99; 5697.140;  -36.570;    0.000;5733.71014
 643.26; 5664.700;  -47.650;    0.000;5712.35020
 643.54; 5615.880;  -40.710;    0.000;5656.58988
 643.81; 5535.840;  -55.630;    0.000;5591.46984
 644.08; 5509.840;  -47.930;    0.000;5557.76984
 644.35; 5471.160;  -48.850;    0.000;5520.01015
 644.62; 5422.880;  -49.000;    0.000;5471.87988
 644.90; 5400.280;  -43.820;    0.000;5444.09978
 645.17; 5364.200;  -51.370;    0.000;5415.57019
 645.44; 5316.200;  -47.130;    0.000;5363.33020
 645.71; 5275.720;  -49.200;    0.000;5324.92022
 645.98; 5263.960;  -46.690;    0.000;5310.64996
 646.25; 5197.620;  -46.940;    0.000;5244.56012
 646.53; 5213.820;  -50.370;    0.000;5264.18982
 646.80; 5160.540;  -42.780;    0.000;5203.32004
 647.07; 5080.840;  -59.170;    0.000;5140.00984
 647.34; 5070.880;  -47.590;    0.000;5118.46988
 647.61; 5054.200;  -45.690;    0.000;5099.89019
 647.88; 5060.940;  -38.410;    0.000;5099.34994
 648.15; 5030.800;  -51.900;    0.000;5082.69981
 648.43; 4968.320;  -52.460;    0.000;5020.77982
 648.70; 4923.360;  -50.870;    0.000;4974.22986
 648.97; 4880.900;  -44.090;    0.000;4924.98990
 649.24; 4854.140;  -46.570;    0.000;4900.71014
 649.51; 4847.100;  -56.440;    0.000;4903.54010
 649.78; 4819.460;  -48.510;    0.000;4867.96996
 650.05; 4790.120;  -44.310;    0.000;4834.43012
 650.32; 4828.040;  -21.090;    0.000;4849.13004
 650.60; 4744.500;  -47.320;    0.000;4791.82000
 650.87; 4652.720;  -50.640;    0.000;4703.36021
 651.14; 4637.780;  -54.410;    0.000;4692.18979
 651.41; 4587.760;  -54.500;    0.000;4642.25977
 651.68; 4595.220;  -50.510;    0.000;4645.73021
 651.95; 4591.440;  -48.670;    0.000;4640.10994
 652.22; 4560.600;  -53.000;    0.000;4613.60010
 652.49; 4500.620;  -58.480;    0.000;4559.10012
 652.76; 4491.320;  -53.540;    0.000;4544.85983
 653.03; 4460.340;  -48.460;    0.000;4508.79984
 653.31; 4430.160;  -50.850;    0.000;4481.01015
 653.58; 4374.220;  -50.660;    0.000;4424.88021
 653.85; 4386.480;  -53.770;    0.000;4440.24998
 654.12; 4357.880;  -52.700;    0.000;4410.57988
 654.39; 4290.900;  -49.080;    0.000;4339.97990
 654.66; 4300.060;  -44.350;    0.000;4344.41006
 654.93; 4270.640;  -40.020;    0.000;4310.66014
 655.20; 4251.580;  -51.700;    0.000;4303.28008
 655.47; 4190.600;  -52.020;    0.000;4242.62010
 655.74; 4200.920;  -46.170;    0.000;4247.08992
 656.01; 4149.880;  -53.270;    0.000;4203.14988
 656.28; 4153.980;  -53.920;    0.000;4207.89998
 656.55; 4108.500;  -44.780;    0.000;4153.28000
 656.83; 4067.080;  -54.700;    0.000;4121.78008
 657.10; 4002.800;  -54.950;    0.000;4057.75005
 657.37; 4033.340;  -45.470;    0.000;4078.81009
 657.64; 3987.280;  -50.040;    0.000;4037.32003
 657.91; 3966.260;  -54.530;    0.000;4020.79001
 658.18; 3938.820;  -48.090;    0.000;3986.91007
 658.45; 3939.560;  -53.800;    0.000;3993.36006
 658.72; 3920.660;  -49.560;    0.000;3970.21991
 658.99; 3887.260;  -52.810;    0.000;3940.07001
 659.26; 3887.960;  -44.460;    0.000;3932.41996
 659.53; 3818.820;  -53.390;    0.000;3872.21007
 659.80; 3807.160;  -50.980;    0.000;3858.13991
 660.07; 3801.200;  -41.400;    0.000;3842.59995
 660.34; 3763.340;  -52.590;    0.000;3815.93009
 660.61; 3707.260;  -54.010;    0.000;3761.27001
 660.88; 3698.180;  -49.010;    0.000;3747.18993
 661.15; 3685.480;  -45.510;    0.000;3730.98998
 661.42; 3630.280;  -52.000;    0.000;3682.28003
 661.69; 3611.440;  -51.660;    0.000;3663.09994
 661.96; 3609.040;  -53.540;    0.000;3662.58004
 662.23; 3587.180;  -54.210;    0.000;3641.38993
 662.50; 3556.800;  -55.200;    0.000;3612.00005
 662.77; 3535.920;  -57.340;    0.000;3593.25992
 663.04; 3494.920;  -55.460;    0.000;3550.37992
 663.31; 3484.960;  -53.020;    0.000;3537.97996
 663.58; 3496.860;  -53.790;    0.000;3550.65011
 663.85; 3425.420;  -48.190;    0.000;3473.60992
 664.12; 3440.180;  -49.170;    0.000;3489.34993
 664.39; 3362.720;  -57.490;    0.000;3420.20997
 664.66; 3364.260;  -56.420;    0.000;3420.68001
 664.93; 3335.800;  -57.810;    0.000;3393.61005
 665.20; 3320.940;  -45.510;    0.000;3366.44994
 665.47; 3288.760;  -47.500;    0.000;3336.26001
 665.74; 3273.720;  -56.240;    0.000;3329.95997
 666.01; 3297.040;  -52.970;    0.000;3350.01004
 666.28; 3210.140;  -53.610;    0.000;3263.74989
 666.55; 3212.860;  -48.340;    0.000;3261.20011
 666.82; 3180.760;  -58.560;    0.000;3239.32001
 667.09; 3169.140;  -54.770;    0.000;3223.90989
 667.36; 3141.280;  -51.960;    0.000;3193.24003
 667.63; 3093.700;  -48.120;    0.000;3141.81995
 667.90; 3074.140;  -50.500;    0.000;3124.63989
 668.16; 3074.460;  -51.760;    0.000;3126.21996
 668.43; 3062.180;  -52.290;    0.000;3114.46993
 668.70; 3057.960;  -50.190;    0.000;3108.14996
 668.97; 3013.960;  -54.900;    0.000;3068.85996
 669.24; 3015.040;  -50.670;    0.000;3065.71004
 669.51; 2963.120;  -47.280;    0.000;3010.40012
 669.78; 2944.380;  -57.020;    0.000;3001.39988
 670.05; 2913.200;  -53.780;    0.000;2966.97995
 670.32; 2914.460;  -47.630;    0.000;2962.08996
 670.59; 2859.660;  -59.380;    0.000;2919.03991
 670.86; 2852.540;  -54.490;    0.000;2907.03004
 671.13; 2860.000;  -53.370;    0.000;2913.37000
 671.40; 2836.420;  -52.030;    0.000;2888.44992
 671.67; 2848.060;  -50.040;    0.000;2898.10006
 671.93; 2794.620;  -55.350;    0.000;2849.97012
 672.20; 2745.040;  -58.000;    0.000;2803.04004
 672.47; 2709.980;  -49.890;    0.000;2759.86998
 672.74; 2710.220;  -48.940;    0.000;2759.15997
 673.01; 2690.800;  -62.990;    0.000;2753.79005
 673.28; 2695.200;  -53.910;    0.000;2749.10995
 673.55; 2633.100;  -54.610;    0.000;2687.71010
 673.82; 2675.060;  -51.100;    0.000;2726.16006
 674.09; 2647.860;  -52.250;    0.000;2700.11011
 674.35; 2599.980;  -58.740;    0.000;2658.71998
 674.62; 2608.380;  -44.900;    0.000;2653.27988
 674.89; 2580.960;  -53.110;    0.000;2634.06996
 675.16; 2548.020;  -47.910;    0.000;2595.93002
 675.43; 2532.620;  -52.020;    0.000;2584.64012
 675.70; 2520.140;  -36.370;    0.000;2556.50989
 675.97; 2505.580;  -55.340;    0.000;2560.92008
 676.24; 2482.780;  -47.960;    0.000;2530.74003
 676.50; 2424.300;  -59.330;    0.000;2483.63005
 676.77; 2430.620;  -60.020;    0.000;2490.64012
 677.04; 2433.440;  -47.110;    0.000;2480.54994
 677.31; 2363.520;  -55.920;    0.000;2419.44002
 677.58; 2382.340;  -52.120;    0.000;2434.46009
 677.85; 2376.380;  -48.990;    0.000;2425.36988
 678.12; 2352.200;  -52.160;    0.000;2404.35995
 678.38; 2332.600;  -54.140;    0.000;2386.74010
 678.65; 2275.820;  -60.680;    0.000;2336.50007
 678.92; 2303.600;  -53.340;    0.000;2356.94010
 679.19; 2318.040;  -39.870;    0.000;2357.91004
 679.46; 2262.320;  -46.760;    0.000;2309.08007
 679.73; 2230.240;  -59.180;    0.000;2289.41999
 679.99; 2211.540;  -56.270;    0.000;2267.81004
 680.26; 2223.700;  -54.520;    0.000;2278.21995
 680.53; 2157.160;  -59.650;    0.000;2216.80991
 680.80; 2161.840;  -56.750;    0.000;2218.59009
 681.07; 2154.280;  -55.340;    0.000;2209.62003
 681.33; 2169.060;  -54.670;    0.000;2223.73006
 681.60; 2114.660;  -52.230;    0.000;2166.88991
 681.87; 2103.300;  -54.620;    0.000;2157.92005
 682.14; 2093.640;  -52.270;    0.000;2145.90989
 682.41; 2068.020;  -57.990;    0.000;2126.01002
 682.67; 2071.760;  -50.450;    0.000;2122.21001
 682.94; 2041.600;  -59.360;    0.000;2100.95998
 683.21; 2032.820;  -53.700;    0.000;2086.51995
 683.48; 2017.180;  -55.450;    0.000;2072.63005
 683.75; 2012.660;  -47.950;    0.000;2060.61003
 684.01; 1996.580;  -46.370;    0.000;2042.94995
 684.28; 1953.220;  -57.410;    0.000;2010.62997
 684.55; 1966.500;  -54.400;    0.000;2020.90000
 684.82; 1941.560;  -62.610;    0.000;2004.17006
 685.09; 1941.380;  -45.320;    0.000;1986.70000
 685.35; 1921.380;  -50.950;    0.000;1972.33001
 685.62; 1874.780;  -53.810;    0.000;1928.59003
 685.89; 1910.100;  -50.790;    0.000;1960.88998
 686.16; 1864.600;  -60.890;    0.000;1925.48997
 686.42; 1868.200;  -53.860;    0.000;1922.05995
 686.69; 1867.960;  -49.770;    0.000;1917.72996
 686.96; 1821.380;  -58.350;    0.000;1879.73000
 687.23; 1832.120;  -53.370;    0.000;1885.48999
 687.49; 1824.060;  -46.350;    0.000;1870.41006
 687.76; 1786.200;  -56.190;    0.000;1842.38995
 688.03; 1767.900;  -57.270;    0.000;1825.17002
 688.30; 1724.940;  -63.910;    0.000;1788.84994
 688.56; 1747.900;  -49.760;    0.000;1797.66002
 688.83; 1712.780;  -58.260;    0.000;1771.04003
 689.10; 1720.480;  -59.880;    0.000;1780.35998
 689.37; 1657.560;  -60.250;    0.000;1717.81006
 689.63; 1685.860;  -58.120;    0.000;1743.97998
 689.90; 1673.420;  -42.960;    0.000;1716.38004
 690.17; 1666.240;  -57.170;    0.000;1723.40999
 690.44; 1633.140;  -53.100;    0.000;1686.24001
 690.70; 1605.100;  -64.370;    0.000;1669.46998
 690.97; 1625.340;  -52.060;    0.000;1677.39997
 691.24; 1630.360;  -45.640;    0.000;1675.99998
 691.50; 1560.160;  -63.810;    0.000;1623.97004
 691.77; 1564.640;  -61.380;    0.000;1626.02002
 692.04; 1570.160;  -50.390;    0.000;1620.55003
 692.30; 1566.780;  -61.100;    0.000;1627.88003
 692.57; 1526.600;  -55.730;    0.000;1582.32998
 692.84; 1525.820;  -60.990;    0.000;1586.80995
 693.11; 1505.740;  -51.860;    0.000;1557.59999
 693.37; 1497.060;  -50.850;    0.000;1547.91006
 693.64; 1482.080;  -63.550;    0.000;1545.62996
 693.91; 1466.540;  -52.450;    0.000;1518.99004
 694.17; 1467.140;  -52.150;    0.000;1519.29002
 694.44; 1440.820;  -55.600;    0.000;1496.41994
 694.71; 1414.540;  -66.220;    0.000;1480.76004
 694.97; 1424.140;  -60.180;    0.000;1484.32001
 695.24; 1401.360;  -60.420;    0.000;1461.77998
 695.51; 1369.720;  -64.250;    0.000;1433.96997
 695.77; 1377.600;  -53.070;    0.000;1430.66998
 696.04; 1326.400;  -57.450;    0.000;1383.85003
 696.31; 1329.820;  -55.850;    0.000;1385.66994
 696.57; 1338.520;  -48.360;    0.000;1386.88002
 696.84; 1324.280;  -56.540;    0.000;1380.82003
 697.11; 1305.780;  -49.450;    0.000;1355.23003
 697.37; 1300.360;  -52.390;    0.000;1352.74998
 697.64; 1271.740;  -50.550;    0.000;1322.28999
 697.91; 1262.140;  -63.040;    0.000;1325.18002
 698.17; 1236.340;  -58.460;    0.000;1294.79996
 698.44; 1215.820;  -54.420;    0.000;1270.23994
 698.71; 1231.380;  -60.630;    0.000;1292.01001
 698.97; 1198.900;  -56.130;    0.000;1255.03003
 699.24; 1208.460;  -57.190;    0.000;1265.64996
 699.50; 1174.280;  -63.610;    0.000;1237.89003
 699.77; 1166.480;  -63.480;    0.000;1229.95998
 700.04; 1162.700;  -56.390;    0.000;1219.08995
 700.30; 1112.660;  -57.580;    0.000;1170.24004
 700.57; 1116.060;  -57.160;    0.000;1173.22006
 700.84; 1129.840;  -52.700;    0.000;1182.53997
 701.10; 1068.840;  -55.650;    0.000;1124.48997
 701.37; 1066.540;  -57.060;    0.000;1123.60004
 701.63; 1054.560;  -60.840;    0.000;1115.40006
 701.90; 1061.440;  -55.460;    0.000;1116.89994
 702.17; 1061.720;  -46.530;    0.000;1108.24997
 702.43; 1017.000;  -56.900;    0.000;1073.90000
 702.70; 1020.220;  -43.080;    0.000;1063.29997
 702.96;  975.400;  -57.550;    0.000;1032.95002
 703.23;  971.220;  -63.900;    0.000;1035.11997
 703.50;  960.540;  -57.740;    0.000;1018.27998
 703.76;  956.860;  -60.140;    0.000;1016.99998
 704.03;  943.380;  -62.000;    0.000;1005.38000
 704.29;  925.660;  -56.620;    0.000;982.27997
 704.56;  897.440;  -66.340;    0.000;963.78000
 704.82;  905.300;  -61.140;    0.000;966.43999
 705.09;  891.400;  -50.240;    0.000;941.64003
 705.36;  866.120;  -63.730;    0.000;929.84999
 705.62;  882.300;  -45.100;    0.000;927.39999
 705.89;  827.220;  -57.710;    0.000;884.92997
 706.15;  828.500;  -52.660;    0.000;881.16000
 706.42;  816.320;  -49.750;    0.000;866.07001
 706.68;  785.460;  -59.540;    0.000;845.00002
 706.95;  786.840;  -55.380;    0.000;842.22003
 707.21;  763.960;  -63.590;    0.000;827.55002
 707.48;  764.140;  -61.770;    0.000;825.91002
 707.75;  751.160;  -54.600;    0.000;805.75997
 708.01;  741.440;  -64.580;    0.000;806.02000
 708.28;  741.080;  -55.470;    0.000;796.55002
 708.54;  695.920;  -64.490;    0.000;760.40998
 708.81;  726.000;  -52.630;    0.000;778.63000
 709.07;  693.360;  -58.430;    0.000;751.78999
 709.34;  674.480;  -63.150;    0.000;737.62998
 709.60;  679.800;  -59.760;    0.000;739.55999
 709.87;  695.520;  -51.730;    0.000;747.25002
 710.13;  636.020;  -58.250;    0.000;694.27002
 710.40;  639.780;  -67.870;    0.000;707.65003
 710.66;  636.100;  -58.170;    0.000;694.26997
 710.93;  626.820;  -58.390;    0.000;685.21001
 711.19;  617.540;  -60.660;    0.000;678.19998
 711.46;  617.680;  -53.110;    0.000;670.78999
 711.72;  609.680;  -53.100;    0.000;662.77999
 711.99;  599.500;  -64.700;    0.000;664.20000
 712.25;  591.480;  -54.480;    0.000;645.95998
 712.52;  600.160;  -51.400;    0.000;651.55997
 712.78;  578.040;  -54.830;    0.000;632.86998
 713.05;  547.360;  -61.310;    0.000;608.66999
 713.31;  563.980;  -54.880;    0.000;618.85998
 713.58;  550.800;  -56.790;    0.000;607.58999
 713.84;  547.860;  -53.100;    0.000;600.95998
 714.11;  519.900;  -62.430;    0.000;582.33002
 714.37;  531.300;  -52.180;    0.000;583.47999
 714.64;  524.120;  -54.400;    0.000;578.52000
 714.90;  530.380;  -53.310;    0.000;583.69001
 715.17;  517.800;  -57.550;    0.000;575.34999
 715.43;  505.980;  -50.260;    0.000;556.24001
 715.70;  521.400;  -55.710;    0.000;577.11002
 715.96;  494.960;  -54.690;    0.000;549.64999
 716.22;  506.020;  -61.380;    0.000;567.39999
 716.49;  475.480;  -58.790;    0.000;534.27001
 716.75;  464.320;  -62.550;    0.000;526.87001
 717.02;  494.340;  -58.140;    0.000;552.48000
 717.28;  463.660;  -63.690;    0.000;527.35000
 717.55;  469.840;  -62.720;    0.000;532.56000
 717.81;  481.760;  -56.110;    0.000;537.87001
 718.08;  466.260;  -58.860;    0.000;525.12001
 718.34;  458.080;  -65.190;    0.000;523.26999
 718.60;  478.600;  -51.960;    0.000;530.56001
 718.87;  464.760;  -58.480;    0.000;523.24001
 719.13;  471.600;  -63.390;    0.000;534.99001
 719.40;  476.240;  -57.650;    0.000;533.88999
 719.66;  454.600;  -60.260;    0.000;514.86000
 719.93;  469.960;  -56.900;    0.000;526.85999
 720.19;  452.960;  -67.380;    0.000;520.33999
 720.45;  441.140;  -62.750;    0.000;503.89001
 720.72;  458.740;  -57.950;    0.000;516.68999
 720.98;  433.220;  -55.200;    0.000;488.42000
 721.25;  434.800;  -64.310;    0.000;499.10999
 721.51;  434.740;  -68.290;    0.000;503.02999
 721.77;  436.020;  -60.350;    0.000;496.36999
 722.04;  457.080;  -45.030;    0.000;502.10999
 722.30;  447.820;  -55.770;    0.000;503.59001
 722.57;  424.600;  -60.430;    0.000;485.03001
 722.83;  437.260;  -62.410;    0.000;499.67001
 723.09;  430.820;  -64.170;    0.000;494.99001
 723.36;  422.460;  -64.180;    0.000;486.63999
 723.62;  438.780;  -58.620;    0.000;497.40000
 723.88;  435.100;  -56.860;    0.000;491.96001
 724.15;  439.240;  -56.520;    0.000;495.75999
 724.41;  430.020;  -63.620;    0.000;493.63999
 724.68;  420.780;  -62.790;    0.000;483.57000
 724.94;  452.180;  -49.670;    0.000;501.84999
 725.20;  435.080;  -59.760;    0.000;494.83998
 725.47;  420.580;  -61.790;    0.000;482.36999
 725.73;  405.720;  -57.560;    0.000;463.28000
 725.99;  407.460;  -62.280;    0.000;469.73999
 726.26;  431.220;  -48.740;    0.000;479.96000
 726.52;  406.560;  -52.300;    0.000;458.86000
 726.78;  420.660;  -64.050;    0.000;484.71001
 727.05;  412.320;  -58.610;    0.000;470.93001
 727.31;  406.400;  -65.490;    0.000;471.88999
 727.57;  393.740;  -61.120;    0.000;454.85999
 727.84;  424.480;  -54.090;    0.000;478.57001
 728.10;  428.700;  -57.090;    0.000;485.79001
 728.36;  411.260;  -62.130;    0.000;473.39001
 728.63;  409.560;  -64.770;    0.000;474.32999
 728.89;  385.360;  -68.210;    0.000;453.56998
 729.15;  404.880;  -60.940;    0.000;465.82000
 729.42;  389.440;  -64.380;    0.000;453.82000
 729.68;  402.140;  -59.120;    0.000;461.26001
 729.94;  370.460;  -61.710;    0.000;432.16999
 730.21;  400.380;  -63.750;    0.000;464.13000
 730.47;  373.080;  -65.420;    0.000;438.49998
 730.73;  379.040;  -62.120;    0.000;441.16001
 731.00;  375.380;  -57.710;    0.000;433.09000
 731.26;  376.700;  -55.830;    0.000;432.53001
 731.52;  366.620;  -65.480;    0.000;432.10000
 731.78;  357.400;  -64.150;    0.000;421.55000
 732.05;  361.280;  -63.760;    0.000;425.04000
 732.31;  374.860;  -66.150;    0.000;441.00999
 732.57;  355.800;  -62.040;    0.000;417.83999
 732.84;  348.480;  -65.060;    0.000;413.54001
 733.10;  371.080;  -61.680;    0.000;432.75999
 733.36;  333.540;  -65.560;    0.000;399.10001
 733.62;  358.800;  -68.590;    0.000;427.38998
 733.89;  337.520;  -60.690;    0.000;398.20999
 734.15;  342.040;  -62.020;    0.000;404.06001
 734.41;  344.660;  -59.170;    0.000;403.83000
 734.67;  342.540;  -65.610;    0.000;408.15001
 734.94;  343.920;  -64.100;    0.000;408.02001
 735.20;  336.440;  -64.260;    0.000;400.70000
 735.46;  337.040;  -61.760;    0.000;398.80001
 735.73;  334.620;  -62.280;    0.000;396.89999
 735.99;  323.960;  -63.580;    0.000;387.53999
 736.25;  326.020;  -65.330;    0.000;391.34999
 736.51;  319.240;  -64.780;    0.000;384.01999
 736.77;  325.600;  -59.870;    0.000;385.47001
 737.04;  313.080;  -62.400;    0.000;375.47999
 737.30;  304.140;  -60.030;    0.000;364.17001
 737.56;  318.720;  -57.690;    0.000;376.41000
 737.82;  300.060;  -62.400;    0.000;362.46000
 738.09;  305.580;  -61.080;    0.000;366.65999
 738.35;  301.560;  -65.060;    0.000;366.62000
 738.61;  318.420;  -60.770;    0.000;379.19001
 738.87;  312.020;  -61.660;    0.000;373.67999
 739.14;  313.720;  -59.450;    0.000;373.17000
 739.40;  288.720;  -66.620;    0.000;355.34000
 739.66;  290.660;  -65.480;    0.000;356.14001
 739.92;  277.180;  -64.110;    0.000;341.28999
 740.18;  290.800;  -58.910;    0.000;349.70999
 740.45;  288.380;  -66.570;    0.000;354.95000
 740.71;  299.740;  -64.190;    0.000;363.92999
 740.97;  297.980;  -61.620;    0.000;359.60001
 741.23;  261.440;  -64.440;    0.000;325.88000
 741.49;  270.020;  -61.870;    0.000;331.88999
 741.76;  269.780;  -69.670;    0.000;339.45000
 742.02;  265.620;  -70.580;    0.000;336.20000
 742.28;  270.080;  -67.810;    0.000;337.88998
 742.54;  264.640;  -67.320;    0.000;331.96001
 742.80;  260.720;  -66.940;    0.000;327.66000
 743.06;  259.380;  -60.220;    0.000;319.60001
 743.33;  271.820;  -60.250;    0.000;332.07001
 743.59;  249.540;  -71.210;    0.000;320.74999
 743.85;  232.660;  -63.280;    0.000;295.94000
 744.11;  256.400;  -65.520;    0.000;321.91999
 744.37;  259.420;  -63.300;    0.000;322.72001
 744.63;  229.640;  -62.430;    0.000;292.07000
 744.90;  241.980;  -61.300;    0.000;303.27999
 745.16;  239.220;  -61.400;    0.000;300.62000
 745.42;  225.220;  -69.410;    0.000;294.63000
 745.68;  243.420;  -62.770;    0.000;306.19000
 745.94;  253.020;  -54.740;    0.000;307.76001
 746.20;  224.720;  -62.940;    0.000;287.66000
 746.46;  234.500;  -58.490;    0.000;292.99000
 746.72;  233.060;  -60.020;    0.000;293.08000
 746.99;  211.320;  -59.340;    0.000;270.66001
 747.25;  235.600;  -54.110;    0.000;289.71001
 747.51;  207.300;  -63.240;    0.000;270.54000
 747.77;  211.460;  -66.010;    0.000;277.47001
 748.03;  188.920;  -65.590;    0.000;254.50999
 748.29;  200.020;  -63.300;    0.000;263.32000
 748.55;  201.960;  -63.610;    0.000;265.57001
 748.81;  193.660;  -65.400;    0.000;259.06001
 749.08;  199.720;  -61.140;    0.000;260.86000
 749.34;  191.060;  -61.020;    0.000;252.08000
 749.60;  197.260;  -61.090;    0.000;258.34999
 749.86;  216.740;  -62.460;    0.000;279.20000
 750.12;  188.940;  -58.080;    0.000;247.02000
 750.38;  186.300;  -66.740;    0.000;253.04000
 750.64;  178.840;  -64.990;    0.000;243.82999
 750.90;  190.560;  -61.010;    0.000;251.57000
 751.16;  181.600;  -66.030;    0.000;247.63000
 751.42;  174.720;  -63.820;    0.000;238.54000
 751.68;  190.380;  -57.490;    0.000;247.87001
 751.95;  155.340;  -66.360;    0.000;221.70000
 752.21;  160.140;  -68.570;    0.000;228.71000
 752.47;  158.080;  -59.310;    0.000;217.39000
 752.73;  152.140;  -72.150;    0.000;224.29000
 752.99;  153.540;  -62.330;    0.000;215.87000
 753.25;  157.020;  -68.210;    0.000;225.23000
 753.51;  144.780;  -66.540;    0.000;211.32000
 753.77;  152.420;  -65.250;    0.000;217.67000
 754.03;  137.920;  -63.310;    0.000;201.23000
 754.29;  138.520;  -69.830;    0.000;208.35001
 754.55;  145.420;  -73.220;    0.000;218.64000
 754.81;  134.280;  -65.730;    0.000;200.01000
 755.07;  137.420;  -60.480;    0.000;197.90000
 755.33;  144.020;  -68.640;    0.000;212.66000
 755.59;  131.460;  -69.750;    0.000;201.21001
 755.85;  133.620;  -61.550;    0.000;195.16999
 756.11;  132.960;  -66.180;    0.000;199.14001
 756.37;  127.320;  -68.200;    0.000;195.52000
 756.63;  142.660;  -52.880;    0.000;195.54000
 756.89;  110.960;  -77.540;    0.000;188.50000
 757.15;  126.680;  -67.220;    0.000;193.90000
 757.41;  143.560;  -51.850;    0.000;195.41000
 757.68;  121.820;  -69.940;    0.000;191.76000
 757.94;  119.360;  -61.100;    0.000;180.46000
 758.20;  124.780;  -60.850;    0.000;185.63000
 758.46;  100.420;  -65.120;    0.000;165.54000
 758.72;  109.880;  -70.550;    0.000;180.43000
 758.98;  122.520;  -58.450;    0.000;180.97000
 759.24;  117.240;  -62.840;    0.000;180.08000
 759.50;  106.260;  -60.370;    0.000;166.63000
 759.76;  118.460;  -58.150;    0.000;176.61000
 760.02;  107.320;  -64.840;    0.000;172.16000
 760.27;  106.360;  -64.360;    0.000;170.72000
 760.53;  107.540;  -61.770;    0.000;169.31000
 760.79;  104.420;  -58.420;    0.000;162.84000
 761.05;  102.180;  -59.730;    0.000;161.91000
 761.31;  100.460;  -68.970;    0.000;169.43000
 761.57;  106.060;  -64.760;    0.000;170.82000
 761.83;   99.940;  -63.850;    0.000;163.79000
 762.09;   72.520;  -60.800;    0.000;133.32000
 762.35;   79.480;  -73.160;    0.000;152.64001
 762.61;   97.140;  -65.790;    0.000;162.93000
 762.87;   97.480;  -64.790;    0.000;162.27000
 763.13;   78.440;  -65.200;    0.000;143.64000
 763.39;  107.780;  -58.510;    0.000;166.29000
 763.65;   72.900;  -65.790;    0.000;138.69000
 763.91;   75.540;  -68.850;    0.000;144.39000
 764.17;   89.340;  -61.550;    0.000;150.89000
 764.43;   80.080;  -65.120;    0.000;145.20000
 764.69;   80.600;  -67.690;    0.000;148.29000
 764.95;   86.300;  -65.290;    0.000;151.59000
 765.21;   66.120;  -64.710;    0.000;130.83000
 765.47;   86.900;  -60.070;    0.000;146.97000
 765.73;   77.580;  -63.090;    0.000;140.67000
 765.98;   93.860;  -62.060;    0.000;155.92000
 766.24;   64.780;  -71.710;    0.000;136.49000
 766.50;   65.260;  -70.390;    0.000;135.65000
 766.76;   76.840;  -59.140;    0.000;135.98000
 767.02;   76.720;  -67.650;    0.000;144.37000
 767.28;   64.540;  -62.770;    0.000;127.31000
 767.54;   70.960;  -65.130;    0.000;136.09000
 767.80;   59.960;  -67.980;    0.000;127.94000
 768.06;   73.100;  -57.150;    0.000;130.25000
 768.32;   82.980;  -55.090;    0.000;138.07000
 768.58;   49.280;  -72.460;    0.000;121.74000
 768.83;   53.700;  -67.770;    0.000;121.47000
 769.09;   49.920;  -63.610;    0.000;113.53000
 769.35;   68.720;  -63.310;    0.000;132.03000
 769.61;   59.620;  -65.500;    0.000;125.12000
 769.87;   57.900;  -60.230;    0.000;118.13000
 770.13;   53.420;  -65.920;    0.000;119.34000
 770.39;   35.160;  -67.330;    0.000;102.49000
 770.65;   50.280;  -65.630;    0.000;115.91000
 770.90;   47.100;  -71.040;    0.000;118.14000
 771.16;   44.180;  -65.650;    0.000;109.83000
 771.42;   64.500;  -60.610;    0.000;125.11000
 771.68;   37.220;  -72.120;    0.000;109.34000
 771.94;   56.540;  -64.270;    0.000;120.81000
 772.20;   42.160;  -71.570;    0.000;113.73000
 772.46;   38.680;  -70.450;    0.000;109.13000
 772.71;   41.020;  -62.790;    0.000;103.81000
 772.97;   51.340;  -61.450;    0.000;112.79000
 773.23;   37.000;  -66.880;    0.000;103.88000
 773.49;   57.380;  -61.900;    0.000;119.28000
 773.75;   31.400;  -66.690;    0.000;98.09000
 774.01;   23.360;  -66.730;    0.000;90.09000
 774.26;   29.880;  -70.110;    0.000;99.99000
 774.52;   56.660;  -57.630;    0.000;114.29000
 774.78;   30.980;  -67.870;    0.000;98.85000
 775.04;   58.340;  -57.380;    0.000;115.72000
 775.30;   30.840;  -70.620;    0.000;101.46000
 775.56;   27.520;  -62.130;    0.000;89.65000
 775.81;   37.460;  -62.360;    0.000;99.82000
 776.07;   29.720;  -63.320;    0.000;93.04000
 776.33;   26.700;  -66.810;    0.000;93.51000
 776.59;   29.500;  -72.310;    0.000;101.81000
 776.85;   28.820;  -72.330;    0.000;101.15000
 777.10;   40.640;  -66.910;    0.000;107.55000
 777.36;   14.080;  -70.350;    0.000;84.43000
 777.62;   37.220;  -66.270;    0.000;103.49000
 777.88;   14.700;  -66.450;    0.000;81.15000
 778.14;   28.000;  -67.860;    0.000;95.86000
 778.39;   27.640;  -69.450;    0.000;97.09000
 778.65;   27.400;  -66.470;    0.000;93.87000
 778.91;   29.080;  -72.700;    0.000;101.78000
 779.17;   34.980;  -59.560;    0.000;94.54000
 779.42;   18.620;  -73.390;    0.000;92.01000
 779.68;   15.020;  -69.660;    0.000;84.68000
 779.94;   22.860;  -68.700;    0.000;91.56000
 780.20;   18.520;  -73.010;    0.000;91.53000
 780.46;   14.620;  -73.730;    0.000;88.35000
 780.71;   29.760;  -65.500;    0.000;95.26000
 780.97;   27.540;  -67.720;    0.000;95.26000
 781.23;   18.600;  -68.470;    0.000;87.07000
 781.49;   16.000;  -65.070;    0.000;81.07000
 781.74;    4.020;  -62.670;    0.000;66.69000
 782.00;    9.260;  -71.050;    0.000;80.31000
 782.26;   15.300;  -61.940;    0.000;77.24000
 782.52;   13.060;  -67.400;    0.000;80.46000
 782.77;   12.240;  -63.130;    0.000;75.37000
 783.03;    7.980;  -72.070;    0.000;80.05000
 783.29;    2.900;  -67.470;    0.000;70.37000
 783.54;    9.220;  -69.510;    0.000;78.73000
 783.80;   25.620;  -61.520;    0.000;87.14000
 784.06;   18.820;  -72.390;    0.000;91.21000
 784.32;   -0.360;  -69.850;    0.000;69.49000
 784.57;   35.840;  -57.390;    0.000;93.23000
 784.83;   -7.560;  -75.500;    0.000;67.94000
 785.09;    0.260;  -75.670;    0.000;75.93000
 785.34;    4.080;  -67.830;    0.000;71.91000
 785.60;   21.520;  -68.990;    0.000;90.51000
 785.86;    5.840;  -65.770;    0.000;71.61000
 786.12;   17.960;  -64.000;    0.000;81.96000
 786.37;   23.800;  -58.590;    0.000;82.39000
 786.63;  -17.620;  -70.160;    0.000;52.54000
 786.89;    8.480;  -64.130;    0.000;72.61000
 787.14;   25.280;  -68.600;    0.000;93.88000
 787.40;    3.220;  -65.120;    0.000;68.34000
 787.66;    3.100;  -69.570;    0.000;72.67000
 787.91;   23.200;  -54.980;    0.000;78.18000
 788.17;   -2.560;  -74.240;    0.000;71.68000
 788.43;  -11.280;  -65.670;    0.000;54.39000
 788.68;  -22.880;  -66.800;    0.000;43.92000
 788.94;    5.460;  -64.460;    0.000;69.92000
 789.20;   -6.300;  -67.690;    0.000;61.39000
 789.45;  -20.780;  -75.860;    0.000;55.08000
 789.71;  -12.120;  -77.270;    0.000;65.15000
 789.97;   13.160;  -62.650;    0.000;75.81000
 790.22;   -6.900;  -70.660;    0.000;63.76000
 790.48;   -4.120;  -66.280;    0.000;62.16000
 790.74;   -8.060;  -69.070;    0.000;61.01000
 790.99;   -0.700;  -67.310;    0.000;66.61000
 791.25;   -5.000;  -72.320;    0.000;67.32000
 791.51;  -12.640;  -69.110;    0.000;56.47000
 791.76;   12.920;  -60.800;    0.000;73.72000
 792.02;  -16.180;  -69.930;    0.000;53.75000
 792.27;    3.940;  -63.120;    0.000;67.06000
 792.53;   -8.860;  -67.640;    0.000;58.78000
 792.79;  -14.640;  -74.900;    0.000;60.26000
 793.04;  -15.540;  -66.410;    0.000;50.87000
 793.30;  -25.260;  -72.290;    0.000;47.03000
 793.56;  -11.340;  -64.850;    0.000;53.51000
 793.81;    4.380;  -64.930;    0.000;69.31000
 794.07;  -20.720;  -78.310;    0.000;57.59000
 794.32;  -15.080;  -65.850;    0.000;50.77000
 794.58;  -12.760;  -64.290;    0.000;51.53000
 794.84;  -21.900;  -73.370;    0.000;51.47000
 795.09;   -2.280;  -63.290;    0.000;61.01000
 795.35;    3.820;  -68.300;    0.000;72.12000
 795.60;   -3.880;  -67.650;    0.000;63.77000
 795.86;  -19.720;  -68.830;    0.000;49.11000
 796.12;  -24.540;  -75.900;    0.000;51.36000
 796.37;  -14.300;  -66.550;    0.000;52.25000
 796.63;   -7.620;  -68.700;    0.000;61.08000
 796.88;  -19.080;  -72.950;    0.000;53.87000
 797.14;   -7.920;  -65.230;    0.000;57.31000
 797.39;   -9.260;  -61.460;    0.000;52.20000
 797.65;  -10.160;  -68.500;    0.000;58.34000
 797.91;  -15.380;  -79.560;    0.000;64.18000
 798.16;  -15.560;  -69.310;    0.000;53.75000
 798.42;  -24.660;  -73.060;    0.000;48.40000
 798.67;  -27.860;  -75.160;    0.000;47.30000
 798.93;  -26.040;  -72.820;    0.000;46.78000
 799.18;  -25.800;  -69.660;    0.000;43.86000
 799.44;  -32.520;  -74.410;    0.000;41.89000
 799.69;  -32.280;  -72.570;    0.000;40.29000
 799.95;  -21.820;  -76.750;    0.000;54.93000
 800.21;  -32.160;  -71.490;    0.000;39.33000
 800.46;    1.780;  -60.670;    0.000;62.45000
 800.72;  -31.140;  -74.550;    0.000;43.41000
 800.97;  -20.060;  -66.080;    0.000;46.02000
 801.23;  -22.840;  -69.050;    0.000;46.21000
 801.48;  -39.400;  -80.230;    0.000;40.83000
 801.74;  -17.420;  -70.650;    0.000;53.23000
 801.99;  -16.940;  -69.570;    0.000;52.63000
 802.25;  -22.120;  -68.120;    0.000;46.00000
 802.50;  -21.780;  -69.760;    0.000;47.98000
 802.76;  -13.880;  -68.390;    0.000;54.51000
 803.01;  -31.040;  -73.710;    0.000;42.67000
 803.27;  -31.540;  -68.660;    0.000;37.12000
 803.52;  -30.060;  -67.380;    0.000;37.32000
 803.78;  -22.080;  -65.800;    0.000;43.72000
 804.03;  -22.580;  -64.730;    0.000;42.15000
 804.29;  -38.580;  -73.690;    0.000;35.11000
 804.54;  -20.200;  -72.140;    0.000;51.94000
 804.80;  -51.880;  -70.710;    0.000;18.83000
 805.05;  -40.060;  -78.700;    0.000;38.64000
 805.31;  -18.180;  -64.860;    0.000;46.68000
 805.56;  -12.140;  -61.820;    0.000;49.68000
 805.82;  -39.100;  -75.510;    0.000;36.41000
 806.07;  -25.220;  -71.590;    0.000;46.37000
 806.33;  -28.780;  -63.430;    0.000;34.65000
 806.58;  -42.980;  -76.420;    0.000;33.44000
 806.84;  -31.800;  -67.110;    0.000;35.31000
 807.09;  -27.580;  -70.810;    0.000;43.23000
 807.34;  -32.540;  -71.760;    0.000;39.22000
 807.60;  -27.980;  -72.510;    0.000;44.53000
 807.85;  -11.820;  -66.100;    0.000;54.28000
 808.11;  -46.760;  -65.900;    0.000;19.14000
 808.36;  -15.200;  -56.490;    0.000;41.29000
 808.62;  -30.200;  -69.320;    0.000;39.12000
 808.87;  -18.180;  -69.730;    0.000;51.55000
 809.13;  -39.980;  -72.860;    0.000;32.88000
 809.38;  -16.780;  -63.580;    0.000;46.80000
 809.63;  -35.840;  -74.820;    0.000;38.98000
 809.89;  -26.460;  -65.740;    0.000;39.28000
 810.14;  -33.600;  -75.130;    0.000;41.53000
 810.40;  -22.600;  -66.270;    0.000;43.67000
 810.65;  -25.800;  -71.440;    0.000;45.64000
 810.91;  -45.360;  -76.930;    0.000;31.57000
 811.16;  -19.980;  -65.800;    0.000;45.82000
 811.41;  -23.980;  -58.080;    0.000;34.10000
 811.67;  -35.560;  -71.200;    0.000;35.64000
 811.92;  -24.740;  -67.900;    0.000;43.16000
 812.18;  -25.560;  -70.620;    0.000;45.06000
 812.43;  -28.760;  -69.170;    0.000;40.41000
 812.68;  -25.520;  -72.250;    0.000;46.73000
 812.94;  -39.460;  -70.010;    0.000;30.55000
 813.19;  -34.100;  -73.690;    0.000;39.59000
 813.45;    3.340;  -54.460;    0.000;57.80000
 813.70;  -32.900;  -73.310;    0.000;40.41000
 813.95;  -39.120;  -69.970;    0.000;30.85000
 814.21;  -27.540;  -72.990;    0.000;45.45000
 814.46;  -28.160;  -66.200;    0.000;38.04000
 814.71;  -47.100;  -77.220;    0.000;30.12000
 814.97;  -42.320;  -71.610;    0.000;29.29000
 815.22;  -44.180;  -73.660;    0.000;29.48000
 815.48;  -42.580;  -74.930;    0.000;32.35000
 815.73;  -39.580;  -70.320;    0.000;30.74000
 815.98;  -43.460;  -72.260;    0.000;28.80000
 816.24;  -44.220;  -73.690;    0.000;29.47000
 816.49;  -29.900;  -67.570;    0.000;37.67000
 816.74;  -35.580;  -66.060;    0.000;30.48000
 817.00;  -20.520;  -65.110;    0.000;44.59000
 817.25;  -38.280;  -64.360;    0.000;26.08000
 817.50;  -38.780;  -71.190;    0.000;32.41000
 817.76;  -46.820;  -73.870;    0.000;27.05000
 818.01;  -43.540;  -74.140;    0.000;30.60000
 818.26;  -42.300;  -77.660;    0.000;35.36000
 818.52;  -39.440;  -71.160;    0.000;31.72001
 818.77;  -42.340;  -70.450;    0.000;28.11000
 819.02;  130.080;   -1.560;    0.000;131.64000
 819.28;  -43.880;  -76.850;    0.000;32.97000
 819.53;  -46.680;  -76.810;    0.000;30.13000
 819.78;  -36.800;  -71.320;    0.000;34.52000
 820.04;  -32.480;  -76.120;    0.000;43.64000
 820.29;  -34.300;  -69.520;    0.000;35.22000
 820.54;  -40.280;  -71.830;    0.000;31.55000
 820.79;  -25.620;  -68.430;    0.000;42.81000
 821.05;  -53.300;  -73.180;    0.000;19.88000
 821.30;  -18.860;  -60.740;    0.000;41.88000
 821.55;  -29.220;  -56.870;    0.000;27.65000
 821.81;  -46.440;  -72.250;    0.000;25.81000
 822.06;  -40.100;  -64.240;    0.000;24.14000
 822.31;  -22.520;  -64.090;    0.000;41.57000
 822.56;  -48.800;  -71.570;    0.000;22.77000
 822.82;  -45.500;  -74.760;    0.000;29.26000
 823.07;  -56.820;  -77.000;    0.000;20.18000
 823.32;  -55.980;  -86.470;    0.000;30.49000
 823.58;  -42.200;  -70.830;    0.000;28.63000
 823.83;  -48.920;  -68.440;    0.000;19.52000
 824.08;  -46.160;  -68.700;    0.000;22.54000
 824.33;  -50.720;  -78.080;    0.000;27.36000
 824.59;  -53.880;  -75.110;    0.000;21.23000
 824.84;  -54.240;  -73.820;    0.000;19.58000
 825.09;  -42.480;  -71.350;    0.000;28.87000
 825.34;  -45.320;  -78.610;    0.000;33.29000
 825.60;  -45.740;  -76.840;    0.000;31.09999
 825.85;  -59.860;  -72.800;    0.000;12.94000
 826.10;  -61.540;  -75.820;    0.000;14.28000
 826.35;  -50.940;  -78.380;    0.000;27.44000
 826.61;  -54.900;  -69.170;    0.000;14.27000
 826.86;  -53.620;  -74.300;    0.000;20.68000
 827.11;  -49.780;  -73.210;    0.000;23.43000
 827.36;  -50.060;  -79.440;    0.000;29.38000
 827.61;  -60.100;  -77.970;    0.000;17.87000
 827.87;  -42.300;  -73.890;    0.000;31.59000
 828.12;  -50.180;  -78.790;    0.000;28.61000
 828.37;  -44.720;  -76.470;    0.000;31.75000
 828.62;  -44.520;  -66.780;    0.000;22.26000
 828.88;  -26.980;  -68.950;    0.000;41.97000
 829.13;  -46.280;  -65.460;    0.000;19.18000
 829.38;  -50.300;  -74.310;    0.000;24.01000
 829.63;  -51.520;  -76.380;    0.000;24.86000
 829.88;  -54.400;  -77.840;    0.000;23.43999
 830.14;  -57.500;  -68.400;    0.000;10.90000
 830.39;  -37.920;  -67.150;    0.000;29.23000
 830.64;  -54.780;  -73.500;    0.000;18.72000
 830.89;  -43.760;  -63.930;    0.000;20.17000
 831.14;  -50.400;  -65.130;    0.000;14.73000
 831.39;  -66.340;  -80.200;    0.000;13.86000
 831.65;  -65.440;  -73.680;    0.000; 8.24000
 831.90;  -55.160;  -76.450;    0.000;21.29000
 832.15;  -37.380;  -74.460;    0.000;37.08000
 832.40;  -48.520;  -71.070;    0.000;22.55000
 832.65;  -52.820;  -65.920;    0.000;13.10000
 832.90;  -63.600;  -71.420;    0.000; 7.82000
 833.16;  -52.660;  -70.920;    0.000;18.26000
 833.41;  -54.360;  -68.270;    0.000;13.91000
 833.66;  -53.980;  -80.480;    0.000;26.50000
 833.91;  -58.140;  -69.470;    0.000;11.33000
 834.16;  -59.320;  -74.480;    0.000;15.16000
 834.41;  -61.880;  -78.330;    0.000;16.45000
 834.66;  -53.900;  -73.780;    0.000;19.88000
 834.92;  -56.820;  -76.420;    0.000;19.60000
 835.17;  -57.800;  -79.700;    0.000;21.90000
 835.42;  -57.080;  -74.750;    0.000;17.67000
 835.67;  -41.740;  -67.620;    0.000;25.88000
 835.92;  -61.360;  -76.180;    0.000;14.82000
 836.17;  -69.640;  -73.070;    0.000; 3.43000
 836.42;  -66.100;  -80.720;    0.000;14.62000
 836.67;  -69.620;  -72.910;    0.000; 3.29000
 836.93;  -51.600;  -67.370;    0.000;15.77000
 837.18;  -45.820;  -68.480;    0.000;22.66000
 837.43;  -66.320;  -77.570;    0.000;11.25000
 837.68;  -59.220;  -75.250;    0.000;16.03000
 837.93;  -60.040;  -77.620;    0.000;17.58000
 838.18;  -62.240;  -72.720;    0.000;10.48000
 838.43;  -67.260;  -77.330;    0.000;10.07000
 838.68;  -54.400;  -75.400;    0.000;21.00000
 838.93;  -63.140;  -76.840;    0.000;13.70000
 839.18;  -43.080;  -68.870;    0.000;25.79000
 839.43;  -52.760;  -68.920;    0.000;16.16000
 839.69;  -64.500;  -75.200;    0.000;10.70000
 839.94;  -70.660;  -75.060;    0.000; 4.39999
 840.19;  -61.100;  -64.900;    0.000; 3.80000
 840.44;  -39.300;  -74.590;    0.000;35.29000
 840.69;  -57.740;  -67.680;    0.000; 9.94000
 840.94;  -46.860;  -78.800;    0.000;31.94000
 841.19;  -51.340;  -66.410;    0.000;15.07000
 841.44;  -54.840;  -70.390;    0.000;15.55000
 841.69;  -39.700;  -69.710;    0.000;30.01000
 841.94;  -67.480;  -72.650;    0.000; 5.17000
 842.19;  -69.960;  -74.280;    0.000; 4.32000
 842.44;  -65.880;  -72.650;    0.000; 6.77000
 842.69;  -63.540;  -68.330;    0.000; 4.79000
 842.94;  -63.980;  -71.610;    0.000; 7.63000
 843.19;  -69.960;  -78.190;    0.000; 8.23000
 843.44;  -69.860;  -74.710;    0.000; 4.85000
 843.69;  -63.900;  -76.520;    0.000;12.62000
 843.94;   15.280;  -44.550;    0.000;59.83000
 844.19;  -61.060;  -77.910;    0.000;16.85000
 844.44;  -50.860;  -71.510;    0.000;20.65000
 844.69;  -66.720;  -73.310;    0.000; 6.59000
 844.95;  -56.120;  -74.630;    0.000;18.51000
 845.20;  -75.980;  -82.130;    0.000; 6.14999
 845.45;  -39.780;  -68.000;    0.000;28.22000
 845.70;  -64.080;  -72.870;    0.000; 8.79000
 845.95;  -60.040;  -74.560;    0.000;14.52000
 846.20;  -67.420;  -71.730;    0.000; 4.31001
 846.45;  -67.360;  -77.390;    0.000;10.03000
 846.70;  -54.780;  -65.790;    0.000;11.01000
 846.95;  -67.980;  -75.980;    0.000; 8.00000
 847.20;  -64.460;  -73.000;    0.000; 8.54000
 847.44;  -33.300;  -61.130;    0.000;27.83000
 847.69;  -74.220;  -79.180;    0.000; 4.96000
 847.94;  -55.140;  -71.950;    0.000;16.81000
 848.19;  -64.880;  -73.590;    0.000; 8.71000
 848.44;  -58.980;  -70.960;    0.000;11.98000
 848.69;  -70.900;  -73.670;    0.000; 2.77000
 848.94;  -59.160;  -69.750;    0.000;10.59000
 849.19;  -68.300;  -80.480;    0.000;12.18000
 849.44;  -65.880;  -73.190;    0.000; 7.31001
 849.69;  -61.340;  -78.510;    0.000;17.17000
 849.94;  -68.960;  -72.940;    0.000; 3.98000
 850.19;  -68.300;  -63.930;    0.000;-4.37000
 850.44;  -59.220;  -76.610;    0.000;17.39000
 850.69;  -77.660;  -69.690;    0.000;-7.97000
 850.94;  -72.500;  -77.600;    0.000; 5.10000
 851.19;  -72.580;  -72.230;    0.000;-0.35000
 851.44;  -61.500;  -76.080;    0.000;14.58000
 851.69;  -79.620;  -76.040;    0.000;-3.58000
 851.94;  -57.560;  -79.190;    0.000;21.63000
 852.19;  -60.240;  -76.300;    0.000;16.06000
 852.44;  -66.720;  -74.760;    0.000; 8.04000
 852.68;  -70.440;  -75.620;    0.000; 5.18000
 852.93;  -55.080;  -70.590;    0.000;15.50999
 853.18;  -67.500;  -77.250;    0.000; 9.75000
 853.43;  -68.720;  -76.120;    0.000; 7.40000
 853.68;  -64.720;  -77.810;    0.000;13.09000
 853.93;  -56.960;  -67.550;    0.000;10.59000
 854.18;  -51.940;  -66.630;    0.000;14.69000
 854.43;  -55.960;  -77.970;    0.000;22.01000
 854.68;  -78.820;  -75.490;    0.000;-3.33000
 854.93;  -47.100;  -66.450;    0.000;19.35000
 855.18;  -59.680;  -74.650;    0.000;14.97000
 855.42;  -57.300;  -72.230;    0.000;14.93000
 855.67;  -66.520;  -71.310;    0.000; 4.79000
 855.92;  -64.200;  -74.510;    0.000;10.31001
 856.17;  -62.440;  -67.440;    0.000; 5.00000
 856.42;  -62.520;  -76.160;    0.000;13.64000
 856.67;  -65.180;  -77.970;    0.000;12.79000
 856.92;  -64.240;  -79.620;    0.000;15.38000
 857.17;  -75.700;  -77.870;    0.000; 2.17001
 857.41;  -61.380;  -71.030;    0.000; 9.65000
 857.66;  -68.560;  -73.290;    0.000; 4.73000
 857.91;  -59.540;  -73.290;    0.000;13.75000
 858.16;  -75.900;  -82.520;    0.000; 6.62000
 858.41;  -61.280;  -72.320;    0.000;11.04000
 858.66;  -57.200;  -69.160;    0.000;11.96000
 858.91;  -56.760;  -77.930;    0.000;21.17000
 859.15;  -76.660;  -76.870;    0.000; 0.21000
 859.40;  -40.420;  -68.270;    0.000;27.85000
 859.65;  -71.200;  -84.460;    0.000;13.26000
 859.90;  -71.640;  -79.390;    0.000; 7.75000
 860.15;  -64.320;  -69.890;    0.000; 5.57000
 860.40;  -53.280;  -69.890;    0.000;16.61000
 860.64;  -56.540;  -70.370;    0.000;13.83000
 860.89;  -76.000;  -74.750;    0.000;-1.25000
 861.14;  -67.520;  -70.090;    0.000; 2.57000
 861.39;  -58.520;  -69.870;    0.000;11.35000
 861.64;  -68.000;  -75.520;    0.000; 7.52000
 861.88;  -51.800;  -72.380;    0.000;20.58000
 862.13;  -56.200;  -76.230;    0.000;20.03000
 862.38;  -65.960;  -72.450;    0.000; 6.49000
 862.63;  -76.280;  -74.260;    0.000;-2.02000
 862.88;  -64.320;  -69.530;    0.000; 5.21000
 863.12;  -58.700;  -67.960;    0.000; 9.26000
 863.37;  -65.920;  -71.990;    0.000; 6.07000
 863.62;  -66.780;  -77.420;    0.000;10.64000
 863.87;  -73.400;  -78.180;    0.000; 4.78000
 864.12;  -61.840;  -73.600;    0.000;11.76000
 864.36;  -66.540;  -69.580;    0.000; 3.04000
 864.61;  -57.200;  -73.260;    0.000;16.06000
 864.86;  -61.820;  -78.780;    0.000;16.96000
 865.11;  -49.100;  -68.440;    0.000;19.34000
 865.35;  -64.900;  -68.810;    0.000; 3.91000
 865.60;  -61.240;  -71.930;    0.000;10.69000
 865.85;  -50.240;  -72.600;    0.000;22.36000
 866.10;  -71.840;  -75.090;    0.000; 3.25000
 866.34;  -72.120;  -74.150;    0.000; 2.03000
 866.59;  -51.140;  -67.290;    0.000;16.15000
 866.84;  -61.260;  -74.630;    0.000;13.37000
 867.09;  -69.300;  -80.380;    0.000;11.07999
 867.33;  -76.880;  -74.040;    0.000;-2.84000
 867.58;  -66.300;  -71.470;    0.000; 5.17000
 867.83;  -71.560;  -74.280;    0.000; 2.72000
 868.08;  -53.020;  -76.090;    0.000;23.07000
 868.32;  -63.480;  -68.010;    0.000; 4.53000
 868.57;  -70.360;  -81.500;    0.000;11.14000
 868.82;  -54.760;  -72.920;    0.000;18.16000
 869.07;  -81.600;  -81.160;    0.000;-0.43999
 869.31;  -62.620;  -69.490;    0.000; 6.87000
 869.56;  -74.980;  -84.440;    0.000; 9.46000
 869.81;  -70.160;  -83.050;    0.000;12.89000
 870.05;  -72.460;  -79.990;    0.000; 7.53000
 870.30;  -51.100;  -76.070;    0.000;24.97000
 870.55;  -52.900;  -69.170;    0.000;16.27000
 870.80;  -59.780;  -74.860;    0.000;15.08000
 871.04;  -57.880;  -69.280;    0.000;11.40000
 871.29;  -66.540;  -73.970;    0.000; 7.43000
 871.54;  -57.800;  -72.650;    0.000;14.85000
 871.78;  -76.240;  -75.650;    0.000;-0.59000
 872.03;  -67.640;  -76.460;    0.000; 8.82000
 872.28;  -63.900;  -75.610;    0.000;11.71000
 872.52;  -69.240;  -63.940;    0.000;-5.30000
 872.77;  -68.500;  -68.280;    0.000;-0.22000
 873.02;  -74.500;  -78.210;    0.000; 3.71000
 873.26;  -68.620;  -75.910;    0.000; 7.29000
 873.51;  -55.880;  -67.060;    0.000;11.18000
 873.76;  -61.380;  -69.910;    0.000; 8.53000
 874.00;  -48.940;  -67.690;    0.000;18.75000
 874.25;  -71.100;  -75.800;    0.000; 4.70000
 874.50;  -68.100;  -80.100;    0.000;12.00000
 874.74;  -72.540;  -73.380;    0.000; 0.84000
 874.99;  -66.920;  -77.690;    0.000;10.77000
 875.24;  -49.560;  -71.860;    0.000;22.30000
 875.48;  -57.980;  -75.510;    0.000;17.53000
 875.73;  -63.440;  -71.020;    0.000; 7.58000
 875.98;  -72.720;  -72.290;    0.000;-0.43000
 876.22;  -61.840;  -74.020;    0.000;12.18000
 876.47;  -55.560;  -73.180;    0.000;17.62000
 876.71;  -57.920;  -66.650;    0.000; 8.73000
 876.96;  -38.280;  -68.040;    0.000;29.76000
 877.21;  -62.080;  -80.560;    0.000;18.48000
 877.45;  -71.920;  -79.740;    0.000; 7.82000
 877.70;  -57.580;  -68.150;    0.000;10.57000
 877.95;  -51.860;  -71.420;    0.000;19.56000
 878.19;  -35.500;  -66.290;    0.000;30.79000
 878.44;  -64.660;  -73.630;    0.000; 8.96999
 878.68;  -30.020;  -58.820;    0.000;28.80000
 878.93;  -51.880;  -67.350;    0.000;15.47000
 879.18;  -54.520;  -71.350;    0.000;16.83000
 879.42;  -48.300;  -70.170;    0.000;21.87000
 879.67;  -62.700;  -73.850;    0.000;11.15000
 879.91;  -52.860;  -67.960;    0.000;15.10000
 880.16;  -50.760;  -78.060;    0.000;27.30000
 880.40;  -60.000;  -65.360;    0.000; 5.36000
 880.65;  -57.780;  -71.790;    0.000;14.01000
 880.90;  -61.420;  -69.720;    0.000; 8.30000
 881.14;  -46.840;  -65.060;    0.000;18.22000
 881.39;  -64.940;  -72.620;    0.000; 7.68000
 881.63;  -53.660;  -68.980;    0.000;15.32000
 881.88;  -48.820;  -70.790;    0.000;21.97000
 882.12;  -52.240;  -76.190;    0.000;23.95000
 882.37;  -49.940;  -72.930;    0.000;22.99000
 882.62;  -70.920;  -70.810;    0.000;-0.11000
 882.86;  -61.180;  -75.020;    0.000;13.84000
 883.11;  -51.780;  -74.980;    0.000;23.20000
 883.35;  -49.720;  -71.230;    0.000;21.51000
 883.60;  -33.780;  -67.200;    0.000;33.42000
 883.84;  -50.140;  -73.170;    0.000;23.03000
 884.09;  -51.440;  -72.690;    0.000;21.25000
 884.33;  -62.800;  -71.050;    0.000; 8.25000
 884.58;  -54.860;  -70.670;    0.000;15.81000
 884.82;  -49.700;  -73.840;    0.000;24.14000
 885.07;  -51.380;  -75.950;    0.000;24.57000
 885.31;  -56.160;  -74.400;    0.000;18.24000
 885.56;  -39.140;  -65.280;    0.000;26.14000
 885.80;  -53.840;  -79.420;    0.000;25.58000
 886.05;  -55.680;  -70.300;    0.000;14.62000
 886.29;  -46.280;  -61.930;    0.000;15.65000
 886.54;  -55.000;  -68.310;    0.000;13.31000
 886.78;  -39.260;  -71.060;    0.000;31.80000
 887.03;  -43.880;  -67.810;    0.000;23.93000
 887.27;  -22.800;  -61.920;    0.000;39.12000
 887.52;  -45.020;  -70.160;    0.000;25.14000
 887.76;  -42.900;  -70.980;    0.000;28.08000
 888.01;  -54.140;  -70.270;    0.000;16.13000
 888.25;  -56.600;  -74.180;    0.000;17.58000
 888.50;  -39.600;  -70.460;    0.000;30.86000
 888.74;  -40.860;  -65.070;    0.000;24.21000
 888.99;  -45.280;  -75.410;    0.000;30.13000
 889.23;  -33.020;  -73.760;    0.000;40.74000
 889.48;  -54.120;  -67.050;    0.000;12.93000
 889.72;  -29.760;  -61.140;    0.000;31.38000
 889.97;  -37.560;  -67.890;    0.000;30.33000
 890.21;  -47.040;  -71.660;    0.000;24.62000
 890.46;  -40.100;  -67.310;    0.000;27.21000
 890.70;  -49.320;  -66.540;    0.000;17.22000
 890.94;  -48.680;  -66.690;    0.000;18.01000
 891.19;  -42.800;  -67.720;    0.000;24.92000
 891.43;  -35.360;  -60.230;    0.000;24.87000
 891.68;  -15.320;  -60.880;    0.000;45.56000
 891.92;  -31.240;  -66.740;    0.000;35.50000
 892.17;  -27.560;  -63.670;    0.000;36.11000
 892.41;  -27.720;  -64.550;    0.000;36.83000
 892.66;  -53.340;  -72.780;    0.000;19.44000
 892.90;   -9.760;  -53.850;    0.000;44.09000
 893.14;  -37.040;  -67.700;    0.000;30.66000
 893.39;  -32.300;  -61.520;    0.000;29.22000
 893.63;  -39.880;  -66.090;    0.000;26.21000
 893.88;  -35.860;  -64.750;    0.000;28.89000
 894.12;  -29.140;  -60.690;    0.000;31.55000
 894.36;  -19.320;  -52.460;    0.000;33.14000
 894.61;  -28.080;  -59.430;    0.000;31.35000
 894.85;  -29.900;  -59.970;    0.000;30.07000
 895.10;  -20.780;  -64.360;    0.000;43.58000
 895.34;  -31.700;  -59.380;    0.000;27.68000
 895.58;  -31.180;  -69.260;    0.000;38.08000
 895.83;  -30.140;  -62.800;    0.000;32.66000
 896.07;  -29.580;  -66.320;    0.000;36.74000
 896.32;  -31.720;  -58.720;    0.000;27.00000
 896.56;  -12.320;  -59.080;    0.000;46.76000
 896.80;  -19.640;  -64.120;    0.000;44.48000
 897.05;  -33.180;  -66.340;    0.000;33.16000
 897.29;  -22.360;  -51.230;    0.000;28.87000
 897.53;  -36.060;  -64.490;    0.000;28.43000
 897.78;  -20.680;  -59.400;    0.000;38.72000
 898.02;   -4.360;  -53.570;    0.000;49.21000
 898.26;  -27.200;  -63.930;    0.000;36.73000
 898.51;   -7.060;  -52.040;    0.000;44.98000
 898.75;  -25.440;  -56.010;    0.000;30.57000
 898.99;   -6.140;  -55.790;    0.000;49.65000
 899.24;   -7.900;  -49.180;    0.000;41.28000
 899.48;  -13.140;  -48.260;    0.000;35.12000
 899.73;   -8.160;  -54.040;    0.000;45.88000
 899.97;   14.200;  -42.750;    0.000;56.95000
 900.21;    7.760;  -44.210;    0.000;51.97000
 900.46;    3.280;  -41.230;    0.000;44.51000
 900.70;   16.700;  -40.060;    0.000;56.76000
 900.94;   11.820;  -49.340;    0.000;61.16000
 901.18;   22.400;  -43.690;    0.000;66.09000
 901.43;   17.460;  -40.290;    0.000;57.75000
 901.67;    5.740;  -38.410;    0.000;44.15000
 901.91;   29.040;  -29.050;    0.000;58.09000
 902.16;   18.140;  -39.250;    0.000;57.39000
 902.40;   43.360;  -35.010;    0.000;78.37000
 902.64;   35.560;  -28.700;    0.000;64.26000
 902.89;   48.960;  -28.120;    0.000;77.08000
 903.13;   65.860;  -20.830;    0.000;86.69000
 903.37;   76.260;  -22.230;    0.000;98.49000
 903.61;   91.300;   -7.810;    0.000;99.11000
 903.86;   85.920;   -9.670;    0.000;95.59000
 904.10;  102.480;   -7.290;    0.000;109.77000
 904.34;  122.720;    5.810;    0.000;116.91000
 904.59;  125.360;   17.270;    0.000;108.09000
 904.83;  155.680;   23.940;    0.000;131.73999
 905.07;  176.820;   39.780;    0.000;137.04001
 905.31;  194.880;   43.380;    0.000;151.50000
 905.56;  206.220;   56.080;    0.000;150.14000
 905.80;  265.340;   75.520;    0.000;189.82000

