p5
Integration time [ms]:  20.000
Averaging Nr. [scans]: 50
Smoothing Nr. [pixels]: 0
Data measured with spectrometer [name]: 1307077U2
Wave   ;Sample   ;Dark     ;Reference;Scope Corrected for Dark
[nm]   ;[counts] ;[counts] ;[counts] 

 350.80;   21.260;   -3.950;    0.000;25.21000
 351.10;   19.400;    2.790;    0.000;16.61000
 351.39;    8.500;   -5.780;    0.000;14.28000
 351.69;   -3.220;   -6.710;    0.000; 3.49000
 351.99;   15.380;  -10.760;    0.000;26.14000
 352.28;    3.200;  -11.870;    0.000;15.07000
 352.58;   10.980;    2.640;    0.000; 8.34000
 352.88;    2.480;   -3.560;    0.000; 6.04000
 353.17;   27.180;   -1.460;    0.000;28.64000
 353.47;    1.680;   -7.300;    0.000; 8.98000
 353.76;   22.440;    3.730;    0.000;18.71000
 354.06;   14.920;    1.480;    0.000;13.44000
 354.36;   26.900;    2.120;    0.000;24.78000
 354.65;   19.420;   12.260;    0.000; 7.16000
 354.95;    7.860;    1.380;    0.000; 6.48000
 355.24;    2.440;   -7.520;    0.000; 9.96000
 355.54;   10.500;   -6.140;    0.000;16.64000
 355.84;    7.200;    1.010;    0.000; 6.19000
 356.13;   41.880;    1.060;    0.000;40.82000
 356.43;    1.540;   -3.280;    0.000; 4.82000
 356.72;    4.600;   -7.820;    0.000;12.42000
 357.02;   16.240;    1.340;    0.000;14.90000
 357.31;   32.780;    4.400;    0.000;28.38000
 357.61;   13.460;    0.390;    0.000;13.07000
 357.91;   -1.340;   -9.460;    0.000; 8.12000
 358.20;    6.320;   -6.210;    0.000;12.53000
 358.50;   11.640;   -0.320;    0.000;11.96000
 358.79;   12.420;   -0.240;    0.000;12.66000
 359.09;   29.500;    4.600;    0.000;24.90000
 359.38;    3.380;   -4.910;    0.000; 8.29000
 359.68;   -3.160;   -6.920;    0.000; 3.76000
 359.98;   25.540;   -3.210;    0.000;28.75000
 360.27;   12.380;   -5.880;    0.000;18.26000
 360.57;    0.620;   -6.850;    0.000; 7.47000
 360.86;   16.880;   -3.030;    0.000;19.91000
 361.16;   -5.860;  -10.940;    0.000; 5.08000
 361.45;    9.000;   -3.610;    0.000;12.61000
 361.75;    0.340;   -6.330;    0.000; 6.67000
 362.04;   50.220;    7.330;    0.000;42.89000
 362.34;    5.460;   -8.080;    0.000;13.54000
 362.64;    9.300;   -4.150;    0.000;13.45000
 362.93;   -0.920;  -11.650;    0.000;10.73000
 363.23;   -3.380;   -3.380;    0.000; 0.00000
 363.52;   -0.320;   -7.930;    0.000; 7.61000
 363.82;    7.540;   -3.630;    0.000;11.17000
 364.11;   20.580;   -3.640;    0.000;24.22000
 364.41;   -4.080;   -7.090;    0.000; 3.01000
 364.70;    0.940;   -9.000;    0.000; 9.94000
 365.00;   16.600;    0.260;    0.000;16.34000
 365.29;    5.840;   -7.370;    0.000;13.21000
 365.59;    9.280;   -3.180;    0.000;12.46000
 365.88;    4.100;  -15.140;    0.000;19.24000
 366.18;   12.880;   -3.430;    0.000;16.31000
 366.47;    6.800;   -8.280;    0.000;15.08000
 366.77;    7.580;   -6.540;    0.000;14.12000
 367.06;   -1.780;   -3.040;    0.000; 1.26000
 367.36;   16.000;   -6.830;    0.000;22.83000
 367.65;   14.640;   -1.150;    0.000;15.79000
 367.95;   14.280;   -6.850;    0.000;21.13000
 368.24;    4.420;   -4.930;    0.000; 9.35000
 368.54;    1.540;  -13.980;    0.000;15.52000
 368.83;   14.620;   -1.360;    0.000;15.98000
 369.13;   22.660;   -2.650;    0.000;25.31000
 369.42;   16.580;   -5.530;    0.000;22.11000
 369.72;   18.380;   -9.410;    0.000;27.79000
 370.01;   12.380;   -1.870;    0.000;14.25000
 370.31;   19.600;    2.490;    0.000;17.11000
 370.60;   31.160;   -0.490;    0.000;31.65000
 370.90;   19.620;   -4.910;    0.000;24.53000
 371.19;   -4.720;   -8.640;    0.000; 3.92000
 371.49;   -1.920;  -15.270;    0.000;13.35000
 371.78;    9.240;  -12.190;    0.000;21.43000
 372.08;    9.200;   -4.150;    0.000;13.35000
 372.37;    6.780;   -7.430;    0.000;14.21000
 372.67;   18.540;   -1.910;    0.000;20.45000
 372.96;    3.840;   -4.090;    0.000; 7.93000
 373.26;    3.420;  -11.210;    0.000;14.63000
 373.55;   -0.780;   -3.340;    0.000; 2.56000
 373.85;    2.060;  -14.000;    0.000;16.06000
 374.14;    8.980;   -0.440;    0.000; 9.42000
 374.43;    2.440;   -4.860;    0.000; 7.30000
 374.73;    9.260;   -5.870;    0.000;15.13000
 375.02;   21.760;   -6.640;    0.000;28.40000
 375.32;    2.700;   -8.860;    0.000;11.56000
 375.61;    3.700;   -4.690;    0.000; 8.39000
 375.91;   -6.240;   -6.400;    0.000; 0.16000
 376.20;  -10.020;   -8.800;    0.000;-1.22000
 376.50;   -6.520;   -2.750;    0.000;-3.77000
 376.79;   -5.840;  -12.990;    0.000; 7.15000
 377.08;   -4.020;   -9.810;    0.000; 5.79000
 377.38;   -6.300;   -9.410;    0.000; 3.11000
 377.67;    6.400;  -15.820;    0.000;22.22000
 377.97;    6.940;  -12.430;    0.000;19.37000
 378.26;    1.660;   -3.550;    0.000; 5.21000
 378.56;   -2.340;  -11.760;    0.000; 9.42000
 378.85;   11.660;   -6.770;    0.000;18.43000
 379.14;   17.160;  -10.870;    0.000;28.03000
 379.44;    3.640;   -7.950;    0.000;11.59000
 379.73;    8.820;  -12.070;    0.000;20.89000
 380.03;   11.840;  -10.640;    0.000;22.48000
 380.32;    3.080;  -10.740;    0.000;13.82000
 380.62;   -3.600;  -11.160;    0.000; 7.56000
 380.91;   10.920;   -2.790;    0.000;13.71000
 381.20;    5.320;   -6.380;    0.000;11.70000
 381.50;    8.680;   -6.110;    0.000;14.79000
 381.79;    3.300;   -7.870;    0.000;11.17000
 382.09;    8.260;   -7.030;    0.000;15.29000
 382.38;   -9.560;  -10.330;    0.000; 0.77000
 382.67;    9.700;  -10.730;    0.000;20.43000
 382.97;    2.900;   -5.370;    0.000; 8.27000
 383.26;    8.140;   -3.260;    0.000;11.40000
 383.56;   12.320;   -3.260;    0.000;15.58000
 383.85;    2.440;  -12.650;    0.000;15.09000
 384.14;    9.200;    0.820;    0.000; 8.38000
 384.44;    2.540;   -6.530;    0.000; 9.07000
 384.73;   -1.200;   -5.430;    0.000; 4.23000
 385.02;    2.640;   -6.450;    0.000; 9.09000
 385.32;    8.400;   -4.570;    0.000;12.97000
 385.61;   -2.000;  -16.270;    0.000;14.27000
 385.91;   14.340;   -9.440;    0.000;23.78000
 386.20;    0.540;  -10.110;    0.000;10.65000
 386.49;   -5.520;  -14.900;    0.000; 9.38000
 386.79;    8.980;   -7.340;    0.000;16.32000
 387.08;    7.340;   -6.300;    0.000;13.64000
 387.37;   21.100;   -8.420;    0.000;29.52000
 387.67;    6.200;   -6.130;    0.000;12.33000
 387.96;    6.980;   -9.280;    0.000;16.26000
 388.25;   -3.420;   -1.410;    0.000;-2.01000
 388.55;    0.600;  -10.080;    0.000;10.68000
 388.84;   -3.880;  -12.690;    0.000; 8.81000
 389.14;   -4.860;  -11.090;    0.000; 6.23000
 389.43;    9.160;   -9.030;    0.000;18.19000
 389.72;    5.720;  -13.300;    0.000;19.02000
 390.02;   -4.940;   -9.420;    0.000; 4.48000
 390.31;    8.720;   -2.070;    0.000;10.79000
 390.60;    3.340;   -4.250;    0.000; 7.59000
 390.90;    4.840;  -15.000;    0.000;19.84000
 391.19;   -0.200;   -8.270;    0.000; 8.07000
 391.48;    3.860;  -13.200;    0.000;17.06000
 391.78;    9.180;   -9.570;    0.000;18.75000
 392.07;   78.180;   16.810;    0.000;61.37000
 392.36;   19.660;   -1.800;    0.000;21.46000
 392.66;   14.960;  -11.850;    0.000;26.81000
 392.95;   -4.920;  -10.380;    0.000; 5.46000
 393.24;  -13.700;  -20.110;    0.000; 6.41000
 393.53;    1.920;   -8.500;    0.000;10.42000
 393.83;   -2.920;  -10.870;    0.000; 7.95000
 394.12;    9.620;  -16.700;    0.000;26.32000
 394.41;    0.180;  -13.050;    0.000;13.23000
 394.71;    9.880;   -7.960;    0.000;17.84000
 395.00;    5.300;  -12.500;    0.000;17.80000
 395.29;    0.620;   -8.400;    0.000; 9.02000
 395.59;   -5.580;  -20.950;    0.000;15.37000
 395.88;   -3.920;  -16.060;    0.000;12.14000
 396.17;  -10.100;   -8.460;    0.000;-1.64000
 396.46;   15.720;   -3.560;    0.000;19.28000
 396.76;    8.340;  -13.050;    0.000;21.39000
 397.05;   28.300;    2.180;    0.000;26.12000
 397.34;    0.200;  -20.090;    0.000;20.29000
 397.64;   -3.560;   -9.050;    0.000; 5.49000
 397.93;    4.420;  -18.420;    0.000;22.84000
 398.22;   -4.820;  -12.920;    0.000; 8.10000
 398.51;   -1.240;   -9.770;    0.000; 8.53000
 398.81;   -2.240;  -12.510;    0.000;10.27000
 399.10;   -9.560;   -2.690;    0.000;-6.87000
 399.39;    7.180;  -11.900;    0.000;19.08000
 399.69;   12.540;  -13.740;    0.000;26.28000
 399.98;   16.640;   -4.100;    0.000;20.74000
 400.27;   -6.180;  -13.520;    0.000; 7.34000
 400.56;   -0.080;  -16.060;    0.000;15.98000
 400.86;    5.000;  -13.820;    0.000;18.82000
 401.15;    9.200;   -4.180;    0.000;13.38000
 401.44;  -11.140;  -15.730;    0.000; 4.59000
 401.73;   20.480;   -2.540;    0.000;23.02000
 402.03;   13.120;  -10.300;    0.000;23.42000
 402.32;    0.620;  -17.030;    0.000;17.65000
 402.61;   14.020;   -9.950;    0.000;23.97000
 402.90;  -10.500;  -11.420;    0.000; 0.92000
 403.20;    8.200;   -6.220;    0.000;14.42000
 403.49;    1.760;   -6.030;    0.000; 7.79000
 403.78;    7.700;  -11.040;    0.000;18.74000
 404.07;   -8.940;  -18.650;    0.000; 9.71000
 404.37;    0.860;  -10.470;    0.000;11.33000
 404.66;    3.540;  -14.960;    0.000;18.50000
 404.95;   11.260;   -0.330;    0.000;11.59000
 405.24;    9.140;  -15.620;    0.000;24.76000
 405.53;   -3.000;  -15.660;    0.000;12.66000
 405.83;   19.660;   -4.700;    0.000;24.36000
 406.12;   -9.960;  -10.900;    0.000; 0.94000
 406.41;   15.200;   -6.740;    0.000;21.94000
 406.70;   -5.020;  -12.650;    0.000; 7.63000
 407.00;   10.740;   -5.150;    0.000;15.89000
 407.29;    2.260;  -10.150;    0.000;12.41000
 407.58;  -14.180;  -15.850;    0.000; 1.67000
 407.87;    0.960;  -15.280;    0.000;16.24000
 408.16;  -13.680;  -17.930;    0.000; 4.25000
 408.46;   -5.820;  -11.550;    0.000; 5.73000
 408.75;   -0.880;  -11.910;    0.000;11.03000
 409.04;    6.640;   -9.380;    0.000;16.02000
 409.33;    8.220;   -5.530;    0.000;13.75000
 409.62;   20.720;   -9.060;    0.000;29.78000
 409.92;    3.020;   -7.890;    0.000;10.91000
 410.21;   -5.300;  -11.510;    0.000; 6.21000
 410.50;  -10.180;  -15.240;    0.000; 5.06000
 410.79;   19.200;   -3.910;    0.000;23.11000
 411.08;    1.240;  -18.230;    0.000;19.47000
 411.37;   -5.420;  -12.950;    0.000; 7.53000
 411.67;    0.440;  -15.120;    0.000;15.56000
 411.96;   -0.360;  -13.530;    0.000;13.17000
 412.25;   10.720;  -11.720;    0.000;22.44000
 412.54;    2.160;  -14.570;    0.000;16.73000
 412.83;   -0.240;  -15.690;    0.000;15.45000
 413.13;   12.340;  -12.520;    0.000;24.86000
 413.42;   -2.220;  -11.540;    0.000; 9.32000
 413.71;   10.880;  -16.160;    0.000;27.04000
 414.00;    6.320;  -15.050;    0.000;21.37000
 414.29;    6.280;  -10.400;    0.000;16.68000
 414.58;   -7.500;  -20.050;    0.000;12.55000
 414.87;   -5.460;  -11.570;    0.000; 6.11000
 415.17;   -7.920;  -14.460;    0.000; 6.54000
 415.46;    0.220;  -14.740;    0.000;14.96000
 415.75;    0.480;  -15.050;    0.000;15.53000
 416.04;    4.420;  -19.580;    0.000;24.00000
 416.33;   13.220;  -10.240;    0.000;23.46000
 416.62;   -5.380;  -16.750;    0.000;11.37000
 416.91;   -3.260;   -9.630;    0.000; 6.37000
 417.21;   -3.160;   -9.770;    0.000; 6.61000
 417.50;   -8.740;  -22.390;    0.000;13.65000
 417.79;    1.180;  -14.440;    0.000;15.62000
 418.08;    0.280;  -16.260;    0.000;16.54000
 418.37;    1.340;  -12.710;    0.000;14.05000
 418.66;   -0.620;  -14.780;    0.000;14.16000
 418.95;   22.380;  -12.220;    0.000;34.60000
 419.24;   -2.480;  -16.910;    0.000;14.43000
 419.54;   11.640;  -14.290;    0.000;25.93000
 419.83;    4.700;   -7.000;    0.000;11.70000
 420.12;    0.300;  -17.080;    0.000;17.38000
 420.41;   17.380;   -6.120;    0.000;23.50000
 420.70;   -3.960;  -15.970;    0.000;12.01000
 420.99;    3.580;   -7.860;    0.000;11.44000
 421.28;   10.680;  -14.590;    0.000;25.27000
 421.57;    6.680;  -13.670;    0.000;20.35000
 421.86;   18.740;   -3.720;    0.000;22.46000
 422.16;    8.660;   -4.790;    0.000;13.45000
 422.45;   -4.640;   -7.870;    0.000; 3.23000
 422.74;    4.520;  -11.510;    0.000;16.03000
 423.03;    5.400;   -8.230;    0.000;13.63000
 423.32;    1.560;  -16.280;    0.000;17.84000
 423.61;   21.360;  -10.700;    0.000;32.06000
 423.90;    3.240;  -18.810;    0.000;22.05000
 424.19;   54.540;    3.040;    0.000;51.50000
 424.48;   -1.560;  -13.640;    0.000;12.08000
 424.77;   19.420;  -15.110;    0.000;34.53000
 425.06;    6.520;   -8.550;    0.000;15.07000
 425.35;   22.520;  -12.070;    0.000;34.59000
 425.65;    1.740;  -12.850;    0.000;14.59000
 425.94;    2.200;  -13.500;    0.000;15.70000
 426.23;   -7.440;  -18.630;    0.000;11.19000
 426.52;    4.800;  -18.760;    0.000;23.56000
 426.81;   23.780;   -4.960;    0.000;28.74000
 427.10;   -1.000;  -18.640;    0.000;17.64000
 427.39;    8.480;  -17.730;    0.000;26.21000
 427.68;    7.040;   -6.060;    0.000;13.10000
 427.97;    3.840;   -9.970;    0.000;13.81000
 428.26;   -0.100;  -21.550;    0.000;21.45000
 428.55;   18.060;   -7.010;    0.000;25.07000
 428.84;   20.620;  -15.510;    0.000;36.13000
 429.13;   -6.140;  -21.800;    0.000;15.66000
 429.42;   12.040;   -6.430;    0.000;18.47000
 429.71;   -2.000;  -12.900;    0.000;10.90000
 430.00;    1.660;  -27.260;    0.000;28.92000
 430.29;  -19.640;  -18.790;    0.000;-0.85000
 430.58;    5.120;  -19.950;    0.000;25.07000
 430.87;   -9.800;  -18.710;    0.000; 8.91000
 431.16;   -1.680;  -27.130;    0.000;25.45000
 431.46;   10.660;  -12.580;    0.000;23.24000
 431.75;    4.060;  -16.460;    0.000;20.52000
 432.04;   20.680;  -12.750;    0.000;33.43000
 432.33;    1.460;  -15.960;    0.000;17.42000
 432.62;    6.920;  -16.610;    0.000;23.53000
 432.91;   -6.440;  -15.280;    0.000; 8.84000
 433.20;    6.420;  -14.090;    0.000;20.51000
 433.49;   -4.220;  -21.180;    0.000;16.96000
 433.78;   -2.320;  -15.380;    0.000;13.06000
 434.07;   -9.120;  -18.570;    0.000; 9.45000
 434.36;   -7.400;  -18.360;    0.000;10.96000
 434.65;  -22.160;  -19.110;    0.000;-3.05000
 434.94;  -11.260;  -16.660;    0.000; 5.40000
 435.23;    9.280;  -14.870;    0.000;24.15000
 435.52;   14.120;  -15.280;    0.000;29.40000
 435.81;    4.960;  -19.590;    0.000;24.55000
 436.10;    4.820;   -8.920;    0.000;13.74000
 436.39;   19.700;   -9.090;    0.000;28.79000
 436.68;    7.400;   -9.150;    0.000;16.55000
 436.97;   -2.100;  -17.940;    0.000;15.84000
 437.26;   -1.860;  -11.060;    0.000; 9.20000
 437.55;   12.020;  -14.150;    0.000;26.17000
 437.83;  -10.140;  -20.360;    0.000;10.22000
 438.12;  -17.000;  -19.980;    0.000; 2.98000
 438.41;   -1.080;  -18.690;    0.000;17.61000
 438.70;   25.260;   -6.450;    0.000;31.71000
 438.99;   22.940;   -3.000;    0.000;25.94000
 439.28;    3.220;  -13.960;    0.000;17.18000
 439.57;   -0.320;   -8.660;    0.000; 8.34000
 439.86;   -4.480;  -20.460;    0.000;15.98000
 440.15;    7.720;  -10.490;    0.000;18.21000
 440.44;    0.000;  -14.790;    0.000;14.79000
 440.73;    1.420;  -19.990;    0.000;21.41000
 441.02;   -4.660;  -18.940;    0.000;14.28000
 441.31;    1.780;  -17.020;    0.000;18.80000
 441.60;    8.620;  -10.820;    0.000;19.44000
 441.89;  -13.520;  -18.180;    0.000; 4.66000
 442.18;    4.120;  -11.380;    0.000;15.50000
 442.47;   -4.060;  -20.660;    0.000;16.60000
 442.76;    3.440;  -17.440;    0.000;20.88000
 443.05;   10.080;   -6.670;    0.000;16.75000
 443.34;    2.100;  -21.050;    0.000;23.15000
 443.63;   -3.680;  -21.060;    0.000;17.38000
 443.91;    6.840;  -24.010;    0.000;30.85000
 444.20;    3.320;  -15.210;    0.000;18.53000
 444.49;   -1.040;  -17.150;    0.000;16.11000
 444.78;    4.580;  -10.890;    0.000;15.47000
 445.07;   16.740;  -13.040;    0.000;29.78000
 445.36;  -16.260;  -25.850;    0.000; 9.59000
 445.65;    5.520;  -13.460;    0.000;18.98000
 445.94;   -7.500;  -17.420;    0.000; 9.92000
 446.23;   13.720;  -14.150;    0.000;27.87000
 446.52;   14.300;  -19.520;    0.000;33.82000
 446.81;    8.900;  -16.560;    0.000;25.46000
 447.10;   -0.660;  -13.040;    0.000;12.38000
 447.38;    5.000;  -16.320;    0.000;21.32000
 447.67;   16.180;  -14.960;    0.000;31.14000
 447.96;    4.820;  -20.220;    0.000;25.04000
 448.25;    3.900;  -17.610;    0.000;21.51000
 448.54;    7.040;  -20.490;    0.000;27.53000
 448.83;   11.920;  -21.650;    0.000;33.57000
 449.12;    5.140;  -24.330;    0.000;29.47000
 449.41;    0.280;  -17.380;    0.000;17.66000
 449.70;    3.420;  -19.200;    0.000;22.62000
 449.98;  -11.840;  -18.990;    0.000; 7.15000
 450.27;    5.340;  -10.630;    0.000;15.97000
 450.56;   -8.300;  -19.350;    0.000;11.05000
 450.85;    2.380;  -18.980;    0.000;21.36000
 451.14;   -4.260;  -18.310;    0.000;14.05000
 451.43;   -3.000;  -19.640;    0.000;16.64000
 451.72;   -1.700;  -20.630;    0.000;18.93000
 452.01;   20.840;  -12.200;    0.000;33.04000
 452.29;   -6.080;  -18.350;    0.000;12.27000
 452.58;  -12.960;  -25.270;    0.000;12.31000
 452.87;   -6.180;  -19.090;    0.000;12.91000
 453.16;   -2.380;  -11.330;    0.000; 8.95000
 453.45;    9.940;  -14.720;    0.000;24.66000
 453.74;    5.960;  -10.690;    0.000;16.65000
 454.03;   -3.640;  -21.930;    0.000;18.29000
 454.31;   -3.340;  -22.490;    0.000;19.15000
 454.60;   -1.540;  -21.160;    0.000;19.62000
 454.89;   22.840;  -12.560;    0.000;35.40000
 455.18;   -4.700;  -24.060;    0.000;19.36000
 455.47;  -12.860;  -26.150;    0.000;13.29000
 455.76;  -16.400;  -27.400;    0.000;11.00000
 456.04;    9.440;  -25.580;    0.000;35.02000
 456.33;   -4.820;  -25.270;    0.000;20.45000
 456.62;   -2.640;  -18.480;    0.000;15.84000
 456.91;   -4.440;  -23.960;    0.000;19.52000
 457.20;   18.400;  -15.140;    0.000;33.54000
 457.49;    2.280;  -14.830;    0.000;17.11000
 457.77;   -4.960;  -20.000;    0.000;15.04000
 458.06;    7.800;  -12.460;    0.000;20.26000
 458.35;   -0.720;  -24.180;    0.000;23.46000
 458.64;   -6.200;  -11.000;    0.000; 4.80000
 458.93;    6.200;  -15.890;    0.000;22.09000
 459.21;   -8.300;  -21.440;    0.000;13.14000
 459.50;   -5.320;  -22.030;    0.000;16.71000
 459.79;   -5.220;  -19.740;    0.000;14.52000
 460.08;    6.040;  -20.210;    0.000;26.25000
 460.37;   -3.180;  -17.330;    0.000;14.15000
 460.65;    3.940;  -20.980;    0.000;24.92000
 460.94;   -8.660;  -24.100;    0.000;15.44000
 461.23;    6.140;  -16.720;    0.000;22.86000
 461.52;   31.760;  -10.800;    0.000;42.56000
 461.81;    4.460;  -18.200;    0.000;22.66000
 462.09;    2.240;  -16.530;    0.000;18.77000
 462.38;   -4.000;  -21.390;    0.000;17.39000
 462.67;   -7.720;  -25.110;    0.000;17.39000
 462.96;    0.620;  -24.230;    0.000;24.85000
 463.24;   -2.960;  -23.650;    0.000;20.69000
 463.53;   13.280;  -17.480;    0.000;30.76000
 463.82;   -4.960;  -19.800;    0.000;14.84000
 464.11;  -11.380;  -21.730;    0.000;10.35000
 464.40;   -9.080;  -22.130;    0.000;13.05000
 464.68;   -7.940;  -21.480;    0.000;13.54000
 464.97;    6.800;  -19.470;    0.000;26.27000
 465.26;    4.860;  -17.460;    0.000;22.32000
 465.55;    2.700;  -20.890;    0.000;23.59000
 465.83;   -4.500;  -20.920;    0.000;16.42000
 466.12;    0.180;  -22.340;    0.000;22.52000
 466.41;   13.200;  -21.380;    0.000;34.58000
 466.70;  -10.100;  -23.610;    0.000;13.51000
 466.98;   -9.420;  -20.090;    0.000;10.67000
 467.27;   13.660;  -18.760;    0.000;32.42000
 467.56;   29.380;  -20.980;    0.000;50.36000
 467.85;    5.820;  -15.930;    0.000;21.75000
 468.13;   -4.340;  -14.330;    0.000; 9.99000
 468.42;   16.380;  -17.700;    0.000;34.08000
 468.71;    7.180;  -20.100;    0.000;27.28000
 468.99;   -2.220;  -17.320;    0.000;15.10000
 469.28;   12.120;  -22.330;    0.000;34.45000
 469.57;   -3.880;  -21.170;    0.000;17.29000
 469.86;    8.460;  -18.660;    0.000;27.12000
 470.14;  -15.820;  -24.400;    0.000; 8.58000
 470.43;   10.120;  -16.250;    0.000;26.37000
 470.72;   -8.680;  -27.700;    0.000;19.02000
 471.00;    2.760;  -21.470;    0.000;24.23000
 471.29;   18.860;  -12.190;    0.000;31.05000
 471.58;   21.640;  -14.440;    0.000;36.08000
 471.87;    0.120;  -20.260;    0.000;20.38000
 472.15;   -2.640;  -27.280;    0.000;24.64000
 472.44;   24.320;  -13.550;    0.000;37.87000
 472.73;   -5.640;  -28.340;    0.000;22.70000
 473.01;   -3.400;  -26.320;    0.000;22.92000
 473.30;   17.940;  -23.100;    0.000;41.04000
 473.59;   15.100;  -19.590;    0.000;34.69000
 473.87;   10.180;  -19.240;    0.000;29.42000
 474.16;   -3.600;  -20.110;    0.000;16.51000
 474.45;    7.100;  -30.440;    0.000;37.54000
 474.74;    4.480;  -22.750;    0.000;27.23000
 475.02;    3.580;  -15.460;    0.000;19.04000
 475.31;    4.640;  -20.200;    0.000;24.84000
 475.60;   13.720;  -27.200;    0.000;40.92000
 475.88;    7.780;  -25.920;    0.000;33.70000
 476.17;   21.940;  -16.890;    0.000;38.83000
 476.46;   10.500;  -20.900;    0.000;31.40000
 476.74;    2.860;  -23.070;    0.000;25.93000
 477.03;   -7.660;  -22.890;    0.000;15.23000
 477.32;    9.280;  -21.040;    0.000;30.32000
 477.60;    3.700;  -24.890;    0.000;28.59000
 477.89;   13.620;  -14.910;    0.000;28.53000
 478.18;   11.720;  -15.900;    0.000;27.62000
 478.46;   12.640;  -19.520;    0.000;32.16000
 478.75;    3.120;  -18.520;    0.000;21.64000
 479.03;    3.260;  -17.330;    0.000;20.59000
 479.32;    6.160;  -26.670;    0.000;32.83000
 479.61;    2.680;  -32.440;    0.000;35.12000
 479.89;    7.100;  -24.740;    0.000;31.84000
 480.18;   16.000;  -21.450;    0.000;37.45000
 480.47;   12.420;  -18.220;    0.000;30.64000
 480.75;    9.940;  -29.820;    0.000;39.76000
 481.04;   12.100;  -20.400;    0.000;32.50000
 481.33;   11.640;  -16.240;    0.000;27.88000
 481.61;   12.140;  -20.830;    0.000;32.97000
 481.90;   -7.260;  -33.240;    0.000;25.98000
 482.18;   12.960;  -23.490;    0.000;36.45000
 482.47;   20.680;  -18.580;    0.000;39.26000
 482.76;   12.980;  -24.650;    0.000;37.63000
 483.04;   15.140;  -22.560;    0.000;37.70000
 483.33;    5.120;  -27.450;    0.000;32.57000
 483.61;   15.960;  -18.390;    0.000;34.35000
 483.90;    7.280;  -22.630;    0.000;29.91000
 484.19;    1.180;  -31.890;    0.000;33.07000
 484.47;   18.200;  -27.650;    0.000;45.85000
 484.76;   17.040;  -22.480;    0.000;39.52000
 485.05;   19.780;  -15.900;    0.000;35.68000
 485.33;   21.760;  -20.520;    0.000;42.28000
 485.62;    0.600;  -23.220;    0.000;23.82000
 485.90;   18.980;  -19.330;    0.000;38.31000
 486.19;    6.000;  -21.960;    0.000;27.96000
 486.47;   46.380;  -17.750;    0.000;64.13000
 486.76;    9.260;  -32.110;    0.000;41.37000
 487.05;   32.820;  -21.590;    0.000;54.41000
 487.33;   17.980;  -24.120;    0.000;42.10000
 487.62;   23.520;  -27.370;    0.000;50.89000
 487.90;   13.000;  -24.640;    0.000;37.64000
 488.19;   32.180;  -17.250;    0.000;49.43000
 488.47;   33.120;  -20.280;    0.000;53.40000
 488.76;   40.680;  -22.200;    0.000;62.88000
 489.05;   40.800;  -13.720;    0.000;54.52000
 489.33;   31.600;  -24.060;    0.000;55.66000
 489.62;   38.360;  -27.760;    0.000;66.12000
 489.90;   25.760;  -29.230;    0.000;54.99000
 490.19;   35.020;  -20.080;    0.000;55.10000
 490.47;   53.360;  -27.170;    0.000;80.53000
 490.76;   49.880;  -30.390;    0.000;80.27000
 491.05;   76.100;  -18.700;    0.000;94.80000
 491.33;   69.920;  -19.160;    0.000;89.08000
 491.62;   78.020;  -30.080;    0.000;108.10000
 491.90;   86.240;  -24.970;    0.000;111.21000
 492.19;   84.900;  -29.880;    0.000;114.78000
 492.47;   98.400;  -26.010;    0.000;124.41000
 492.76;  121.160;  -25.800;    0.000;146.96000
 493.04;  139.000;  -23.090;    0.000;162.09000
 493.33;  133.520;  -29.680;    0.000;163.20000
 493.61;  160.760;  -28.280;    0.000;189.04000
 493.90;  185.320;  -25.470;    0.000;210.79001
 494.18;  199.420;  -21.360;    0.000;220.78000
 494.47;  206.100;  -21.500;    0.000;227.60001
 494.75;  236.200;  -25.740;    0.000;261.94000
 495.04;  265.980;  -25.010;    0.000;290.99001
 495.32;  286.220;  -24.280;    0.000;310.50000
 495.61;  324.340;  -26.390;    0.000;350.73000
 495.89;  341.000;  -25.210;    0.000;366.21000
 496.18;  371.340;  -24.900;    0.000;396.24000
 496.46;  420.020;  -25.570;    0.000;445.58999
 496.75;  445.740;  -19.200;    0.000;464.93999
 497.03;  495.840;  -21.850;    0.000;517.69000
 497.32;  527.420;  -28.930;    0.000;556.34998
 497.60;  570.960;  -27.460;    0.000;598.42002
 497.89;  637.520;  -26.060;    0.000;663.58002
 498.17;  697.260;  -23.200;    0.000;720.46001
 498.46;  741.520;  -31.150;    0.000;772.67002
 498.74;  797.660;  -21.420;    0.000;819.07997
 499.03;  847.780;  -27.500;    0.000;875.28003
 499.31;  918.060;  -33.980;    0.000;952.04000
 499.60;  978.060;  -26.560;    0.000;1004.62000
 499.88; 1075.880;  -13.310;    0.000;1089.19001
 500.17; 1147.620;  -32.950;    0.000;1180.57000
 500.45; 1196.020;  -26.850;    0.000;1222.87002
 500.74; 1297.880;  -32.110;    0.000;1329.99001
 501.02; 1394.680;  -28.340;    0.000;1423.02005
 501.31; 1466.820;  -30.740;    0.000;1497.55995
 501.59; 1571.160;  -22.990;    0.000;1594.15003
 501.88; 1664.600;  -24.540;    0.000;1689.13998
 502.16; 1763.060;  -33.190;    0.000;1796.25006
 502.45; 1870.140;  -27.850;    0.000;1897.99002
 502.73; 1976.600;  -30.030;    0.000;2006.62998
 503.01; 2099.000;  -26.800;    0.000;2125.80000
 503.30; 2207.620;  -26.540;    0.000;2234.16012
 503.58; 2322.300;  -37.970;    0.000;2360.27005
 503.87; 2451.020;  -21.070;    0.000;2472.09002
 504.15; 2580.580;  -31.700;    0.000;2612.28008
 504.44; 2712.880;  -22.380;    0.000;2735.25988
 504.72; 2864.940;  -16.240;    0.000;2881.17994
 505.00; 2982.460;  -31.090;    0.000;3013.54996
 505.29; 3158.340;  -18.750;    0.000;3177.09009
 505.57; 3297.300;  -26.120;    0.000;3323.42005
 505.86; 3429.820;  -30.130;    0.000;3459.95007
 506.14; 3577.300;  -40.580;    0.000;3617.88005
 506.43; 3745.900;  -16.980;    0.000;3762.87990
 506.71; 3917.440;  -26.380;    0.000;3943.81994
 506.99; 4089.580;  -33.030;    0.000;4122.61008
 507.28; 4251.780;  -27.620;    0.000;4279.39979
 507.56; 4422.180;  -28.400;    0.000;4450.58018
 507.85; 4590.040;  -26.630;    0.000;4616.67004
 508.13; 4773.740;  -23.390;    0.000;4797.13023
 508.41; 4972.920;  -13.300;    0.000;4986.21992
 508.70; 5164.400;  -30.090;    0.000;5194.48990
 508.98; 5300.440;  -29.260;    0.000;5329.69994
 509.27; 5520.920;  -34.820;    0.000;5555.73992
 509.55; 5701.840;  -20.900;    0.000;5722.73984
 509.83; 5918.880;  -32.250;    0.000;5951.12988
 510.12; 6140.180;  -25.080;    0.000;6165.26018
 510.40; 6334.540;  -26.530;    0.000;6361.07004
 510.69; 6492.380;  -26.360;    0.000;6518.73988
 510.97; 6763.140;  -25.960;    0.000;6789.10014
 511.25; 6930.560;  -25.560;    0.000;6956.12006
 511.54; 7104.560;  -32.180;    0.000;7136.74006
 511.82; 7377.840;  -23.410;    0.000;7401.24984
 512.11; 7584.620;  -28.130;    0.000;7612.75012
 512.39; 7759.240;  -32.100;    0.000;7791.34023
 512.67; 7982.540;  -23.390;    0.000;8005.93004
 512.96; 8194.500;  -27.360;    0.000;8221.86000
 513.24; 8448.460;  -25.540;    0.000;8473.99996
 513.52; 8588.880;  -20.710;    0.000;8609.58988
 513.81; 8809.200;  -27.450;    0.000;8836.65020
 514.09; 8993.540;  -31.630;    0.000;9025.17004
 514.37; 9199.700;  -28.900;    0.000;9228.60019
 514.66; 9418.100;  -26.830;    0.000;9444.92961
 514.94; 9637.900;  -30.930;    0.000;9668.83039
 515.22; 9844.580;  -20.740;    0.000;9865.32008
 515.51;10053.060;  -28.110;    0.000;10081.16957
 515.79;10274.800;  -30.680;    0.000;10305.47980
 516.07;10476.780;  -21.420;    0.000;10498.20027
 516.36;10733.220;  -30.450;    0.000;10763.66973
 516.64;10980.400;  -27.560;    0.000;11007.96039
 516.92;11204.860;  -28.140;    0.000;11233.00035
 517.21;11480.540;  -33.670;    0.000;11514.21004
 517.49;11679.820;  -21.660;    0.000;11701.48031
 517.77;12013.400;  -23.850;    0.000;12037.25039
 518.06;12135.780;  -35.280;    0.000;12171.06027
 518.34;12403.080;  -22.260;    0.000;12425.34008
 518.62;12600.680;  -18.090;    0.000;12618.76969
 518.91;12756.880;  -25.090;    0.000;12781.96988
 519.19;12987.760;  -29.320;    0.000;13017.07977
 519.47;13179.040;  -25.890;    0.000;13204.93004
 519.76;13428.620;  -20.890;    0.000;13449.51012
 520.04;13585.200;  -27.100;    0.000;13612.30020
 520.32;13801.080;  -24.040;    0.000;13825.12008
 520.61;14021.280;  -17.280;    0.000;14038.56027
 520.89;14225.380;  -26.150;    0.000;14251.52988
 521.17;14324.060;  -27.250;    0.000;14351.30957
 521.45;14565.440;  -26.190;    0.000;14591.63043
 521.74;14777.300;  -27.770;    0.000;14805.06981
 522.02;14952.140;  -32.340;    0.000;14984.47965
 522.30;15223.300;  -30.190;    0.000;15253.48981
 522.59;15422.920;  -17.950;    0.000;15440.86992
 522.87;15558.780;  -35.830;    0.000;15594.61028
 523.15;15731.200;  -22.330;    0.000;15753.53020
 523.43;15900.700;  -36.850;    0.000;15937.55019
 523.72;16073.660;  -22.470;    0.000;16096.13016
 524.00;16276.720;  -26.840;    0.000;16303.55973
 524.28;16437.119;  -30.100;    0.000;16467.21914
 524.57;16611.600;  -28.250;    0.000;16639.84961
 524.85;16688.881;  -33.210;    0.000;16722.09086
 525.13;16945.920;  -28.900;    0.000;16974.81992
 525.41;17099.680;  -26.930;    0.000;17126.60969
 525.70;17260.660;  -39.770;    0.000;17300.43016
 525.98;17289.141;  -28.770;    0.000;17317.91063
 526.26;17626.020;  -28.530;    0.000;17654.54953
 526.54;17727.961;  -37.240;    0.000;17765.20094
 526.83;17894.600;  -31.260;    0.000;17925.85961
 527.11;18016.061;  -29.840;    0.000;18045.90055
 527.39;18237.801;  -27.920;    0.000;18265.72078
 527.67;18342.721;  -33.060;    0.000;18375.78070
 527.96;18428.340;  -33.590;    0.000;18461.92984
 528.24;18594.480;  -30.660;    0.000;18625.14047
 528.52;18786.320;  -24.870;    0.000;18811.19031
 528.80;18982.580;  -28.750;    0.000;19011.33008
 529.08;19018.740;  -34.880;    0.000;19053.62024
 529.37;19297.260;  -25.970;    0.000;19323.22976
 529.65;19328.199;  -21.850;    0.000;19350.04922
 529.93;19479.039;  -27.970;    0.000;19507.00906
 530.21;19567.900;  -33.080;    0.000;19600.98039
 530.50;19736.619;  -30.560;    0.000;19767.17914
 530.78;19758.840;  -27.290;    0.000;19786.12984
 531.06;20024.000;  -32.640;    0.000;20056.64000
 531.34;20095.740;  -31.410;    0.000;20127.15023
 531.62;20233.439;  -29.810;    0.000;20263.24945
 531.91;20331.080;  -33.270;    0.000;20364.35008
 532.19;20393.699;  -28.780;    0.000;20422.47922
 532.47;20530.240;  -30.330;    0.000;20560.57023
 532.75;20652.020;  -25.280;    0.000;20677.29953
 533.03;20756.400;  -26.860;    0.000;20783.26039
 533.32;20913.721;  -23.280;    0.000;20937.00070
 533.60;20977.580;  -34.090;    0.000;21011.67008
 533.88;21149.119;  -20.750;    0.000;21169.86914
 534.16;21252.779;  -30.960;    0.000;21283.73930
 534.44;21285.600;  -26.490;    0.000;21312.08961
 534.72;21410.740;  -32.560;    0.000;21443.30024
 535.01;21544.801;  -25.270;    0.000;21570.07078
 535.29;21613.039;  -23.350;    0.000;21636.38906
 535.57;21698.180;  -25.910;    0.000;21724.08969
 535.85;21793.881;  -23.170;    0.000;21817.05086
 536.13;21925.859;  -28.940;    0.000;21954.79938
 536.42;21990.660;  -27.660;    0.000;22018.32016
 536.70;22136.141;  -35.120;    0.000;22171.26062
 536.98;22271.020;  -22.910;    0.000;22293.92953
 537.26;22293.580;  -19.290;    0.000;22312.87008
 537.54;22408.699;  -26.340;    0.000;22435.03922
 537.82;22551.480;  -21.930;    0.000;22573.41047
 538.10;22542.301;  -27.700;    0.000;22570.00078
 538.39;22594.080;  -28.600;    0.000;22622.68008
 538.67;22805.301;  -27.310;    0.000;22832.61078
 538.95;22848.820;  -30.120;    0.000;22878.94031
 539.23;22971.080;  -22.970;    0.000;22994.05008
 539.51;22971.961;  -22.060;    0.000;22994.02094
 539.79;23100.061;  -26.640;    0.000;23126.70055
 540.07;23172.199;  -22.100;    0.000;23194.29922
 540.36;23262.080;  -30.750;    0.000;23292.83008
 540.64;23310.420;  -22.510;    0.000;23332.92992
 540.92;23391.400;  -30.820;    0.000;23422.22039
 541.20;23435.859;  -29.640;    0.000;23465.49937
 541.48;23525.820;  -12.470;    0.000;23538.29031
 541.76;23556.199;  -26.780;    0.000;23582.97922
 542.04;23713.859;  -23.270;    0.000;23737.12938
 542.32;23722.980;  -24.220;    0.000;23747.20047
 542.61;23912.859;  -33.520;    0.000;23946.37938
 542.89;23930.820;  -17.240;    0.000;23948.06031
 543.17;23999.420;  -25.240;    0.000;24024.65992
 543.45;23991.199;  -24.660;    0.000;24015.85922
 543.73;24092.820;  -28.070;    0.000;24120.89031
 544.01;24115.580;  -29.250;    0.000;24144.83008
 544.29;24334.939;  -19.640;    0.000;24354.57945
 544.57;24318.580;  -34.410;    0.000;24352.99008
 544.85;24363.080;  -23.490;    0.000;24386.57008
 545.13;24411.600;  -25.150;    0.000;24436.74961
 545.42;24442.020;  -24.120;    0.000;24466.13953
 545.70;24487.221;  -20.880;    0.000;24508.10070
 545.98;24547.221;  -22.690;    0.000;24569.91070
 546.26;24548.320;  -22.680;    0.000;24571.00031
 546.54;24636.779;  -26.680;    0.000;24663.45930
 546.82;24660.039;  -22.560;    0.000;24682.59906
 547.10;24697.779;  -25.490;    0.000;24723.26930
 547.38;24777.820;  -18.460;    0.000;24796.28031
 547.66;24822.580;  -24.450;    0.000;24847.03008
 547.94;24841.000;  -22.110;    0.000;24863.11000
 548.22;24878.859;  -28.020;    0.000;24906.87938
 548.50;24890.920;  -35.840;    0.000;24926.75992
 548.78;24993.119;  -28.210;    0.000;25021.32914
 549.06;24941.359;  -25.700;    0.000;24967.05938
 549.34;25047.900;  -30.930;    0.000;25078.83039
 549.63;25069.539;  -17.470;    0.000;25087.00906
 549.91;25108.301;  -26.020;    0.000;25134.32078
 550.19;25078.320;  -30.840;    0.000;25109.16031
 550.47;25145.320;  -33.570;    0.000;25178.89031
 550.75;25190.721;  -29.150;    0.000;25219.87070
 551.03;25215.279;  -31.230;    0.000;25246.50930
 551.31;25246.619;  -27.700;    0.000;25274.31914
 551.59;25248.900;  -27.320;    0.000;25276.22039
 551.87;25262.420;  -25.060;    0.000;25287.47992
 552.15;25320.320;  -29.650;    0.000;25349.97031
 552.43;25319.859;  -17.690;    0.000;25337.54938
 552.71;25300.859;  -26.730;    0.000;25327.58937
 552.99;25401.580;  -27.320;    0.000;25428.90008
 553.27;25406.240;  -33.900;    0.000;25440.14024
 553.55;25371.840;  -29.130;    0.000;25400.96984
 553.83;25492.160;  -34.100;    0.000;25526.26015
 554.11;25507.020;  -29.070;    0.000;25536.08953
 554.39;25518.580;  -17.350;    0.000;25535.93008
 554.67;25564.461;  -31.140;    0.000;25595.60094
 554.95;25563.461;  -15.790;    0.000;25579.25094
 555.23;25526.619;  -19.190;    0.000;25545.80914
 555.51;25422.039;  -23.860;    0.000;25445.89906
 555.79;25450.141;  -26.610;    0.000;25476.75063
 556.07;25411.160;  -33.750;    0.000;25444.91016
 556.35;25440.500;  -33.080;    0.000;25473.58000
 556.63;25475.680;  -23.190;    0.000;25498.86969
 556.91;25499.660;  -20.140;    0.000;25519.80016
 557.19;25440.301;  -33.420;    0.000;25473.72078
 557.47;25398.820;  -26.860;    0.000;25425.68031
 557.75;25456.320;  -27.600;    0.000;25483.92031
 558.03;25488.859;  -23.720;    0.000;25512.57937
 558.31;25484.359;  -32.820;    0.000;25517.17937
 558.59;25485.641;  -28.200;    0.000;25513.84063
 558.87;25582.740;  -31.300;    0.000;25614.04023
 559.15;25512.020;  -29.920;    0.000;25541.93953
 559.43;25529.240;  -31.700;    0.000;25560.94024
 559.71;25573.699;  -29.390;    0.000;25603.08922
 559.99;25522.881;  -29.950;    0.000;25552.83086
 560.27;25544.779;  -31.860;    0.000;25576.63930
 560.55;25492.000;  -27.330;    0.000;25519.33000
 560.82;25396.939;  -30.590;    0.000;25427.52945
 561.10;25447.699;  -35.810;    0.000;25483.50922
 561.38;25376.680;  -27.550;    0.000;25404.22969
 561.66;25421.039;  -27.770;    0.000;25448.80906
 561.94;25386.840;  -36.790;    0.000;25423.62984
 562.22;25403.359;  -29.270;    0.000;25432.62938
 562.50;25326.980;  -25.730;    0.000;25352.71047
 562.78;25349.801;  -28.210;    0.000;25378.01078
 563.06;25300.180;  -32.200;    0.000;25332.37969
 563.34;25216.180;  -32.310;    0.000;25248.48969
 563.62;25239.180;  -26.420;    0.000;25265.59969
 563.90;25188.801;  -33.310;    0.000;25222.11078
 564.18;25141.480;  -30.050;    0.000;25171.53047
 564.46;25156.680;  -33.070;    0.000;25189.74969
 564.74;25115.801;  -26.370;    0.000;25142.17078
 565.01;25047.260;  -34.630;    0.000;25081.88977
 565.29;25023.301;  -30.890;    0.000;25054.19078
 565.57;24975.900;  -27.770;    0.000;25003.67039
 565.85;25002.320;  -26.540;    0.000;25028.86031
 566.13;24821.439;  -35.020;    0.000;24856.45945
 566.41;24824.461;  -27.970;    0.000;24852.43094
 566.69;24744.359;  -26.850;    0.000;24771.20938
 566.97;24778.260;  -35.710;    0.000;24813.96976
 567.25;24753.180;  -26.920;    0.000;24780.09969
 567.53;24645.359;  -31.550;    0.000;24676.90937
 567.80;24658.641;  -29.830;    0.000;24688.47062
 568.08;24629.740;  -23.950;    0.000;24653.69024
 568.36;24549.820;  -39.610;    0.000;24589.43031
 568.64;24476.381;  -31.690;    0.000;24508.07086
 568.92;24405.180;  -24.250;    0.000;24429.42969
 569.20;24404.221;  -32.220;    0.000;24436.44070
 569.48;24349.340;  -33.550;    0.000;24382.88984
 569.76;24270.580;  -41.820;    0.000;24312.40008
 570.03;24184.039;  -26.520;    0.000;24210.55906
 570.31;24224.740;  -33.390;    0.000;24258.13023
 570.59;24168.240;  -29.380;    0.000;24197.62023
 570.87;24038.119;  -30.810;    0.000;24068.92914
 571.15;23996.721;  -35.650;    0.000;24032.37070
 571.43;23926.900;  -28.530;    0.000;23955.43039
 571.71;23930.520;  -40.130;    0.000;23970.64953
 571.98;23775.381;  -30.700;    0.000;23806.08086
 572.26;23770.000;  -33.520;    0.000;23803.52000
 572.54;23731.881;  -36.750;    0.000;23768.63086
 572.82;23571.820;  -35.020;    0.000;23606.84031
 573.10;23640.539;  -32.420;    0.000;23672.95906
 573.38;23566.340;  -33.880;    0.000;23600.21984
 573.66;23478.439;  -34.190;    0.000;23512.62945
 573.93;23368.160;  -33.870;    0.000;23402.03016
 574.21;23282.439;  -31.820;    0.000;23314.25945
 574.49;23275.199;  -31.910;    0.000;23307.10922
 574.77;23267.500;  -29.890;    0.000;23297.39000
 575.05;23134.061;  -22.870;    0.000;23156.93055
 575.33;23040.240;  -31.620;    0.000;23071.86024
 575.60;22964.980;  -29.990;    0.000;22994.97047
 575.88;22903.039;  -30.640;    0.000;22933.67906
 576.16;22837.721;  -31.370;    0.000;22869.09070
 576.44;22779.439;  -30.170;    0.000;22809.60945
 576.72;22610.039;  -30.330;    0.000;22640.36906
 576.99;22544.520;  -35.380;    0.000;22579.89953
 577.27;22509.199;  -32.010;    0.000;22541.20922
 577.55;22387.980;  -20.740;    0.000;22408.72047
 577.83;22295.900;  -38.350;    0.000;22334.25039
 578.11;22370.340;  -30.600;    0.000;22400.93984
 578.38;22205.119;  -33.300;    0.000;22238.41914
 578.66;22070.801;  -33.190;    0.000;22103.99078
 578.94;22057.381;  -34.250;    0.000;22091.63086
 579.22;21940.340;  -36.890;    0.000;21977.22984
 579.50;21845.279;  -16.500;    0.000;21861.77930
 579.77;21817.619;  -27.820;    0.000;21845.43914
 580.05;21718.160;  -33.860;    0.000;21752.02016
 580.33;21581.619;  -36.230;    0.000;21617.84914
 580.61;21524.939;  -31.810;    0.000;21556.74945
 580.88;21427.100;  -31.550;    0.000;21458.64961
 581.16;21401.881;  -30.380;    0.000;21432.26086
 581.44;21249.359;  -26.740;    0.000;21276.09937
 581.72;21211.619;  -36.870;    0.000;21248.48914
 581.99;21126.301;  -28.000;    0.000;21154.30078
 582.27;21052.660;  -32.620;    0.000;21085.28016
 582.55;20928.500;  -39.650;    0.000;20968.15000
 582.83;20787.301;  -31.420;    0.000;20818.72078
 583.10;20691.240;  -34.040;    0.000;20725.28024
 583.38;20564.539;  -33.790;    0.000;20598.32906
 583.66;20491.141;  -23.360;    0.000;20514.50063
 583.94;20332.801;  -37.120;    0.000;20369.92078
 584.21;20284.301;  -36.200;    0.000;20320.50078
 584.49;20241.480;  -31.210;    0.000;20272.69047
 584.77;20071.859;  -41.490;    0.000;20113.34938
 585.05;20072.580;  -41.880;    0.000;20114.46008
 585.32;19956.301;  -40.900;    0.000;19997.20078
 585.60;19851.859;  -35.320;    0.000;19887.17937
 585.88;19746.801;  -36.100;    0.000;19782.90078
 586.16;19613.320;  -33.460;    0.000;19646.78031
 586.43;19589.340;  -23.040;    0.000;19612.37984
 586.71;19378.340;  -33.020;    0.000;19411.35984
 586.99;19370.340;  -38.700;    0.000;19409.03984
 587.26;19244.920;  -39.100;    0.000;19284.01992
 587.54;19109.141;  -29.820;    0.000;19138.96062
 587.82;18973.500;  -31.730;    0.000;19005.23000
 588.10;18871.859;  -35.850;    0.000;18907.70937
 588.37;18777.000;  -41.630;    0.000;18818.63000
 588.65;18770.760;  -32.470;    0.000;18803.22977
 588.93;18585.939;  -32.150;    0.000;18618.08945
 589.20;18497.820;  -34.030;    0.000;18531.85031
 589.48;18375.779;  -34.930;    0.000;18410.70930
 589.76;18308.199;  -15.830;    0.000;18324.02922
 590.03;18126.820;  -40.290;    0.000;18167.11031
 590.31;18132.039;  -33.480;    0.000;18165.51906
 590.59;17954.721;  -33.000;    0.000;17987.72070
 590.86;17886.221;  -31.500;    0.000;17917.72070
 591.14;17738.461;  -37.450;    0.000;17775.91094
 591.42;17594.619;  -37.920;    0.000;17632.53914
 591.70;17522.260;  -32.300;    0.000;17554.55976
 591.97;17405.061;  -26.470;    0.000;17431.53055
 592.25;17255.680;  -31.490;    0.000;17287.16969
 592.53;17264.279;  -39.370;    0.000;17303.64930
 592.80;17058.600;  -30.970;    0.000;17089.56961
 593.08;17044.980;  -28.190;    0.000;17073.17047
 593.36;16816.080;  -33.690;    0.000;16849.77008
 593.63;16796.320;  -28.510;    0.000;16824.83031
 593.91;16705.221;  -39.300;    0.000;16744.52070
 594.18;16564.141;  -30.740;    0.000;16594.88062
 594.46;16442.961;  -37.200;    0.000;16480.16094
 594.74;16390.900;  -35.270;    0.000;16426.17039
 595.01;16215.900;  -39.910;    0.000;16255.81039
 595.29;16159.100;  -37.830;    0.000;16196.92961
 595.57;16078.240;  -30.310;    0.000;16108.55023
 595.84;15968.980;  -34.070;    0.000;16003.05047
 596.12;15747.980;  -35.950;    0.000;15783.93047
 596.40;15751.900;  -47.400;    0.000;15799.30039
 596.67;15574.100;  -33.240;    0.000;15607.33961
 596.95;15501.360;  -31.840;    0.000;15533.20035
 597.22;15385.720;  -42.200;    0.000;15427.91973
 597.50;15303.580;  -33.310;    0.000;15336.89008
 597.78;15174.580;  -35.870;    0.000;15210.45008
 598.05;15004.280;  -42.370;    0.000;15046.65027
 598.33;14925.480;  -31.360;    0.000;14956.84047
 598.61;14862.820;  -34.100;    0.000;14896.92031
 598.88;14756.920;  -43.010;    0.000;14799.92992
 599.16;14681.700;  -38.270;    0.000;14719.97020
 599.43;14570.780;  -44.250;    0.000;14615.03027
 599.71;14442.320;  -31.350;    0.000;14473.67031
 599.99;14317.660;  -40.440;    0.000;14358.10015
 600.26;14199.780;  -34.480;    0.000;14234.26027
 600.54;14187.660;  -35.880;    0.000;14223.54016
 600.81;14074.600;  -30.800;    0.000;14105.39961
 601.09;13949.980;  -38.420;    0.000;13988.40047
 601.36;13799.780;  -43.640;    0.000;13843.42027
 601.64;13715.000;  -36.270;    0.000;13751.27000
 601.92;13633.280;  -40.290;    0.000;13673.57027
 602.19;13497.060;  -43.490;    0.000;13540.54957
 602.47;13430.980;  -41.720;    0.000;13472.70047
 602.74;13279.900;  -33.580;    0.000;13313.48039
 603.02;13216.500;  -30.880;    0.000;13247.38000
 603.29;13177.000;  -30.150;    0.000;13207.15000
 603.57;13032.160;  -38.680;    0.000;13070.84016
 603.85;12970.360;  -36.240;    0.000;13006.60035
 604.12;12876.720;  -25.740;    0.000;12902.45973
 604.40;12769.040;  -37.040;    0.000;12806.08004
 604.67;12731.840;  -31.720;    0.000;12763.55984
 604.95;12629.580;  -36.850;    0.000;12666.43008
 605.22;12534.900;  -36.400;    0.000;12571.30039
 605.50;12434.180;  -42.480;    0.000;12476.65969
 605.77;12337.640;  -37.250;    0.000;12374.88965
 606.05;12255.660;  -39.640;    0.000;12295.30016
 606.33;12160.760;  -35.100;    0.000;12195.85976
 606.60;12113.760;  -44.280;    0.000;12158.03976
 606.88;12067.500;  -33.550;    0.000;12101.05000
 607.15;11912.420;  -35.810;    0.000;11948.22992
 607.43;11852.600;  -38.570;    0.000;11891.16961
 607.70;11807.660;  -33.540;    0.000;11841.20016
 607.98;11659.100;  -38.040;    0.000;11697.13961
 608.25;11585.820;  -39.360;    0.000;11625.18031
 608.53;11489.740;  -46.700;    0.000;11536.44024
 608.80;11483.120;  -39.200;    0.000;11522.32012
 609.08;11369.920;  -41.820;    0.000;11411.73992
 609.35;11272.440;  -35.520;    0.000;11307.96043
 609.63;11262.020;  -44.390;    0.000;11306.40953
 609.90;11147.440;  -36.930;    0.000;11184.37043
 610.18;11081.880;  -28.100;    0.000;11109.97988
 610.45;11011.540;  -47.230;    0.000;11058.77004
 610.73;10929.920;  -40.590;    0.000;10970.50992
 611.00;10916.720;  -28.940;    0.000;10945.65973
 611.28;10819.020;  -41.770;    0.000;10860.78953
 611.55;10680.360;  -47.150;    0.000;10727.51035
 611.83;10694.700;  -42.410;    0.000;10737.11020
 612.10;10608.700;  -47.870;    0.000;10656.57019
 612.38;10545.900;  -43.330;    0.000;10589.23039
 612.65;10487.980;  -38.760;    0.000;10526.74047
 612.93;10409.160;  -46.440;    0.000;10455.60015
 613.20;10398.480;  -40.520;    0.000;10439.00047
 613.48;10290.040;  -42.680;    0.000;10332.72004
 613.75;10243.340;  -49.140;    0.000;10292.47984
 614.03;10223.440;  -35.760;    0.000;10259.20043
 614.30;10150.920;  -49.280;    0.000;10200.19992
 614.57;10045.680;  -47.070;    0.000;10092.74969
 614.85;10033.760;  -40.710;    0.000;10074.46976
 615.12; 9934.620;  -40.130;    0.000;9974.75012
 615.40; 9916.360;  -45.350;    0.000;9961.71035
 615.67; 9849.020;  -41.120;    0.000;9890.13953
 615.95; 9799.940;  -42.780;    0.000;9842.72043
 616.22; 9750.800;  -39.310;    0.000;9790.10981
 616.50; 9648.220;  -36.190;    0.000;9684.40973
 616.77; 9599.280;  -39.210;    0.000;9638.49027
 617.05; 9561.020;  -40.130;    0.000;9601.14953
 617.32; 9389.480;  -41.510;    0.000;9430.99047
 617.59; 9387.980;  -39.270;    0.000;9427.25047
 617.87; 9201.580;  -46.440;    0.000;9248.02008
 618.14; 9097.140;  -39.430;    0.000;9136.56965
 618.42; 9078.460;  -48.270;    0.000;9126.72996
 618.69; 8952.220;  -42.280;    0.000;8994.49973
 618.97; 8837.820;  -50.160;    0.000;8887.98031
 619.24; 8802.480;  -46.580;    0.000;8849.06047
 619.51; 8624.140;  -37.650;    0.000;8661.78965
 619.79; 8509.680;  -40.650;    0.000;8550.32969
 620.06; 8358.200;  -36.470;    0.000;8394.67020
 620.34; 8171.340;  -42.190;    0.000;8213.52984
 620.61; 8073.980;  -36.840;    0.000;8110.81998
 620.88; 8027.900;  -52.820;    0.000;8080.71990
 621.16; 8098.620;  -38.520;    0.000;8137.14012
 621.43; 8211.380;  -40.070;    0.000;8251.44988
 621.71; 8239.900;  -40.440;    0.000;8280.34039
 621.98; 8111.500;  -42.920;    0.000;8154.42000
 622.25; 8033.440;  -42.110;    0.000;8075.54994
 622.53; 7998.460;  -43.900;    0.000;8042.35996
 622.80; 7945.340;  -48.280;    0.000;7993.61984
 623.08; 7859.160;  -48.410;    0.000;7907.57016
 623.35; 7809.300;  -42.130;    0.000;7851.42981
 623.62; 7761.320;  -41.870;    0.000;7803.18982
 623.90; 7723.440;  -44.400;    0.000;7767.83994
 624.17; 7682.760;  -45.690;    0.000;7728.44976
 624.44; 7623.120;  -37.610;    0.000;7660.73012
 624.72; 7624.980;  -46.110;    0.000;7671.08998
 624.99; 7564.760;  -46.780;    0.000;7611.53976
 625.26; 7632.000;  -48.840;    0.000;7680.84000
 625.54; 7634.720;  -34.500;    0.000;7669.22021
 625.81; 7604.360;  -39.400;    0.000;7643.75986
 626.09; 7625.320;  -42.260;    0.000;7667.57982
 626.36; 7621.460;  -45.970;    0.000;7667.42996
 626.63; 7570.380;  -41.260;    0.000;7611.63988
 626.91; 7557.400;  -45.500;    0.000;7602.89990
 627.18; 7567.560;  -36.360;    0.000;7603.92006
 627.45; 7538.860;  -44.240;    0.000;7583.09986
 627.73; 7476.440;  -37.730;    0.000;7514.16994
 628.00; 7460.780;  -50.130;    0.000;7510.90979
 628.27; 7461.700;  -40.330;    0.000;7502.03020
 628.55; 7421.740;  -44.630;    0.000;7466.37024
 628.82; 7395.280;  -48.870;    0.000;7444.14978
 629.09; 7369.180;  -49.850;    0.000;7419.03017
 629.37; 7369.640;  -48.480;    0.000;7418.12014
 629.64; 7341.920;  -48.280;    0.000;7390.19992
 629.91; 7312.840;  -45.620;    0.000;7358.45984
 630.18; 7255.640;  -51.830;    0.000;7307.47014
 630.46; 7286.240;  -36.850;    0.000;7323.09023
 630.73; 7242.160;  -39.860;    0.000;7282.02016
 631.00; 7229.480;  -47.900;    0.000;7277.37998
 631.28; 7159.420;  -49.040;    0.000;7208.45992
 631.55; 7152.260;  -43.760;    0.000;7196.01976
 631.82; 7149.460;  -44.290;    0.000;7193.74996
 632.10; 7077.680;  -39.890;    0.000;7117.57018
 632.37; 7046.680;  -43.540;    0.000;7090.22018
 632.64; 7126.540;  -40.290;    0.000;7166.83004
 632.91; 7054.780;  -40.250;    0.000;7095.02979
 633.19; 6961.020;  -41.720;    0.000;7002.74002
 633.46; 6966.700;  -51.730;    0.000;7018.43019
 633.73; 6960.560;  -38.000;    0.000;6998.56006
 634.01; 6932.480;  -45.300;    0.000;6977.77998
 634.28; 6890.320;  -41.280;    0.000;6931.59982
 634.55; 6945.600;  -41.150;    0.000;6986.75010
 634.82; 6841.700;  -47.530;    0.000;6889.23019
 635.10; 6787.740;  -39.270;    0.000;6827.01023
 635.37; 6849.420;  -47.120;    0.000;6896.53992
 635.64; 6777.100;  -54.360;    0.000;6831.46010
 635.91; 6807.060;  -48.020;    0.000;6855.08006
 636.19; 6843.380;  -44.600;    0.000;6887.97988
 636.46; 6806.080;  -48.800;    0.000;6854.88008
 636.73; 6798.900;  -39.570;    0.000;6838.46990
 637.00; 6849.400;  -42.160;    0.000;6891.55990
 637.28; 6791.840;  -50.320;    0.000;6842.15984
 637.55; 6813.460;  -43.570;    0.000;6857.02996
 637.82; 6707.240;  -46.760;    0.000;6754.00023
 638.09; 6609.420;  -39.060;    0.000;6648.47992
 638.37; 6489.080;  -46.470;    0.000;6535.55008
 638.64; 6453.120;  -47.310;    0.000;6500.43012
 638.91; 6457.320;  -41.310;    0.000;6498.62983
 639.18; 6437.020;  -43.470;    0.000;6480.49002
 639.46; 6402.140;  -48.390;    0.000;6450.53014
 639.73; 6355.860;  -39.780;    0.000;6395.63986
 640.00; 6279.160;  -45.530;    0.000;6324.69016
 640.27; 6281.060;  -46.560;    0.000;6327.62006
 640.54; 6212.380;  -51.660;    0.000;6264.03988
 640.82; 6159.940;  -48.560;    0.000;6208.49994
 641.09; 6145.200;  -48.760;    0.000;6193.96019
 641.36; 6019.380;  -46.200;    0.000;6065.57988
 641.63; 6039.380;  -55.600;    0.000;6094.97988
 641.91; 5964.840;  -46.400;    0.000;6011.23985
 642.18; 5924.820;  -52.210;    0.000;5977.02982
 642.45; 5855.620;  -52.490;    0.000;5908.11012
 642.72; 5746.380;  -53.360;    0.000;5799.73988
 642.99; 5763.860;  -36.570;    0.000;5800.42986
 643.26; 5712.340;  -47.650;    0.000;5759.98985
 643.54; 5637.920;  -40.710;    0.000;5678.62992
 643.81; 5579.340;  -55.630;    0.000;5634.96984
 644.08; 5583.660;  -47.930;    0.000;5631.59016
 644.35; 5505.000;  -48.850;    0.000;5553.85000
 644.62; 5441.760;  -49.000;    0.000;5490.75977
 644.90; 5419.000;  -43.820;    0.000;5462.82000
 645.17; 5410.660;  -51.370;    0.000;5462.03016
 645.44; 5378.600;  -47.130;    0.000;5425.73010
 645.71; 5311.220;  -49.200;    0.000;5360.42022
 645.98; 5300.960;  -46.690;    0.000;5347.64996
 646.25; 5245.040;  -46.940;    0.000;5291.98004
 646.53; 5260.900;  -50.370;    0.000;5311.26990
 646.80; 5178.900;  -42.780;    0.000;5221.67990
 647.07; 5149.200;  -59.170;    0.000;5208.37019
 647.34; 5168.280;  -47.590;    0.000;5215.86979
 647.61; 5117.660;  -45.690;    0.000;5163.35015
 647.88; 5064.480;  -38.410;    0.000;5102.88998
 648.15; 5047.940;  -51.900;    0.000;5099.83994
 648.43; 5003.760;  -52.460;    0.000;5056.21976
 648.70; 4967.880;  -50.870;    0.000;5018.74988
 648.97; 4952.640;  -44.090;    0.000;4996.73014
 649.24; 4904.820;  -46.570;    0.000;4951.38982
 649.51; 4848.180;  -56.440;    0.000;4904.62017
 649.78; 4842.300;  -48.510;    0.000;4890.80980
 650.05; 4844.120;  -44.310;    0.000;4888.43012
 650.32; 4881.300;  -21.090;    0.000;4902.38980
 650.60; 4787.620;  -47.320;    0.000;4834.94012
 650.87; 4742.920;  -50.640;    0.000;4793.55992
 651.14; 4705.180;  -54.410;    0.000;4759.59018
 651.41; 4688.100;  -54.500;    0.000;4742.60010
 651.68; 4648.100;  -50.510;    0.000;4698.61010
 651.95; 4618.160;  -48.670;    0.000;4666.83015
 652.22; 4593.160;  -53.000;    0.000;4646.16016
 652.49; 4533.300;  -58.480;    0.000;4591.77980
 652.76; 4538.180;  -53.540;    0.000;4591.72018
 653.03; 4534.500;  -48.460;    0.000;4582.96000
 653.31; 4480.380;  -50.850;    0.000;4531.22988
 653.58; 4472.340;  -50.660;    0.000;4522.99984
 653.85; 4391.800;  -53.770;    0.000;4445.56981
 654.12; 4428.960;  -52.700;    0.000;4481.65996
 654.39; 4332.580;  -49.080;    0.000;4381.66008
 654.66; 4374.660;  -44.350;    0.000;4419.01015
 654.93; 4356.060;  -40.020;    0.000;4396.08006
 655.20; 4256.800;  -51.700;    0.000;4308.49981
 655.47; 4254.380;  -52.020;    0.000;4306.39988
 655.74; 4252.480;  -46.170;    0.000;4298.64998
 656.01; 4170.780;  -53.270;    0.000;4224.04979
 656.28; 4186.580;  -53.920;    0.000;4240.50008
 656.55; 4144.640;  -44.780;    0.000;4189.42014
 656.83; 4122.740;  -54.700;    0.000;4177.44024
 657.10; 4072.600;  -54.950;    0.000;4127.55010
 657.37; 4092.540;  -45.470;    0.000;4138.01004
 657.64; 4027.140;  -50.040;    0.000;4077.17989
 657.91; 3988.600;  -54.530;    0.000;4043.13010
 658.18; 4001.100;  -48.090;    0.000;4049.19010
 658.45; 3933.340;  -53.800;    0.000;3987.14009
 658.72; 3946.260;  -49.560;    0.000;3995.82001
 658.99; 3924.680;  -52.810;    0.000;3977.48993
 659.26; 3906.320;  -44.460;    0.000;3950.78007
 659.53; 3904.540;  -53.390;    0.000;3957.93004
 659.80; 3857.260;  -50.980;    0.000;3908.24001
 660.07; 3827.160;  -41.400;    0.000;3868.55991
 660.34; 3785.240;  -52.590;    0.000;3837.82999
 660.61; 3771.120;  -54.010;    0.000;3825.13012
 660.88; 3755.660;  -49.010;    0.000;3804.66991
 661.15; 3745.680;  -45.510;    0.000;3791.18993
 661.42; 3695.560;  -52.000;    0.000;3747.56006
 661.69; 3653.240;  -51.660;    0.000;3704.89999
 661.96; 3628.780;  -53.540;    0.000;3682.32003
 662.23; 3637.660;  -54.210;    0.000;3691.86991
 662.50; 3589.480;  -55.200;    0.000;3644.67998
 662.77; 3575.940;  -57.340;    0.000;3633.27994
 663.04; 3507.300;  -55.460;    0.000;3562.76005
 663.31; 3538.920;  -53.020;    0.000;3591.93992
 663.58; 3489.440;  -53.790;    0.000;3543.22994
 663.85; 3469.580;  -48.190;    0.000;3517.77008
 664.12; 3438.360;  -49.170;    0.000;3487.53011
 664.39; 3429.620;  -57.490;    0.000;3487.11012
 664.66; 3405.140;  -56.420;    0.000;3461.55989
 664.93; 3366.680;  -57.810;    0.000;3424.48993
 665.20; 3358.420;  -45.510;    0.000;3403.92992
 665.47; 3332.380;  -47.500;    0.000;3379.87988
 665.74; 3300.740;  -56.240;    0.000;3356.97999
 666.01; 3287.540;  -52.970;    0.000;3340.51004
 666.28; 3263.180;  -53.610;    0.000;3316.78993
 666.55; 3264.840;  -48.340;    0.000;3313.18009
 666.82; 3204.060;  -58.560;    0.000;3262.62006
 667.09; 3182.940;  -54.770;    0.000;3237.70994
 667.36; 3169.040;  -51.960;    0.000;3221.00004
 667.63; 3143.720;  -48.120;    0.000;3191.83997
 667.90; 3112.500;  -50.500;    0.000;3163.00000
 668.16; 3129.240;  -51.760;    0.000;3180.99999
 668.43; 3072.600;  -52.290;    0.000;3124.89010
 668.70; 3069.300;  -50.190;    0.000;3119.49005
 668.97; 3028.800;  -54.900;    0.000;3083.70005
 669.24; 3030.660;  -50.670;    0.000;3081.32991
 669.51; 2998.620;  -47.280;    0.000;3045.90012
 669.78; 2962.380;  -57.020;    0.000;3019.39988
 670.05; 2977.200;  -53.780;    0.000;3030.97995
 670.32; 2990.160;  -47.630;    0.000;3037.78991
 670.59; 2926.360;  -59.380;    0.000;2985.74011
 670.86; 2887.780;  -54.490;    0.000;2942.27003
 671.13; 2896.680;  -53.370;    0.000;2950.04993
 671.40; 2839.500;  -52.030;    0.000;2891.53000
 671.67; 2856.460;  -50.040;    0.000;2906.49996
 671.93; 2807.180;  -55.350;    0.000;2862.52993
 672.20; 2787.040;  -58.000;    0.000;2845.04004
 672.47; 2770.000;  -49.890;    0.000;2819.89000
 672.74; 2746.720;  -48.940;    0.000;2795.65997
 673.01; 2736.060;  -62.990;    0.000;2799.05006
 673.28; 2717.760;  -53.910;    0.000;2771.67001
 673.55; 2689.360;  -54.610;    0.000;2743.97011
 673.82; 2667.560;  -51.100;    0.000;2718.66006
 674.09; 2649.100;  -52.250;    0.000;2701.35010
 674.35; 2629.680;  -58.740;    0.000;2688.41993
 674.62; 2618.820;  -44.900;    0.000;2663.72007
 674.89; 2591.880;  -53.110;    0.000;2644.98988
 675.16; 2598.480;  -47.910;    0.000;2646.38998
 675.43; 2540.280;  -52.020;    0.000;2592.30003
 675.70; 2569.480;  -36.370;    0.000;2605.84998
 675.97; 2514.780;  -55.340;    0.000;2570.12003
 676.24; 2513.640;  -47.960;    0.000;2561.59989
 676.50; 2443.340;  -59.330;    0.000;2502.67009
 676.77; 2475.480;  -60.020;    0.000;2535.49998
 677.04; 2456.280;  -47.110;    0.000;2503.39003
 677.31; 2412.040;  -55.920;    0.000;2467.96004
 677.58; 2411.800;  -52.120;    0.000;2463.92005
 677.85; 2387.440;  -48.990;    0.000;2436.42994
 678.12; 2386.300;  -52.160;    0.000;2438.46005
 678.38; 2342.200;  -54.140;    0.000;2396.33995
 678.65; 2329.500;  -60.680;    0.000;2390.18000
 678.92; 2321.960;  -53.340;    0.000;2375.29996
 679.19; 2338.440;  -39.870;    0.000;2378.30994
 679.46; 2312.460;  -46.760;    0.000;2359.21996
 679.73; 2271.820;  -59.180;    0.000;2331.00007
 679.99; 2247.920;  -56.270;    0.000;2304.18992
 680.26; 2233.200;  -54.520;    0.000;2287.71995
 680.53; 2193.080;  -59.650;    0.000;2252.73008
 680.80; 2196.780;  -56.750;    0.000;2253.53003
 681.07; 2187.100;  -55.340;    0.000;2242.44010
 681.33; 2192.700;  -54.670;    0.000;2247.36995
 681.60; 2146.020;  -52.230;    0.000;2198.25002
 681.87; 2120.300;  -54.620;    0.000;2174.92005
 682.14; 2134.220;  -52.270;    0.000;2186.48997
 682.41; 2092.740;  -57.990;    0.000;2150.72999
 682.67; 2102.600;  -50.450;    0.000;2153.05010
 682.94; 2064.880;  -59.360;    0.000;2124.23988
 683.21; 2064.200;  -53.700;    0.000;2117.89995
 683.48; 2022.600;  -55.450;    0.000;2078.04998
 683.75; 2025.700;  -47.950;    0.000;2073.64995
 684.01; 2020.340;  -46.370;    0.000;2066.70996
 684.28; 1977.540;  -57.410;    0.000;2034.95004
 684.55; 1979.220;  -54.400;    0.000;2033.61997
 684.82; 1990.480;  -62.610;    0.000;2053.08998
 685.09; 1965.400;  -45.320;    0.000;2010.72002
 685.35; 1950.140;  -50.950;    0.000;2001.09002
 685.62; 1925.100;  -53.810;    0.000;1978.90998
 685.89; 1906.220;  -50.790;    0.000;1957.00997
 686.16; 1877.660;  -60.890;    0.000;1938.55003
 686.42; 1885.200;  -53.860;    0.000;1939.05995
 686.69; 1849.700;  -49.770;    0.000;1899.46995
 686.96; 1850.960;  -58.350;    0.000;1909.30996
 687.23; 1843.980;  -53.370;    0.000;1897.34998
 687.49; 1851.260;  -46.350;    0.000;1897.61001
 687.76; 1796.840;  -56.190;    0.000;1853.02996
 688.03; 1779.020;  -57.270;    0.000;1836.29002
 688.30; 1763.560;  -63.910;    0.000;1827.47006
 688.56; 1752.760;  -49.760;    0.000;1802.52001
 688.83; 1764.540;  -58.260;    0.000;1822.80004
 689.10; 1732.800;  -59.880;    0.000;1792.68005
 689.37; 1708.560;  -60.250;    0.000;1768.81006
 689.63; 1709.720;  -58.120;    0.000;1767.83997
 689.90; 1709.620;  -42.960;    0.000;1752.57999
 690.17; 1669.120;  -57.170;    0.000;1726.28999
 690.44; 1650.320;  -53.100;    0.000;1703.41994
 690.70; 1631.640;  -64.370;    0.000;1696.01002
 690.97; 1640.140;  -52.060;    0.000;1692.20002
 691.24; 1634.140;  -45.640;    0.000;1679.78001
 691.50; 1608.660;  -63.810;    0.000;1672.47004
 691.77; 1603.480;  -61.380;    0.000;1664.85998
 692.04; 1595.240;  -50.390;    0.000;1645.62999
 692.30; 1549.760;  -61.100;    0.000;1610.86001
 692.57; 1561.320;  -55.730;    0.000;1617.04995
 692.84; 1529.720;  -60.990;    0.000;1590.70997
 693.11; 1527.220;  -51.860;    0.000;1579.07997
 693.37; 1523.140;  -50.850;    0.000;1573.99001
 693.64; 1485.800;  -63.550;    0.000;1549.35005
 693.91; 1484.580;  -52.450;    0.000;1537.02996
 694.17; 1479.500;  -52.150;    0.000;1531.65000
 694.44; 1475.780;  -55.600;    0.000;1531.38003
 694.71; 1441.280;  -66.220;    0.000;1507.50003
 694.97; 1423.020;  -60.180;    0.000;1483.20002
 695.24; 1401.120;  -60.420;    0.000;1461.53999
 695.51; 1388.640;  -64.250;    0.000;1452.89001
 695.77; 1381.180;  -53.070;    0.000;1434.25005
 696.04; 1368.940;  -57.450;    0.000;1426.38994
 696.31; 1354.680;  -55.850;    0.000;1410.53005
 696.57; 1378.040;  -48.360;    0.000;1426.40004
 696.84; 1324.580;  -56.540;    0.000;1381.11996
 697.11; 1322.920;  -49.450;    0.000;1372.37004
 697.37; 1315.660;  -52.390;    0.000;1368.05003
 697.64; 1289.120;  -50.550;    0.000;1339.66999
 697.91; 1273.260;  -63.040;    0.000;1336.30001
 698.17; 1265.800;  -58.460;    0.000;1324.26005
 698.44; 1252.360;  -54.420;    0.000;1306.77998
 698.71; 1258.580;  -60.630;    0.000;1319.20996
 698.97; 1227.700;  -56.130;    0.000;1283.82995
 699.24; 1214.640;  -57.190;    0.000;1271.83001
 699.50; 1181.600;  -63.610;    0.000;1245.20998
 699.77; 1184.380;  -63.480;    0.000;1247.86000
 700.04; 1160.480;  -56.390;    0.000;1216.86998
 700.30; 1139.040;  -57.580;    0.000;1196.62004
 700.57; 1132.220;  -57.160;    0.000;1189.37997
 700.84; 1137.180;  -52.700;    0.000;1189.88005
 701.10; 1089.700;  -55.650;    0.000;1145.34995
 701.37; 1106.180;  -57.060;    0.000;1163.24006
 701.63; 1052.800;  -60.840;    0.000;1113.64005
 701.90; 1070.040;  -55.460;    0.000;1125.50004
 702.17; 1059.440;  -46.530;    0.000;1105.96994
 702.43; 1024.160;  -56.900;    0.000;1081.06004
 702.70; 1039.560;  -43.080;    0.000;1082.64006
 702.96;  993.500;  -57.550;    0.000;1051.05000
 703.23;  977.820;  -63.900;    0.000;1041.72001
 703.50;  989.720;  -57.740;    0.000;1047.45997
 703.76;  964.140;  -60.140;    0.000;1024.28001
 704.03;  960.320;  -62.000;    0.000;1022.32001
 704.29;  940.400;  -56.620;    0.000;997.02002
 704.56;  910.180;  -66.340;    0.000;976.51999
 704.82;  909.900;  -61.140;    0.000;971.04002
 705.09;  910.420;  -50.240;    0.000;960.65998
 705.36;  869.100;  -63.730;    0.000;932.82998
 705.62;  901.940;  -45.100;    0.000;947.04000
 705.89;  849.640;  -57.710;    0.000;907.35001
 706.15;  850.540;  -52.660;    0.000;903.19998
 706.42;  832.840;  -49.750;    0.000;882.59003
 706.68;  811.600;  -59.540;    0.000;871.13998
 706.95;  786.940;  -55.380;    0.000;842.32000
 707.21;  784.860;  -63.590;    0.000;848.44999
 707.48;  778.380;  -61.770;    0.000;840.15001
 707.75;  774.880;  -54.600;    0.000;829.48000
 708.01;  748.540;  -64.580;    0.000;813.11998
 708.28;  750.100;  -55.470;    0.000;805.56998
 708.54;  724.080;  -64.490;    0.000;788.57001
 708.81;  719.480;  -52.630;    0.000;772.10998
 709.07;  698.580;  -58.430;    0.000;757.01002
 709.34;  696.580;  -63.150;    0.000;759.73002
 709.60;  674.240;  -59.760;    0.000;733.99999
 709.87;  701.800;  -51.730;    0.000;753.52999
 710.13;  664.480;  -58.250;    0.000;722.72998
 710.40;  652.180;  -67.870;    0.000;720.05000
 710.66;  640.260;  -58.170;    0.000;698.43001
 710.93;  631.840;  -58.390;    0.000;690.23003
 711.19;  632.720;  -60.660;    0.000;693.37997
 711.46;  616.660;  -53.110;    0.000;669.76997
 711.72;  613.540;  -53.100;    0.000;666.63998
 711.99;  598.500;  -64.700;    0.000;663.20000
 712.25;  610.660;  -54.480;    0.000;665.13997
 712.52;  605.860;  -51.400;    0.000;657.25999
 712.78;  575.280;  -54.830;    0.000;630.11003
 713.05;  560.360;  -61.310;    0.000;621.66999
 713.31;  568.780;  -54.880;    0.000;623.66003
 713.58;  561.360;  -56.790;    0.000;618.14999
 713.84;  558.440;  -53.100;    0.000;611.54000
 714.11;  552.660;  -62.430;    0.000;615.08997
 714.37;  543.720;  -52.180;    0.000;595.89997
 714.64;  538.120;  -54.400;    0.000;592.52000
 714.90;  523.200;  -53.310;    0.000;576.51001
 715.17;  524.400;  -57.550;    0.000;581.95002
 715.43;  521.240;  -50.260;    0.000;571.49999
 715.70;  508.480;  -55.710;    0.000;564.19001
 715.96;  499.140;  -54.690;    0.000;553.83001
 716.22;  500.440;  -61.380;    0.000;561.82000
 716.49;  486.700;  -58.790;    0.000;545.49001
 716.75;  489.740;  -62.550;    0.000;552.28999
 717.02;  495.740;  -58.140;    0.000;553.87999
 717.28;  475.060;  -63.690;    0.000;538.75000
 717.55;  459.620;  -62.720;    0.000;522.34000
 717.81;  471.400;  -56.110;    0.000;527.50999
 718.08;  469.880;  -58.860;    0.000;528.74001
 718.34;  468.060;  -65.190;    0.000;533.25000
 718.60;  485.220;  -51.960;    0.000;537.18000
 718.87;  482.640;  -58.480;    0.000;541.12001
 719.13;  470.000;  -63.390;    0.000;533.39000
 719.40;  471.860;  -57.650;    0.000;529.50999
 719.66;  466.240;  -60.260;    0.000;526.49999
 719.93;  463.460;  -56.900;    0.000;520.35999
 720.19;  440.480;  -67.380;    0.000;507.86001
 720.45;  454.620;  -62.750;    0.000;517.37000
 720.72;  447.500;  -57.950;    0.000;505.45000
 720.98;  456.300;  -55.200;    0.000;511.49999
 721.25;  435.760;  -64.310;    0.000;500.07001
 721.51;  455.460;  -68.290;    0.000;523.74999
 721.77;  443.820;  -60.350;    0.000;504.17001
 722.04;  466.340;  -45.030;    0.000;511.37000
 722.30;  441.740;  -55.770;    0.000;497.50999
 722.57;  446.900;  -60.430;    0.000;507.32999
 722.83;  447.500;  -62.410;    0.000;509.91000
 723.09;  447.500;  -64.170;    0.000;511.67000
 723.36;  429.440;  -64.180;    0.000;493.62000
 723.62;  445.560;  -58.620;    0.000;504.18000
 723.88;  446.140;  -56.860;    0.000;503.00002
 724.15;  437.940;  -56.520;    0.000;494.46000
 724.41;  414.020;  -63.620;    0.000;477.63999
 724.68;  424.060;  -62.790;    0.000;486.85000
 724.94;  447.260;  -49.670;    0.000;496.93001
 725.20;  431.540;  -59.760;    0.000;491.30001
 725.47;  403.800;  -61.790;    0.000;465.58999
 725.73;  427.160;  -57.560;    0.000;484.72001
 725.99;  416.220;  -62.280;    0.000;478.50000
 726.26;  429.080;  -48.740;    0.000;477.81999
 726.52;  432.400;  -52.300;    0.000;484.69999
 726.78;  409.360;  -64.050;    0.000;473.40999
 727.05;  408.540;  -58.610;    0.000;467.15001
 727.31;  426.420;  -65.490;    0.000;491.91001
 727.57;  409.920;  -61.120;    0.000;471.04001
 727.84;  407.800;  -54.090;    0.000;461.88999
 728.10;  421.800;  -57.090;    0.000;478.88999
 728.36;  415.780;  -62.130;    0.000;477.91000
 728.63;  409.040;  -64.770;    0.000;473.81001
 728.89;  411.700;  -68.210;    0.000;479.91001
 729.15;  405.820;  -60.940;    0.000;466.76001
 729.42;  399.960;  -64.380;    0.000;464.33999
 729.68;  405.200;  -59.120;    0.000;464.32001
 729.94;  385.240;  -61.710;    0.000;446.94999
 730.21;  396.180;  -63.750;    0.000;459.92999
 730.47;  384.220;  -65.420;    0.000;449.64000
 730.73;  391.080;  -62.120;    0.000;453.19999
 731.00;  388.420;  -57.710;    0.000;446.13001
 731.26;  378.660;  -55.830;    0.000;434.49001
 731.52;  374.240;  -65.480;    0.000;439.71999
 731.78;  365.320;  -64.150;    0.000;429.47001
 732.05;  373.300;  -63.760;    0.000;437.05999
 732.31;  376.600;  -66.150;    0.000;442.75001
 732.57;  384.520;  -62.040;    0.000;446.55999
 732.84;  367.340;  -65.060;    0.000;432.39999
 733.10;  366.280;  -61.680;    0.000;427.96000
 733.36;  357.320;  -65.560;    0.000;422.88000
 733.62;  356.160;  -68.590;    0.000;424.75000
 733.89;  354.460;  -60.690;    0.000;415.14999
 734.15;  354.880;  -62.020;    0.000;416.90001
 734.41;  362.160;  -59.170;    0.000;421.33000
 734.67;  346.480;  -65.610;    0.000;412.09001
 734.94;  337.160;  -64.100;    0.000;401.26000
 735.20;  346.380;  -64.260;    0.000;410.64001
 735.46;  340.380;  -61.760;    0.000;402.14000
 735.73;  341.840;  -62.280;    0.000;404.12000
 735.99;  333.100;  -63.580;    0.000;396.68001
 736.25;  347.720;  -65.330;    0.000;413.05000
 736.51;  316.800;  -64.780;    0.000;381.57999
 736.77;  336.460;  -59.870;    0.000;396.32999
 737.04;  326.080;  -62.400;    0.000;388.47999
 737.30;  322.020;  -60.030;    0.000;382.04999
 737.56;  325.860;  -57.690;    0.000;383.54998
 737.82;  317.180;  -62.400;    0.000;379.57999
 738.09;  313.560;  -61.080;    0.000;374.64000
 738.35;  305.500;  -65.060;    0.000;370.56000
 738.61;  317.400;  -60.770;    0.000;378.16999
 738.87;  311.220;  -61.660;    0.000;372.88000
 739.14;  306.000;  -59.450;    0.000;365.45000
 739.40;  295.760;  -66.620;    0.000;362.38001
 739.66;  312.220;  -65.480;    0.000;377.70000
 739.92;  271.700;  -64.110;    0.000;335.81001
 740.18;  292.560;  -58.910;    0.000;351.47000
 740.45;  283.280;  -66.570;    0.000;349.85000
 740.71;  287.720;  -64.190;    0.000;351.91000
 740.97;  298.760;  -61.620;    0.000;360.38001
 741.23;  282.580;  -64.440;    0.000;347.01999
 741.49;  280.900;  -61.870;    0.000;342.76999
 741.76;  271.520;  -69.670;    0.000;341.18999
 742.02;  273.800;  -70.580;    0.000;344.37999
 742.28;  283.080;  -67.810;    0.000;350.88998
 742.54;  265.660;  -67.320;    0.000;332.98000
 742.80;  270.560;  -66.940;    0.000;337.50000
 743.06;  270.280;  -60.220;    0.000;330.50000
 743.33;  273.960;  -60.250;    0.000;334.20999
 743.59;  261.840;  -71.210;    0.000;333.05000
 743.85;  248.900;  -63.280;    0.000;312.17999
 744.11;  254.780;  -65.520;    0.000;320.30000
 744.37;  250.820;  -63.300;    0.000;314.12001
 744.63;  248.520;  -62.430;    0.000;310.95000
 744.90;  242.820;  -61.300;    0.000;304.12001
 745.16;  245.700;  -61.400;    0.000;307.10000
 745.42;  244.840;  -69.410;    0.000;314.25000
 745.68;  239.920;  -62.770;    0.000;302.69000
 745.94;  265.920;  -54.740;    0.000;320.66002
 746.20;  224.760;  -62.940;    0.000;287.69999
 746.46;  235.140;  -58.490;    0.000;293.63000
 746.72;  240.700;  -60.020;    0.000;300.72000
 746.99;  211.420;  -59.340;    0.000;270.76000
 747.25;  242.400;  -54.110;    0.000;296.50999
 747.51;  211.640;  -63.240;    0.000;274.88000
 747.77;  225.480;  -66.010;    0.000;291.49000
 748.03;  214.380;  -65.590;    0.000;279.97000
 748.29;  221.560;  -63.300;    0.000;284.86000
 748.55;  203.800;  -63.610;    0.000;267.41000
 748.81;  190.580;  -65.400;    0.000;255.98000
 749.08;  217.220;  -61.140;    0.000;278.36000
 749.34;  208.500;  -61.020;    0.000;269.52000
 749.60;  204.100;  -61.090;    0.000;265.19001
 749.86;  188.280;  -62.460;    0.000;250.74000
 750.12;  188.220;  -58.080;    0.000;246.30000
 750.38;  201.520;  -66.740;    0.000;268.26000
 750.64;  181.520;  -64.990;    0.000;246.51000
 750.90;  198.460;  -61.010;    0.000;259.47001
 751.16;  187.880;  -66.030;    0.000;253.91000
 751.42;  172.880;  -63.820;    0.000;236.70000
 751.68;  183.900;  -57.490;    0.000;241.39000
 751.95;  159.900;  -66.360;    0.000;226.25999
 752.21;  172.620;  -68.570;    0.000;241.18999
 752.47;  170.040;  -59.310;    0.000;229.34999
 752.73;  164.380;  -72.150;    0.000;236.53001
 752.99;  162.480;  -62.330;    0.000;224.81000
 753.25;  161.380;  -68.210;    0.000;229.59000
 753.51;  154.800;  -66.540;    0.000;221.34000
 753.77;  150.860;  -65.250;    0.000;216.11000
 754.03;  150.340;  -63.310;    0.000;213.65000
 754.29;  136.880;  -69.830;    0.000;206.71001
 754.55;  144.620;  -73.220;    0.000;217.84000
 754.81;  136.380;  -65.730;    0.000;202.11001
 755.07;  143.160;  -60.480;    0.000;203.64000
 755.33;  148.280;  -68.640;    0.000;216.92000
 755.59;  137.480;  -69.750;    0.000;207.23000
 755.85;  118.520;  -61.550;    0.000;180.07000
 756.11;  138.440;  -66.180;    0.000;204.62000
 756.37;  127.640;  -68.200;    0.000;195.84000
 756.63;  148.540;  -52.880;    0.000;201.41999
 756.89;  114.680;  -77.540;    0.000;192.22000
 757.15;  123.460;  -67.220;    0.000;190.68000
 757.41;  161.920;  -51.850;    0.000;213.77000
 757.68;  124.440;  -69.940;    0.000;194.38000
 757.94;  125.660;  -61.100;    0.000;186.76000
 758.20;  134.400;  -60.850;    0.000;195.24999
 758.46;  115.800;  -65.120;    0.000;180.92001
 758.72;  112.080;  -70.550;    0.000;182.63000
 758.98;  127.220;  -58.450;    0.000;185.67000
 759.24;  111.120;  -62.840;    0.000;173.96000
 759.50;  112.100;  -60.370;    0.000;172.47000
 759.76;  109.100;  -58.150;    0.000;167.25000
 760.02;  107.760;  -64.840;    0.000;172.60000
 760.27;   94.060;  -64.360;    0.000;158.42000
 760.53;  102.640;  -61.770;    0.000;164.41000
 760.79;  120.220;  -58.420;    0.000;178.64000
 761.05;  107.060;  -59.730;    0.000;166.79000
 761.31;  116.120;  -68.970;    0.000;185.09000
 761.57;  109.280;  -64.760;    0.000;174.04000
 761.83;  106.420;  -63.850;    0.000;170.27000
 762.09;   77.640;  -60.800;    0.000;138.44000
 762.35;   88.120;  -73.160;    0.000;161.28001
 762.61;   88.800;  -65.790;    0.000;154.59000
 762.87;   95.680;  -64.790;    0.000;160.47000
 763.13;   76.620;  -65.200;    0.000;141.82000
 763.39;  107.340;  -58.510;    0.000;165.84999
 763.65;   86.960;  -65.790;    0.000;152.75000
 763.91;   92.740;  -68.850;    0.000;161.59000
 764.17;   91.760;  -61.550;    0.000;153.31000
 764.43;   89.080;  -65.120;    0.000;154.20000
 764.69;   86.580;  -67.690;    0.000;154.27000
 764.95;   80.740;  -65.290;    0.000;146.03000
 765.21;   78.580;  -64.710;    0.000;143.29000
 765.47;   94.580;  -60.070;    0.000;154.65000
 765.73;   76.880;  -63.090;    0.000;139.97000
 765.98;   90.540;  -62.060;    0.000;152.60000
 766.24;   63.900;  -71.710;    0.000;135.61000
 766.50;   59.800;  -70.390;    0.000;130.19000
 766.76;   79.320;  -59.140;    0.000;138.46000
 767.02;   69.220;  -67.650;    0.000;136.87000
 767.28;   71.940;  -62.770;    0.000;134.71000
 767.54;   66.220;  -65.130;    0.000;131.35000
 767.80;   75.440;  -67.980;    0.000;143.42001
 768.06;   88.820;  -57.150;    0.000;145.97000
 768.32;   83.580;  -55.090;    0.000;138.67000
 768.58;   54.740;  -72.460;    0.000;127.20000
 768.83;   61.780;  -67.770;    0.000;129.55000
 769.09;   65.360;  -63.610;    0.000;128.97000
 769.35;   64.400;  -63.310;    0.000;127.71000
 769.61;   59.180;  -65.500;    0.000;124.68000
 769.87;   63.420;  -60.230;    0.000;123.65000
 770.13;   78.340;  -65.920;    0.000;144.25999
 770.39;   39.880;  -67.330;    0.000;107.21000
 770.65;   64.160;  -65.630;    0.000;129.79000
 770.90;   47.460;  -71.040;    0.000;118.50000
 771.16;   55.700;  -65.650;    0.000;121.35000
 771.42;   68.220;  -60.610;    0.000;128.83000
 771.68;   39.140;  -72.120;    0.000;111.26000
 771.94;   59.200;  -64.270;    0.000;123.47000
 772.20;   52.140;  -71.570;    0.000;123.71000
 772.46;   29.860;  -70.450;    0.000;100.31000
 772.71;   50.740;  -62.790;    0.000;113.53000
 772.97;   64.140;  -61.450;    0.000;125.59000
 773.23;   44.440;  -66.880;    0.000;111.32000
 773.49;   56.780;  -61.900;    0.000;118.68000
 773.75;   27.580;  -66.690;    0.000;94.27000
 774.01;   37.240;  -66.730;    0.000;103.97001
 774.26;   31.720;  -70.110;    0.000;101.83000
 774.52;   53.320;  -57.630;    0.000;110.95000
 774.78;   38.840;  -67.870;    0.000;106.71000
 775.04;   68.260;  -57.380;    0.000;125.64000
 775.30;   37.940;  -70.620;    0.000;108.56000
 775.56;   33.460;  -62.130;    0.000;95.59000
 775.81;   46.280;  -62.360;    0.000;108.64000
 776.07;   34.380;  -63.320;    0.000;97.70000
 776.33;   40.000;  -66.810;    0.000;106.81000
 776.59;   25.760;  -72.310;    0.000;98.07000
 776.85;   21.680;  -72.330;    0.000;94.01000
 777.10;   33.260;  -66.910;    0.000;100.17000
 777.36;   19.220;  -70.350;    0.000;89.57000
 777.62;   48.700;  -66.270;    0.000;114.97000
 777.88;   38.220;  -66.450;    0.000;104.67000
 778.14;   27.000;  -67.860;    0.000;94.86000
 778.39;   34.400;  -69.450;    0.000;103.85000
 778.65;   41.560;  -66.470;    0.000;108.03000
 778.91;   20.800;  -72.700;    0.000;93.50000
 779.17;   29.840;  -59.560;    0.000;89.40000
 779.42;   19.820;  -73.390;    0.000;93.21000
 779.68;   10.600;  -69.660;    0.000;80.26000
 779.94;   26.640;  -68.700;    0.000;95.34000
 780.20;   23.500;  -73.010;    0.000;96.51000
 780.46;   13.540;  -73.730;    0.000;87.27000
 780.71;   39.500;  -65.500;    0.000;105.00000
 780.97;   24.160;  -67.720;    0.000;91.88000
 781.23;    9.420;  -68.470;    0.000;77.89000
 781.49;   15.120;  -65.070;    0.000;80.19000
 781.74;   18.160;  -62.670;    0.000;80.83000
 782.00;   13.080;  -71.050;    0.000;84.13000
 782.26;   20.160;  -61.940;    0.000;82.10000
 782.52;   20.080;  -67.400;    0.000;87.48000
 782.77;   28.180;  -63.130;    0.000;91.31000
 783.03;    7.480;  -72.070;    0.000;79.55000
 783.29;    3.380;  -67.470;    0.000;70.85000
 783.54;   14.180;  -69.510;    0.000;83.69000
 783.80;   41.500;  -61.520;    0.000;103.02000
 784.06;   15.800;  -72.390;    0.000;88.19000
 784.32;   -0.420;  -69.850;    0.000;69.43000
 784.57;   58.500;  -57.390;    0.000;115.89000
 784.83;   -2.080;  -75.500;    0.000;73.42000
 785.09;    4.240;  -75.670;    0.000;79.91000
 785.34;    5.080;  -67.830;    0.000;72.91000
 785.60;   18.140;  -68.990;    0.000;87.13000
 785.86;    6.440;  -65.770;    0.000;72.21000
 786.12;   19.800;  -64.000;    0.000;83.80000
 786.37;   25.580;  -58.590;    0.000;84.17000
 786.63;   -1.080;  -70.160;    0.000;69.08000
 786.89;   24.280;  -64.130;    0.000;88.41000
 787.14;   13.320;  -68.600;    0.000;81.92000
 787.40;    3.160;  -65.120;    0.000;68.28000
 787.66;    5.640;  -69.570;    0.000;75.21000
 787.91;   33.760;  -54.980;    0.000;88.74000
 788.17;    9.500;  -74.240;    0.000;83.74000
 788.43;    0.140;  -65.670;    0.000;65.81000
 788.68;   -6.340;  -66.800;    0.000;60.46000
 788.94;   -0.260;  -64.460;    0.000;64.20000
 789.20;    9.980;  -67.690;    0.000;77.67000
 789.45;  -19.940;  -75.860;    0.000;55.92000
 789.71;   -0.800;  -77.270;    0.000;76.47000
 789.97;   13.960;  -62.650;    0.000;76.61000
 790.22;   -3.980;  -70.660;    0.000;66.68000
 790.48;   -5.960;  -66.280;    0.000;60.32000
 790.74;    3.880;  -69.070;    0.000;72.95000
 790.99;   -5.260;  -67.310;    0.000;62.05000
 791.25;  -18.360;  -72.320;    0.000;53.96000
 791.51;   -7.840;  -69.110;    0.000;61.27000
 791.76;   11.220;  -60.800;    0.000;72.02000
 792.02;   -3.040;  -69.930;    0.000;66.89000
 792.27;    3.500;  -63.120;    0.000;66.62000
 792.53;    2.680;  -67.640;    0.000;70.32000
 792.79;   -0.160;  -74.900;    0.000;74.74000
 793.04;   -1.200;  -66.410;    0.000;65.21000
 793.30;  -12.260;  -72.290;    0.000;60.03000
 793.56;   -5.920;  -64.850;    0.000;58.93000
 793.81;   10.240;  -64.930;    0.000;75.17000
 794.07;  -17.180;  -78.310;    0.000;61.13000
 794.32;    2.600;  -65.850;    0.000;68.45000
 794.58;  -17.360;  -64.290;    0.000;46.93000
 794.84;  -10.260;  -73.370;    0.000;63.11000
 795.09;   -0.760;  -63.290;    0.000;62.53000
 795.35;    4.800;  -68.300;    0.000;73.10000
 795.60;   -0.260;  -67.650;    0.000;67.39000
 795.86;  -17.660;  -68.830;    0.000;51.17000
 796.12;  -10.400;  -75.900;    0.000;65.50000
 796.37;   -8.300;  -66.550;    0.000;58.25000
 796.63;   -1.920;  -68.700;    0.000;66.78000
 796.88;  -17.300;  -72.950;    0.000;55.65000
 797.14;   -4.520;  -65.230;    0.000;60.71000
 797.39;   -4.660;  -61.460;    0.000;56.80000
 797.65;  -19.960;  -68.500;    0.000;48.54000
 797.91;  -14.440;  -79.560;    0.000;65.12000
 798.16;  -14.900;  -69.310;    0.000;54.41000
 798.42;  -25.820;  -73.060;    0.000;47.24000
 798.67;  -26.060;  -75.160;    0.000;49.10000
 798.93;  -22.560;  -72.820;    0.000;50.26000
 799.18;  -16.920;  -69.660;    0.000;52.74000
 799.44;  -24.980;  -74.410;    0.000;49.43000
 799.69;  -21.440;  -72.570;    0.000;51.13000
 799.95;  -23.500;  -76.750;    0.000;53.25000
 800.21;  -19.960;  -71.490;    0.000;51.53000
 800.46;    1.900;  -60.670;    0.000;62.57000
 800.72;  -22.640;  -74.550;    0.000;51.91000
 800.97;  -16.860;  -66.080;    0.000;49.22000
 801.23;  -23.640;  -69.050;    0.000;45.41000
 801.48;  -31.600;  -80.230;    0.000;48.63000
 801.74;  -28.800;  -70.650;    0.000;41.85000
 801.99;   -7.780;  -69.570;    0.000;61.79000
 802.25;  -24.820;  -68.120;    0.000;43.30000
 802.50;  -23.320;  -69.760;    0.000;46.44000
 802.76;   -3.420;  -68.390;    0.000;64.97000
 803.01;  -18.200;  -73.710;    0.000;55.51000
 803.27;  -27.980;  -68.660;    0.000;40.68000
 803.52;  -14.540;  -67.380;    0.000;52.84000
 803.78;   -4.000;  -65.800;    0.000;61.80000
 804.03;  -19.560;  -64.730;    0.000;45.17000
 804.29;  -43.140;  -73.690;    0.000;30.55000
 804.54;  -23.760;  -72.140;    0.000;48.38000
 804.80;  -29.220;  -70.710;    0.000;41.49000
 805.05;  -21.500;  -78.700;    0.000;57.20000
 805.31;  -17.400;  -64.860;    0.000;47.46000
 805.56;  -16.320;  -61.820;    0.000;45.50000
 805.82;  -34.180;  -75.510;    0.000;41.33000
 806.07;  -19.600;  -71.590;    0.000;51.99000
 806.33;  -32.500;  -63.430;    0.000;30.93000
 806.58;  -30.560;  -76.420;    0.000;45.86000
 806.84;  -24.620;  -67.110;    0.000;42.49000
 807.09;  -24.700;  -70.810;    0.000;46.11000
 807.34;  -22.660;  -71.760;    0.000;49.10000
 807.60;  -24.920;  -72.510;    0.000;47.59000
 807.85;  -11.460;  -66.100;    0.000;54.64000
 808.11;  -27.900;  -65.900;    0.000;38.00000
 808.36;  -16.200;  -56.490;    0.000;40.29000
 808.62;  -36.560;  -69.320;    0.000;32.76000
 808.87;  -27.580;  -69.730;    0.000;42.15000
 809.13;  -21.740;  -72.860;    0.000;51.12000
 809.38;  -11.120;  -63.580;    0.000;52.46000
 809.63;  -35.080;  -74.820;    0.000;39.74000
 809.89;  -12.360;  -65.740;    0.000;53.38000
 810.14;  -27.340;  -75.130;    0.000;47.79000
 810.40;  -26.940;  -66.270;    0.000;39.33000
 810.65;  -21.380;  -71.440;    0.000;50.06000
 810.91;  -42.280;  -76.930;    0.000;34.65000
 811.16;  -25.320;  -65.800;    0.000;40.48000
 811.41;  -11.920;  -58.080;    0.000;46.16000
 811.67;  -27.700;  -71.200;    0.000;43.50000
 811.92;  -27.700;  -67.900;    0.000;40.20000
 812.18;  -23.160;  -70.620;    0.000;47.46000
 812.43;  -26.940;  -69.170;    0.000;42.23000
 812.68;  -32.620;  -72.250;    0.000;39.63000
 812.94;  -25.660;  -70.010;    0.000;44.35000
 813.19;  -18.360;  -73.690;    0.000;55.33000
 813.45;   12.360;  -54.460;    0.000;66.82000
 813.70;  -28.260;  -73.310;    0.000;45.05000
 813.95;  -37.080;  -69.970;    0.000;32.89000
 814.21;  -35.720;  -72.990;    0.000;37.27000
 814.46;  -29.240;  -66.200;    0.000;36.96000
 814.71;  -34.760;  -77.220;    0.000;42.46000
 814.97;  -30.040;  -71.610;    0.000;41.57000
 815.22;  -39.600;  -73.660;    0.000;34.06001
 815.48;  -37.940;  -74.930;    0.000;36.99000
 815.73;  -29.240;  -70.320;    0.000;41.08000
 815.98;  -30.500;  -72.260;    0.000;41.76000
 816.24;  -36.840;  -73.690;    0.000;36.85000
 816.49;  -27.140;  -67.570;    0.000;40.43000
 816.74;  -36.280;  -66.060;    0.000;29.78000
 817.00;  -15.140;  -65.110;    0.000;49.97000
 817.25;  -32.280;  -64.360;    0.000;32.08000
 817.50;  -37.380;  -71.190;    0.000;33.81000
 817.76;  -45.740;  -73.870;    0.000;28.13000
 818.01;  -43.640;  -74.140;    0.000;30.50000
 818.26;  -34.740;  -77.660;    0.000;42.92000
 818.52;  -50.660;  -71.160;    0.000;20.50000
 818.77;  -37.440;  -70.450;    0.000;33.01000
 819.02;  136.700;   -1.560;    0.000;138.26000
 819.28;  -29.820;  -76.850;    0.000;47.03000
 819.53;  -40.920;  -76.810;    0.000;35.89000
 819.78;  -39.100;  -71.320;    0.000;32.22000
 820.04;  -38.580;  -76.120;    0.000;37.54000
 820.29;  -31.340;  -69.520;    0.000;38.18000
 820.54;  -31.120;  -71.830;    0.000;40.71000
 820.79;  -31.780;  -68.430;    0.000;36.65000
 821.05;  -59.220;  -73.180;    0.000;13.96000
 821.30;  -15.580;  -60.740;    0.000;45.16000
 821.55;  -22.980;  -56.870;    0.000;33.89000
 821.81;  -36.800;  -72.250;    0.000;35.45000
 822.06;  -37.020;  -64.240;    0.000;27.22000
 822.31;   -7.520;  -64.090;    0.000;56.57000
 822.56;  -47.580;  -71.570;    0.000;23.99000
 822.82;  -46.840;  -74.760;    0.000;27.92000
 823.07;  -54.220;  -77.000;    0.000;22.78000
 823.32;  -59.260;  -86.470;    0.000;27.21000
 823.58;  -32.440;  -70.830;    0.000;38.39000
 823.83;  -48.860;  -68.440;    0.000;19.58000
 824.08;  -49.760;  -68.700;    0.000;18.94000
 824.33;  -61.620;  -78.080;    0.000;16.46000
 824.59;  -52.800;  -75.110;    0.000;22.31000
 824.84;  -56.060;  -73.820;    0.000;17.76000
 825.09;  -42.600;  -71.350;    0.000;28.75000
 825.34;  -43.540;  -78.610;    0.000;35.07000
 825.60;  -48.800;  -76.840;    0.000;28.04000
 825.85;  -51.960;  -72.800;    0.000;20.84000
 826.10;  -63.900;  -75.820;    0.000;11.92000
 826.35;  -39.020;  -78.380;    0.000;39.36000
 826.61;  -51.120;  -69.170;    0.000;18.05000
 826.86;  -50.080;  -74.300;    0.000;24.22000
 827.11;  -50.520;  -73.210;    0.000;22.69000
 827.36;  -55.360;  -79.440;    0.000;24.08000
 827.61;  -54.760;  -77.970;    0.000;23.21000
 827.87;  -41.680;  -73.890;    0.000;32.21000
 828.12;  -47.260;  -78.790;    0.000;31.53000
 828.37;  -46.320;  -76.470;    0.000;30.15000
 828.62;  -47.020;  -66.780;    0.000;19.76000
 828.88;  -28.580;  -68.950;    0.000;40.37000
 829.13;  -35.320;  -65.460;    0.000;30.14000
 829.38;  -50.940;  -74.310;    0.000;23.37000
 829.63;  -52.700;  -76.380;    0.000;23.68000
 829.88;  -44.280;  -77.840;    0.000;33.56000
 830.14;  -46.220;  -68.400;    0.000;22.18000
 830.39;  -30.200;  -67.150;    0.000;36.95000
 830.64;  -50.820;  -73.500;    0.000;22.68000
 830.89;  -32.760;  -63.930;    0.000;31.17000
 831.14;  -42.260;  -65.130;    0.000;22.87000
 831.39;  -61.380;  -80.200;    0.000;18.82000
 831.65;  -59.080;  -73.680;    0.000;14.60000
 831.90;  -55.920;  -76.450;    0.000;20.53000
 832.15;  -50.280;  -74.460;    0.000;24.18000
 832.40;  -40.360;  -71.070;    0.000;30.71000
 832.65;  -54.700;  -65.920;    0.000;11.22000
 832.90;  -44.300;  -71.420;    0.000;27.12000
 833.16;  -55.680;  -70.920;    0.000;15.24000
 833.41;  -47.940;  -68.270;    0.000;20.33000
 833.66;  -60.940;  -80.480;    0.000;19.54000
 833.91;  -43.380;  -69.470;    0.000;26.09000
 834.16;  -61.580;  -74.480;    0.000;12.90000
 834.41;  -57.260;  -78.330;    0.000;21.07000
 834.66;  -54.120;  -73.780;    0.000;19.66000
 834.92;  -50.420;  -76.420;    0.000;26.00000
 835.17;  -59.520;  -79.700;    0.000;20.18000
 835.42;  -48.900;  -74.750;    0.000;25.85000
 835.67;  -55.960;  -67.620;    0.000;11.66000
 835.92;  -65.480;  -76.180;    0.000;10.70000
 836.17;  -62.260;  -73.070;    0.000;10.81000
 836.42;  -60.320;  -80.720;    0.000;20.40000
 836.67;  -60.500;  -72.910;    0.000;12.41000
 836.93;  -55.620;  -67.370;    0.000;11.75000
 837.18;  -49.920;  -68.480;    0.000;18.56001
 837.43;  -50.640;  -77.570;    0.000;26.93000
 837.68;  -48.700;  -75.250;    0.000;26.55000
 837.93;  -56.580;  -77.620;    0.000;21.04000
 838.18;  -59.500;  -72.720;    0.000;13.22000
 838.43;  -63.480;  -77.330;    0.000;13.85000
 838.68;  -53.680;  -75.400;    0.000;21.72000
 838.93;  -56.780;  -76.840;    0.000;20.06000
 839.18;  -37.360;  -68.870;    0.000;31.51000
 839.43;  -44.600;  -68.920;    0.000;24.32000
 839.69;  -71.160;  -75.200;    0.000; 4.03999
 839.94;  -58.300;  -75.060;    0.000;16.76000
 840.19;  -41.420;  -64.900;    0.000;23.48000
 840.44;  -54.380;  -74.590;    0.000;20.21000
 840.69;  -51.380;  -67.680;    0.000;16.30000
 840.94;  -48.320;  -78.800;    0.000;30.48000
 841.19;  -35.660;  -66.410;    0.000;30.75000
 841.44;  -51.540;  -70.390;    0.000;18.85000
 841.69;  -38.320;  -69.710;    0.000;31.39000
 841.94;  -55.820;  -72.650;    0.000;16.83000
 842.19;  -61.900;  -74.280;    0.000;12.38000
 842.44;  -65.100;  -72.650;    0.000; 7.55000
 842.69;  -64.600;  -68.330;    0.000; 3.73000
 842.94;  -57.800;  -71.610;    0.000;13.81000
 843.19;  -57.200;  -78.190;    0.000;20.99000
 843.44;  -58.920;  -74.710;    0.000;15.79000
 843.69;  -63.500;  -76.520;    0.000;13.02000
 843.94;   20.920;  -44.550;    0.000;65.47000
 844.19;  -61.100;  -77.910;    0.000;16.81001
 844.44;  -38.500;  -71.510;    0.000;33.01000
 844.69;  -61.440;  -73.310;    0.000;11.87000
 844.95;  -50.060;  -74.630;    0.000;24.57000
 845.20;  -75.820;  -82.130;    0.000; 6.31000
 845.45;  -42.760;  -68.000;    0.000;25.24000
 845.70;  -60.220;  -72.870;    0.000;12.65000
 845.95;  -60.720;  -74.560;    0.000;13.84000
 846.20;  -58.960;  -71.730;    0.000;12.77000
 846.45;  -65.200;  -77.390;    0.000;12.19000
 846.70;  -51.000;  -65.790;    0.000;14.79000
 846.95;  -59.540;  -75.980;    0.000;16.44000
 847.20;  -63.480;  -73.000;    0.000; 9.52000
 847.44;  -28.340;  -61.130;    0.000;32.79000
 847.69;  -53.280;  -79.180;    0.000;25.90000
 847.94;  -49.720;  -71.950;    0.000;22.23000
 848.19;  -65.340;  -73.590;    0.000; 8.25000
 848.44;  -51.600;  -70.960;    0.000;19.36000
 848.69;  -65.780;  -73.670;    0.000; 7.89000
 848.94;  -58.420;  -69.750;    0.000;11.33000
 849.19;  -73.460;  -80.480;    0.000; 7.02000
 849.44;  -66.140;  -73.190;    0.000; 7.05000
 849.69;  -59.460;  -78.510;    0.000;19.05000
 849.94;  -59.540;  -72.940;    0.000;13.40000
 850.19;  -47.520;  -63.930;    0.000;16.41000
 850.44;  -60.180;  -76.610;    0.000;16.43000
 850.69;  -73.560;  -69.690;    0.000;-3.87000
 850.94;  -67.260;  -77.600;    0.000;10.34000
 851.19;  -57.400;  -72.230;    0.000;14.83000
 851.44;  -63.640;  -76.080;    0.000;12.44000
 851.69;  -62.240;  -76.040;    0.000;13.80000
 851.94;  -61.320;  -79.190;    0.000;17.87000
 852.19;  -55.200;  -76.300;    0.000;21.10000
 852.44;  -56.800;  -74.760;    0.000;17.96000
 852.68;  -73.760;  -75.620;    0.000; 1.86000
 852.93;  -51.160;  -70.590;    0.000;19.43000
 853.18;  -59.540;  -77.250;    0.000;17.71000
 853.43;  -61.700;  -76.120;    0.000;14.42000
 853.68;  -59.120;  -77.810;    0.000;18.69000
 853.93;  -46.500;  -67.550;    0.000;21.05000
 854.18;  -52.140;  -66.630;    0.000;14.49000
 854.43;  -51.940;  -77.970;    0.000;26.03000
 854.68;  -71.300;  -75.490;    0.000; 4.18999
 854.93;  -43.980;  -66.450;    0.000;22.47000
 855.18;  -66.080;  -74.650;    0.000; 8.57000
 855.42;  -45.220;  -72.230;    0.000;27.01000
 855.67;  -62.300;  -71.310;    0.000; 9.01000
 855.92;  -58.420;  -74.510;    0.000;16.09000
 856.17;  -51.500;  -67.440;    0.000;15.94000
 856.42;  -57.560;  -76.160;    0.000;18.60000
 856.67;  -62.460;  -77.970;    0.000;15.51000
 856.92;  -60.540;  -79.620;    0.000;19.08000
 857.17;  -62.940;  -77.870;    0.000;14.93000
 857.41;  -54.220;  -71.030;    0.000;16.81000
 857.66;  -67.600;  -73.290;    0.000; 5.69000
 857.91;  -50.140;  -73.290;    0.000;23.15000
 858.16;  -61.640;  -82.520;    0.000;20.88000
 858.41;  -54.020;  -72.320;    0.000;18.30000
 858.66;  -49.500;  -69.160;    0.000;19.66000
 858.91;  -44.560;  -77.930;    0.000;33.37000
 859.15;  -71.200;  -76.870;    0.000; 5.67001
 859.40;  -36.460;  -68.270;    0.000;31.81000
 859.65;  -72.680;  -84.460;    0.000;11.78000
 859.90;  -73.320;  -79.390;    0.000; 6.07000
 860.15;  -70.320;  -69.890;    0.000;-0.43000
 860.40;  -49.940;  -69.890;    0.000;19.95000
 860.64;  -57.140;  -70.370;    0.000;13.23000
 860.89;  -74.620;  -74.750;    0.000; 0.13000
 861.14;  -52.960;  -70.090;    0.000;17.13000
 861.39;  -46.520;  -69.870;    0.000;23.35000
 861.64;  -70.520;  -75.520;    0.000; 5.00000
 861.88;  -35.160;  -72.380;    0.000;37.22000
 862.13;  -63.560;  -76.230;    0.000;12.67000
 862.38;  -65.820;  -72.450;    0.000; 6.63000
 862.63;  -74.620;  -74.260;    0.000;-0.36000
 862.88;  -62.940;  -69.530;    0.000; 6.59000
 863.12;  -52.180;  -67.960;    0.000;15.78000
 863.37;  -56.580;  -71.990;    0.000;15.41000
 863.62;  -59.380;  -77.420;    0.000;18.04000
 863.87;  -68.880;  -78.180;    0.000; 9.30000
 864.12;  -59.160;  -73.600;    0.000;14.44000
 864.36;  -62.140;  -69.580;    0.000; 7.44000
 864.61;  -62.540;  -73.260;    0.000;10.72000
 864.86;  -65.700;  -78.780;    0.000;13.08000
 865.11;  -49.800;  -68.440;    0.000;18.64000
 865.35;  -56.540;  -68.810;    0.000;12.27000
 865.60;  -56.380;  -71.930;    0.000;15.55000
 865.85;  -48.080;  -72.600;    0.000;24.52000
 866.10;  -66.700;  -75.090;    0.000; 8.39000
 866.34;  -62.480;  -74.150;    0.000;11.67000
 866.59;  -48.660;  -67.290;    0.000;18.63000
 866.84;  -66.440;  -74.630;    0.000; 8.18999
 867.09;  -56.500;  -80.380;    0.000;23.88000
 867.33;  -67.780;  -74.040;    0.000; 6.26000
 867.58;  -63.600;  -71.470;    0.000; 7.87000
 867.83;  -67.760;  -74.280;    0.000; 6.52000
 868.08;  -46.180;  -76.090;    0.000;29.91000
 868.32;  -56.520;  -68.010;    0.000;11.49000
 868.57;  -78.640;  -81.500;    0.000; 2.86000
 868.82;  -53.660;  -72.920;    0.000;19.26000
 869.07;  -69.880;  -81.160;    0.000;11.28001
 869.31;  -58.080;  -69.490;    0.000;11.41000
 869.56;  -74.180;  -84.440;    0.000;10.26000
 869.81;  -58.860;  -83.050;    0.000;24.19000
 870.05;  -74.020;  -79.990;    0.000; 5.97000
 870.30;  -48.000;  -76.070;    0.000;28.07000
 870.55;  -48.940;  -69.170;    0.000;20.23000
 870.80;  -58.060;  -74.860;    0.000;16.80000
 871.04;  -47.560;  -69.280;    0.000;21.72000
 871.29;  -54.300;  -73.970;    0.000;19.67000
 871.54;  -56.560;  -72.650;    0.000;16.09000
 871.78;  -65.360;  -75.650;    0.000;10.29000
 872.03;  -59.900;  -76.460;    0.000;16.56000
 872.28;  -53.960;  -75.610;    0.000;21.65000
 872.52;  -58.460;  -63.940;    0.000; 5.48000
 872.77;  -66.620;  -68.280;    0.000; 1.66000
 873.02;  -70.480;  -78.210;    0.000; 7.73000
 873.26;  -70.440;  -75.910;    0.000; 5.47000
 873.51;  -44.200;  -67.060;    0.000;22.86000
 873.76;  -54.860;  -69.910;    0.000;15.05000
 874.00;  -49.480;  -67.690;    0.000;18.21000
 874.25;  -62.820;  -75.800;    0.000;12.98000
 874.50;  -64.680;  -80.100;    0.000;15.42000
 874.74;  -67.540;  -73.380;    0.000; 5.84000
 874.99;  -66.160;  -77.690;    0.000;11.53000
 875.24;  -44.720;  -71.860;    0.000;27.14000
 875.48;  -65.820;  -75.510;    0.000; 9.69000
 875.73;  -61.080;  -71.020;    0.000; 9.93999
 875.98;  -55.600;  -72.290;    0.000;16.69000
 876.22;  -56.260;  -74.020;    0.000;17.76000
 876.47;  -53.080;  -73.180;    0.000;20.10000
 876.71;  -43.500;  -66.650;    0.000;23.15000
 876.96;  -38.500;  -68.040;    0.000;29.54000
 877.21;  -65.180;  -80.560;    0.000;15.38000
 877.45;  -55.280;  -79.740;    0.000;24.46000
 877.70;  -45.660;  -68.150;    0.000;22.49000
 877.95;  -57.380;  -71.420;    0.000;14.04000
 878.19;  -40.860;  -66.290;    0.000;25.43000
 878.44;  -63.400;  -73.630;    0.000;10.23000
 878.68;  -21.280;  -58.820;    0.000;37.54000
 878.93;  -43.020;  -67.350;    0.000;24.33000
 879.18;  -57.760;  -71.350;    0.000;13.59000
 879.42;  -46.240;  -70.170;    0.000;23.93000
 879.67;  -60.120;  -73.850;    0.000;13.73000
 879.91;  -35.260;  -67.960;    0.000;32.70000
 880.16;  -43.040;  -78.060;    0.000;35.02000
 880.40;  -50.820;  -65.360;    0.000;14.54000
 880.65;  -52.660;  -71.790;    0.000;19.13000
 880.90;  -44.360;  -69.720;    0.000;25.36000
 881.14;  -31.180;  -65.060;    0.000;33.88000
 881.39;  -56.120;  -72.620;    0.000;16.50000
 881.63;  -51.300;  -68.980;    0.000;17.68000
 881.88;  -42.240;  -70.790;    0.000;28.55000
 882.12;  -43.160;  -76.190;    0.000;33.03000
 882.37;  -53.000;  -72.930;    0.000;19.93000
 882.62;  -50.040;  -70.810;    0.000;20.77000
 882.86;  -61.380;  -75.020;    0.000;13.64000
 883.11;  -49.740;  -74.980;    0.000;25.24000
 883.35;  -45.800;  -71.230;    0.000;25.43000
 883.60;  -35.360;  -67.200;    0.000;31.84000
 883.84;  -50.780;  -73.170;    0.000;22.39000
 884.09;  -50.040;  -72.690;    0.000;22.65000
 884.33;  -57.040;  -71.050;    0.000;14.01000
 884.58;  -45.980;  -70.670;    0.000;24.69000
 884.82;  -54.520;  -73.840;    0.000;19.32000
 885.07;  -49.880;  -75.950;    0.000;26.07000
 885.31;  -41.660;  -74.400;    0.000;32.74000
 885.56;  -35.900;  -65.280;    0.000;29.38000
 885.80;  -59.820;  -79.420;    0.000;19.60000
 886.05;  -60.020;  -70.300;    0.000;10.28000
 886.29;  -43.920;  -61.930;    0.000;18.01000
 886.54;  -56.340;  -68.310;    0.000;11.97000
 886.78;  -42.940;  -71.060;    0.000;28.12000
 887.03;  -48.120;  -67.810;    0.000;19.69000
 887.27;  -22.180;  -61.920;    0.000;39.74000
 887.52;  -59.820;  -70.160;    0.000;10.34000
 887.76;  -42.340;  -70.980;    0.000;28.64000
 888.01;  -43.260;  -70.270;    0.000;27.01000
 888.25;  -41.540;  -74.180;    0.000;32.64000
 888.50;  -34.080;  -70.460;    0.000;36.38000
 888.74;  -37.400;  -65.070;    0.000;27.67000
 888.99;  -38.480;  -75.410;    0.000;36.93000
 889.23;  -39.880;  -73.760;    0.000;33.88000
 889.48;  -51.540;  -67.050;    0.000;15.51000
 889.72;  -34.840;  -61.140;    0.000;26.30000
 889.97;  -34.900;  -67.890;    0.000;32.99000
 890.21;  -36.760;  -71.660;    0.000;34.90001
 890.46;  -27.460;  -67.310;    0.000;39.85000
 890.70;  -46.120;  -66.540;    0.000;20.42000
 890.94;  -40.560;  -66.690;    0.000;26.13000
 891.19;  -32.220;  -67.720;    0.000;35.50000
 891.43;  -16.220;  -60.230;    0.000;44.01000
 891.68;  -15.220;  -60.880;    0.000;45.66000
 891.92;  -34.780;  -66.740;    0.000;31.96000
 892.17;  -33.280;  -63.670;    0.000;30.39000
 892.41;  -21.580;  -64.550;    0.000;42.97000
 892.66;  -48.320;  -72.780;    0.000;24.46000
 892.90;   -4.260;  -53.850;    0.000;49.59000
 893.14;  -39.540;  -67.700;    0.000;28.16000
 893.39;  -26.180;  -61.520;    0.000;35.34000
 893.63;  -48.520;  -66.090;    0.000;17.57000
 893.88;  -32.840;  -64.750;    0.000;31.91000
 894.12;  -40.420;  -60.690;    0.000;20.27000
 894.36;  -22.560;  -52.460;    0.000;29.90000
 894.61;  -15.040;  -59.430;    0.000;44.39000
 894.85;  -19.600;  -59.970;    0.000;40.37000
 895.10;  -12.440;  -64.360;    0.000;51.92000
 895.34;  -22.760;  -59.380;    0.000;36.62000
 895.58;  -25.380;  -69.260;    0.000;43.88000
 895.83;  -23.440;  -62.800;    0.000;39.36000
 896.07;  -24.500;  -66.320;    0.000;41.82000
 896.32;  -16.420;  -58.720;    0.000;42.30000
 896.56;  -23.760;  -59.080;    0.000;35.32000
 896.80;  -22.120;  -64.120;    0.000;42.00000
 897.05;  -20.900;  -66.340;    0.000;45.44000
 897.29;  -16.180;  -51.230;    0.000;35.05000
 897.53;  -25.620;  -64.490;    0.000;38.87000
 897.78;  -15.340;  -59.400;    0.000;44.06000
 898.02;   -3.060;  -53.570;    0.000;50.51000
 898.26;  -16.360;  -63.930;    0.000;47.57000
 898.51;   -5.120;  -52.040;    0.000;46.92000
 898.75;  -13.480;  -56.010;    0.000;42.53000
 898.99;   -5.940;  -55.790;    0.000;49.85000
 899.24;    1.160;  -49.180;    0.000;50.34000
 899.48;    2.320;  -48.260;    0.000;50.58000
 899.73;   -6.020;  -54.040;    0.000;48.02000
 899.97;   10.080;  -42.750;    0.000;52.83000
 900.21;   18.120;  -44.210;    0.000;62.33000
 900.46;    2.920;  -41.230;    0.000;44.15000
 900.70;   28.220;  -40.060;    0.000;68.28000
 900.94;    6.620;  -49.340;    0.000;55.96000
 901.18;   27.780;  -43.690;    0.000;71.47000
 901.43;   21.700;  -40.290;    0.000;61.99000
 901.67;   23.980;  -38.410;    0.000;62.39000
 901.91;   27.200;  -29.050;    0.000;56.25000
 902.16;   38.320;  -39.250;    0.000;77.57000
 902.40;   43.640;  -35.010;    0.000;78.65000
 902.64;   49.880;  -28.700;    0.000;78.58000
 902.89;   39.500;  -28.120;    0.000;67.62000
 903.13;   65.660;  -20.830;    0.000;86.49000
 903.37;   74.680;  -22.230;    0.000;96.91000
 903.61;   99.760;   -7.810;    0.000;107.57000
 903.86;   86.300;   -9.670;    0.000;95.97000
 904.10;   94.200;   -7.290;    0.000;101.49000
 904.34;  122.260;    5.810;    0.000;116.45000
 904.59;  135.820;   17.270;    0.000;118.55001
 904.83;  156.640;   23.940;    0.000;132.70000
 905.07;  172.020;   39.780;    0.000;132.24001
 905.31;  197.920;   43.380;    0.000;154.54000
 905.56;  210.380;   56.080;    0.000;154.30000
 905.80;  264.820;   75.520;    0.000;189.30001

