p5
Integration time [ms]:  10.000
Averaging Nr. [scans]: 100
Smoothing Nr. [pixels]: 0
Data measured with spectrometer [name]: 1307078U2
Wave   ;Sample   ;Dark     ;Reference;Scope Corrected for Dark
[nm]   ;[counts] ;[counts] ;[counts] 

 351.07;   18.200;    0.420;    0.000;17.78000
 351.37;   17.950;    2.109;    0.000;15.84125
 351.66;   23.000;    2.484;    0.000;20.51625
 351.95;   26.920;    0.324;    0.000;26.59625
 352.24;    6.880;    1.910;    0.000; 4.97000
 352.54;   13.470;    1.401;    0.000;12.06875
 352.83;   14.780;   -0.629;    0.000;15.40875
 353.12;   20.310;    1.364;    0.000;18.94625
 353.42;    6.450;   -0.535;    0.000; 6.98500
 353.71;    9.530;    2.263;    0.000; 7.26750
 354.00;   10.450;    3.929;    0.000; 6.52125
 354.30;   16.260;    1.025;    0.000;15.23500
 354.59;    8.900;   -0.266;    0.000; 9.16625
 354.88;   13.030;    5.190;    0.000; 7.84000
 355.17;    7.440;   -0.014;    0.000; 7.45375
 355.47;    5.550;    2.134;    0.000; 3.41625
 355.76;   20.450;    0.416;    0.000;20.03375
 356.05;   24.380;    1.192;    0.000;23.18750
 356.35;   17.120;    1.587;    0.000;15.53250
 356.64;   33.450;    1.753;    0.000;31.69750
 356.93;   10.010;    1.768;    0.000; 8.24250
 357.22;   35.070;    1.366;    0.000;33.70375
 357.52;    5.640;    3.320;    0.000; 2.32000
 357.81;   12.440;    1.643;    0.000;10.79750
 358.10;    9.320;   -0.600;    0.000; 9.92000
 358.39;   29.160;    1.461;    0.000;27.69875
 358.69;   12.290;    1.997;    0.000;10.29250
 358.98;   11.750;    0.317;    0.000;11.43250
 359.27;   14.120;    1.446;    0.000;12.67375
 359.57;   13.510;    2.324;    0.000;11.18625
 359.86;   -0.640;   -0.700;    0.000; 0.06000
 360.15;   33.310;    1.474;    0.000;31.83625
 360.44;    5.220;   -0.946;    0.000; 6.16625
 360.74;   26.850;    1.480;    0.000;25.37000
 361.03;    7.330;   -0.345;    0.000; 7.67500
 361.32;   17.780;    2.919;    0.000;14.86125
 361.61;    3.940;    2.338;    0.000; 1.60250
 361.91;   22.570;    2.645;    0.000;19.92500
 362.20;    5.600;    1.590;    0.000; 4.01000
 362.49;   18.020;    1.854;    0.000;16.16625
 362.78;   18.090;    0.435;    0.000;17.65500
 363.08;   16.140;    1.149;    0.000;14.99125
 363.37;    1.690;    0.004;    0.000; 1.68625
 363.66;   23.810;    3.439;    0.000;20.37125
 363.95;    3.690;    2.359;    0.000; 1.33125
 364.24;   23.590;    2.213;    0.000;21.37750
 364.54;    4.170;   -0.068;    0.000; 4.23750
 364.83;   15.540;    2.066;    0.000;13.47375
 365.12;   10.170;   -0.624;    0.000;10.79375
 365.41;   17.570;    3.152;    0.000;14.41750
 365.71;   10.340;    0.161;    0.000;10.17875
 366.00;   11.140;    1.484;    0.000; 9.65625
 366.29;    3.810;    0.876;    0.000; 2.93375
 366.58;    9.450;    2.200;    0.000; 7.25000
 366.87;   23.410;    3.334;    0.000;20.07625
 367.17;   31.490;    4.057;    0.000;27.43250
 367.46;    6.640;    1.112;    0.000; 5.52750
 367.75;   19.080;    0.207;    0.000;18.87250
 368.04;    3.690;    2.296;    0.000; 1.39375
 368.34;   19.660;    3.155;    0.000;16.50500
 368.63;   13.040;    1.982;    0.000;11.05750
 368.92;   22.960;    4.579;    0.000;18.38125
 369.21;   21.020;    0.301;    0.000;20.71875
 369.50;   20.640;    4.056;    0.000;16.58375
 369.80;   15.290;    3.011;    0.000;12.27875
 370.09;   22.760;    2.666;    0.000;20.09375
 370.38;    5.890;    1.489;    0.000; 4.40125
 370.67;   18.880;    2.949;    0.000;15.93125
 370.96;    5.820;    1.915;    0.000; 3.90500
 371.26;   15.850;    3.515;    0.000;12.33500
 371.55;   -1.320;   -0.750;    0.000;-0.57000
 371.84;   16.820;    1.237;    0.000;15.58250
 372.13;    4.940;    0.486;    0.000; 4.45375
 372.42;   26.470;    4.290;    0.000;22.18000
 372.71;   12.980;    2.305;    0.000;10.67500
 373.01;   14.950;    2.734;    0.000;12.21625
 373.30;    8.730;    0.909;    0.000; 7.82125
 373.59;   21.500;    4.401;    0.000;17.09875
 373.88;   14.890;    0.729;    0.000;14.16125
 374.17;   16.570;    5.426;    0.000;11.14375
 374.46;   11.380;    2.037;    0.000; 9.34250
 374.76;   23.320;    3.602;    0.000;19.71750
 375.05;   20.980;    4.131;    0.000;16.84875
 375.34;   11.610;    4.778;    0.000; 6.83250
 375.63;    8.320;   -1.367;    0.000; 9.68750
 375.92;   22.200;    1.354;    0.000;20.84625
 376.21;   -0.350;    0.181;    0.000;-0.53125
 376.51;   10.480;    0.475;    0.000;10.00500
 376.80;   14.270;    3.346;    0.000;10.92375
 377.09;   16.790;    1.947;    0.000;14.84250
 377.38;   14.660;    1.015;    0.000;13.64500
 377.67;   22.400;    2.574;    0.000;19.82625
 377.96;    3.880;    0.863;    0.000; 3.01750
 378.25;   20.760;    3.033;    0.000;17.72750
 378.55;    3.570;    1.080;    0.000; 2.49000
 378.84;   11.470;    4.383;    0.000; 7.08750
 379.13;   10.900;    1.696;    0.000; 9.20375
 379.42;   17.410;    4.142;    0.000;13.26750
 379.71;   11.060;    1.695;    0.000; 9.36500
 380.00;   29.680;    4.409;    0.000;25.27125
 380.29;   -3.100;    0.924;    0.000;-4.02375
 380.59;   12.940;    2.340;    0.000;10.60000
 380.88;   -6.280;    1.253;    0.000;-7.53250
 381.17;   19.030;    2.536;    0.000;16.49375
 381.46;   15.830;    2.259;    0.000;13.57125
 381.75;   16.150;    3.750;    0.000;12.40000
 382.04;    2.080;    3.304;    0.000;-1.22375
 382.33;   12.660;    1.438;    0.000;11.22250
 382.62;   -2.060;    2.980;    0.000;-5.04000
 382.91;   23.300;    3.025;    0.000;20.27500
 383.21;    4.690;   -1.186;    0.000; 5.87625
 383.50;   14.780;    1.279;    0.000;13.50125
 383.79;   13.760;    3.581;    0.000;10.17875
 384.08;   21.230;    1.620;    0.000;19.61000
 384.37;    7.070;    2.861;    0.000; 4.20875
 384.66;   10.120;    0.262;    0.000; 9.85750
 384.95;    9.730;    1.033;    0.000; 8.69750
 385.24;   18.570;    0.772;    0.000;17.79750
 385.53;    2.420;   -1.732;    0.000; 4.15250
 385.83;    8.520;    0.712;    0.000; 7.80750
 386.12;   13.270;    1.009;    0.000;12.26125
 386.41;   10.840;    2.080;    0.000; 8.76000
 386.70;    6.530;    0.155;    0.000; 6.37500
 386.99;   18.760;    0.820;    0.000;17.94000
 387.28;   20.780;    3.057;    0.000;17.72250
 387.57;   18.630;    2.020;    0.000;16.61000
 387.86;    9.050;    1.317;    0.000; 7.73250
 388.15;   16.810;    2.237;    0.000;14.57250
 388.44;    3.750;    1.854;    0.000; 1.89625
 388.73;   21.670;    1.639;    0.000;20.03125
 389.02;    7.070;    1.174;    0.000; 5.89625
 389.31;    7.920;    3.336;    0.000; 4.58375
 389.61;   16.250;    1.742;    0.000;14.50750
 389.90;   20.620;    2.181;    0.000;18.43875
 390.19;    5.260;    0.252;    0.000; 5.00750
 390.48;   12.840;    3.714;    0.000; 9.12625
 390.77;    6.810;    2.156;    0.000; 4.65375
 391.06;   16.400;    0.019;    0.000;16.38125
 391.35;    1.600;    0.766;    0.000; 0.83375
 391.64;   26.040;    4.639;    0.000;21.40125
 391.93;    1.500;    0.449;    0.000; 1.05125
 392.22;   12.870;    2.592;    0.000;10.27750
 392.51;   14.460;    1.247;    0.000;13.21250
 392.80;   15.700;    2.735;    0.000;12.96500
 393.09;   -0.970;    1.086;    0.000;-2.05625
 393.38;   19.050;    0.229;    0.000;18.82125
 393.67;    9.420;    1.561;    0.000; 7.85875
 393.96;   21.220;    1.930;    0.000;19.29000
 394.25;    5.710;    0.956;    0.000; 4.75375
 394.54;    9.630;    1.622;    0.000; 8.00750
 394.83;    3.460;    0.440;    0.000; 3.02000
 395.13;   15.700;    2.201;    0.000;13.49875
 395.42;   10.720;    2.457;    0.000; 8.26250
 395.71;   17.150;    4.305;    0.000;12.84500
 396.00;    1.260;    1.222;    0.000; 0.03750
 396.29;   18.390;    1.178;    0.000;17.21250
 396.58;    1.580;    0.967;    0.000; 0.61250
 396.87;   15.510;    1.986;    0.000;13.52375
 397.16;    1.350;    1.911;    0.000;-0.56125
 397.45;   13.380;    3.014;    0.000;10.36625
 397.74;   16.040;    2.689;    0.000;13.35125
 398.03;   14.470;    2.170;    0.000;12.30000
 398.32;   -1.660;    1.844;    0.000;-3.50375
 398.61;   19.770;    3.154;    0.000;16.61625
 398.90;    8.900;    1.420;    0.000; 7.48000
 399.19;   24.740;    3.316;    0.000;21.42375
 399.48;    3.800;    0.412;    0.000; 3.38750
 399.77;   18.530;    1.786;    0.000;16.74375
 400.06;   18.140;    2.120;    0.000;16.02000
 400.35;   14.990;    3.961;    0.000;11.02875
 400.64;    4.320;    2.411;    0.000; 1.90875
 400.93;   27.210;    3.304;    0.000;23.90625
 401.22;    9.340;    1.479;    0.000; 7.86125
 401.51;   17.170;    3.400;    0.000;13.77000
 401.80;   10.630;    1.049;    0.000; 9.58125
 402.09;   20.230;    1.710;    0.000;18.52000
 402.38;    5.720;    1.655;    0.000; 4.06500
 402.67;   18.190;    2.055;    0.000;16.13500
 402.96;   16.730;    1.381;    0.000;15.34875
 403.25;   29.350;    4.099;    0.000;25.25125
 403.54;    8.780;    2.920;    0.000; 5.86000
 403.83;   11.380;    1.701;    0.000; 9.67875
 404.12;    8.510;    4.244;    0.000; 4.26625
 404.41;   15.740;    7.259;    0.000; 8.48125
 404.70;    4.900;    1.739;    0.000; 3.16125
 404.98;   20.210;    3.635;    0.000;16.57500
 405.27;    8.050;    2.116;    0.000; 5.93375
 405.56;   28.280;    5.247;    0.000;23.03250
 405.85;   -0.450;    1.905;    0.000;-2.35500
 406.14;   16.490;    2.216;    0.000;14.27375
 406.43;    6.580;    0.695;    0.000; 5.88500
 406.72;   15.650;    1.689;    0.000;13.96125
 407.01;    8.730;    2.034;    0.000; 6.69625
 407.30;   18.470;    2.056;    0.000;16.41375
 407.59;    8.790;   -0.241;    0.000; 9.03125
 407.88;   21.530;    1.026;    0.000;20.50375
 408.17;    8.000;    1.819;    0.000; 6.18125
 408.46;   26.950;    2.744;    0.000;24.20625
 408.75;   20.910;    2.339;    0.000;18.57125
 409.04;   11.260;    1.809;    0.000; 9.45125
 409.33;    8.500;    1.810;    0.000; 6.69000
 409.62;   29.850;    3.089;    0.000;26.76125
 409.91;    1.890;    0.704;    0.000; 1.18625
 410.20;   20.610;    1.890;    0.000;18.72000
 410.48;   13.700;    1.309;    0.000;12.39125
 410.77;   13.700;    2.919;    0.000;10.78125
 411.06;   19.620;   -0.224;    0.000;19.84375
 411.35;   25.040;    2.226;    0.000;22.81375
 411.64;    7.850;    2.741;    0.000; 5.10875
 411.93;   18.040;   -0.534;    0.000;18.57375
 412.22;    7.740;    0.561;    0.000; 7.17875
 412.51;    7.020;    2.220;    0.000; 4.80000
 412.80;   13.120;    1.974;    0.000;11.14625
 413.09;   25.120;    0.749;    0.000;24.37125
 413.38;    9.720;    3.604;    0.000; 6.11625
 413.67;    9.670;    0.146;    0.000; 9.52375
 413.96;   -2.900;   -0.986;    0.000;-1.91375
 414.24;   27.620;    2.872;    0.000;24.74750
 414.53;   14.330;    3.146;    0.000;11.18375
 414.82;   24.700;    2.290;    0.000;22.41000
 415.11;   14.720;    2.401;    0.000;12.31875
 415.40;   21.480;    0.995;    0.000;20.48500
 415.69;    7.830;    2.255;    0.000; 5.57500
 415.98;   21.040;    3.622;    0.000;17.41750
 416.27;    1.770;    2.026;    0.000;-0.25625
 416.56;   21.590;    2.160;    0.000;19.43000
 416.84;    9.110;    1.849;    0.000; 7.26125
 417.13;   13.350;    1.085;    0.000;12.26500
 417.42;   20.670;    2.255;    0.000;18.41500
 417.71;   17.260;    0.942;    0.000;16.31750
 418.00;    7.590;   -0.894;    0.000; 8.48375
 418.29;   26.300;    2.760;    0.000;23.54000
 418.58;    9.700;    1.184;    0.000; 8.51625
 418.87;   19.710;    1.616;    0.000;18.09375
 419.15;   10.120;    1.469;    0.000; 8.65125
 419.44;   24.060;    1.505;    0.000;22.55500
 419.73;   11.360;   -0.203;    0.000;11.56250
 420.02;   20.370;    3.578;    0.000;16.79250
 420.31;    3.840;    0.189;    0.000; 3.65125
 420.60;   25.460;    0.344;    0.000;25.11625
 420.89;    6.740;    1.889;    0.000; 4.85125
 421.18;   26.460;    0.249;    0.000;26.21125
 421.46;   11.660;    1.220;    0.000;10.44000
 421.75;   15.310;    1.529;    0.000;13.78125
 422.04;    3.690;    1.446;    0.000; 2.24375
 422.33;   22.640;    1.941;    0.000;20.69875
 422.62;   15.770;    4.503;    0.000;11.26750
 422.91;   21.900;    4.043;    0.000;17.85750
 423.19;   -0.710;    3.485;    0.000;-4.19500
 423.48;   23.180;    1.274;    0.000;21.90625
 423.77;   11.080;    2.696;    0.000; 8.38375
 424.06;   17.510;    3.234;    0.000;14.27625
 424.35;    4.060;    0.522;    0.000; 3.53750
 424.64;   30.130;    3.535;    0.000;26.59500
 424.93;    0.280;   -0.317;    0.000; 0.59750
 425.21;   14.520;    2.582;    0.000;11.93750
 425.50;   11.100;    3.263;    0.000; 7.83750
 425.79;   22.760;    2.591;    0.000;20.16875
 426.08;   14.150;    1.785;    0.000;12.36500
 426.37;   20.130;    1.579;    0.000;18.55125
 426.65;    3.420;    2.955;    0.000; 0.46500
 426.94;   22.360;    2.134;    0.000;20.22625
 427.23;   18.210;    2.475;    0.000;15.73500
 427.52;   19.140;    0.715;    0.000;18.42500
 427.81;    6.840;   -0.177;    0.000; 7.01750
 428.10;   31.270;    2.043;    0.000;29.22750
 428.38;    6.290;    0.154;    0.000; 6.13625
 428.67;   21.580;    2.436;    0.000;19.14375
 428.96;   -1.900;    1.938;    0.000;-3.83750
 429.25;   26.810;    2.326;    0.000;24.48375
 429.54;   17.430;    2.418;    0.000;15.01250
 429.82;   23.650;    2.749;    0.000;20.90125
 430.11;   14.960;    0.755;    0.000;14.20500
 430.40;   27.760;    2.376;    0.000;25.38375
 430.69;   11.040;    2.435;    0.000; 8.60500
 430.98;   23.150;    3.626;    0.000;19.52375
 431.26;   17.810;    4.383;    0.000;13.42750
 431.55;   20.200;    3.697;    0.000;16.50250
 431.84;    9.130;   -0.666;    0.000; 9.79625
 432.13;   19.320;    0.749;    0.000;18.57125
 432.41;    0.830;    2.846;    0.000;-2.01625
 432.70;   19.730;    2.501;    0.000;17.22875
 432.99;   11.660;    2.007;    0.000; 9.65250
 433.28;   22.330;    4.089;    0.000;18.24125
 433.57;   16.420;    0.668;    0.000;15.75250
 433.85;   23.340;    0.570;    0.000;22.77000
 434.14;   10.000;    1.510;    0.000; 8.49000
 434.43;   31.440;    4.943;    0.000;26.49750
 434.72;    6.150;    1.523;    0.000; 4.62750
 435.00;   17.020;    4.381;    0.000;12.63875
 435.29;    8.330;    3.159;    0.000; 5.17125
 435.58;   30.520;    3.307;    0.000;27.21250
 435.87;   12.250;    0.380;    0.000;11.87000
 436.15;   25.730;    2.906;    0.000;22.82375
 436.44;   10.390;    2.568;    0.000; 7.82250
 436.73;   15.450;    4.294;    0.000;11.15625
 437.02;    4.970;    2.537;    0.000; 2.43250
 437.30;   26.930;    2.334;    0.000;24.59625
 437.59;   12.790;    2.810;    0.000; 9.98000
 437.88;   16.900;    5.700;    0.000;11.20000
 438.17;   -0.560;   -0.534;    0.000;-0.02625
 438.45;   17.530;    3.159;    0.000;14.37125
 438.74;   18.190;    0.505;    0.000;17.68500
 439.03;   26.660;    2.618;    0.000;24.04250
 439.32;    9.300;    3.250;    0.000; 6.05000
 439.60;   21.580;    0.890;    0.000;20.69000
 439.89;   17.610;    2.642;    0.000;14.96750
 440.18;   23.860;    2.490;    0.000;21.37000
 440.46;   11.430;    0.183;    0.000;11.24750
 440.75;   31.100;    2.443;    0.000;28.65750
 441.04;    3.110;    0.079;    0.000; 3.03125
 441.33;   31.260;    3.149;    0.000;28.11125
 441.61;    8.950;    2.630;    0.000; 6.32000
 441.90;   28.830;    3.733;    0.000;25.09750
 442.19;   -3.490;   -0.200;    0.000;-3.29000
 442.47;   22.740;    3.862;    0.000;18.87750
 442.76;   12.770;    2.916;    0.000; 9.85375
 443.05;   24.720;    2.666;    0.000;22.05375
 443.34;    2.500;    2.057;    0.000; 0.44250
 443.62;   18.660;    1.426;    0.000;17.23375
 443.91;    6.720;    0.027;    0.000; 6.69250
 444.20;   39.550;    6.335;    0.000;33.21500
 444.48;   10.110;    1.109;    0.000; 9.00125
 444.77;   39.840;    4.639;    0.000;35.20125
 445.06;    2.210;    1.806;    0.000; 0.40375
 445.34;   15.940;    0.406;    0.000;15.53375
 445.63;   13.010;    0.630;    0.000;12.38000
 445.92;   42.950;    1.935;    0.000;41.01500
 446.21;   20.130;    3.364;    0.000;16.76625
 446.49;   19.860;    2.110;    0.000;17.75000
 446.78;   20.250;    2.021;    0.000;18.22875
 447.07;   17.370;    0.465;    0.000;16.90500
 447.35;    9.370;    0.983;    0.000; 8.38750
 447.64;   30.090;    3.451;    0.000;26.63875
 447.93;   15.730;    1.934;    0.000;13.79625
 448.21;   16.320;    1.536;    0.000;14.78375
 448.50;   13.690;    1.910;    0.000;11.78000
 448.79;   17.630;    1.992;    0.000;15.63750
 449.07;   11.000;    3.325;    0.000; 7.67500
 449.36;   17.730;    1.426;    0.000;16.30375
 449.65;    3.900;    0.134;    0.000; 3.76625
 449.93;   14.510;    3.255;    0.000;11.25500
 450.22;   15.000;    1.070;    0.000;13.93000
 450.51;   17.810;    3.435;    0.000;14.37500
 450.79;   11.010;    2.901;    0.000; 8.10875
 451.08;    8.620;    2.376;    0.000; 6.24375
 451.36;   13.240;   -0.282;    0.000;13.52250
 451.65;   28.270;    4.582;    0.000;23.68750
 451.94;    4.370;    2.245;    0.000; 2.12500
 452.22;   11.300;    1.971;    0.000; 9.32875
 452.51;    6.510;    2.864;    0.000; 3.64625
 452.80;   21.770;    0.808;    0.000;20.96250
 453.08;    5.620;    3.300;    0.000; 2.32000
 453.37;   28.420;    5.216;    0.000;23.20375
 453.66;   13.290;    1.974;    0.000;11.31625
 453.94;   20.500;    2.578;    0.000;17.92250
 454.23;    7.640;    0.707;    0.000; 6.93250
 454.51;   26.330;    5.106;    0.000;21.22375
 454.80;    4.140;    1.065;    0.000; 3.07500
 455.09;   24.340;    3.789;    0.000;20.55125
 455.37;   23.140;    2.000;    0.000;21.14000
 455.66;   23.600;    0.929;    0.000;22.67125
 455.95;   15.770;    2.487;    0.000;13.28250
 456.23;   38.270;    1.810;    0.000;36.46000
 456.52;   11.170;   -1.785;    0.000;12.95500
 456.80;   17.290;    1.676;    0.000;15.61375
 457.09;    8.580;    0.610;    0.000; 7.97000
 457.38;   37.020;    2.624;    0.000;34.39625
 457.66;   12.650;    2.954;    0.000; 9.69625
 457.95;   23.000;    2.106;    0.000;20.89375
 458.23;    6.030;   -0.848;    0.000; 6.87750
 458.52;   35.440;    3.451;    0.000;31.98875
 458.81;   16.020;    4.972;    0.000;11.04750
 459.09;   22.200;    4.175;    0.000;18.02500
 459.38;   11.220;    0.647;    0.000;10.57250
 459.66;   20.130;    2.150;    0.000;17.98000
 459.95;   12.280;    3.480;    0.000; 8.80000
 460.23;   30.920;    1.835;    0.000;29.08500
 460.52;   16.880;   -0.050;    0.000;16.93000
 460.81;   13.120;    3.735;    0.000; 9.38500
 461.09;   14.760;    2.649;    0.000;12.11125
 461.38;   24.500;    0.196;    0.000;24.30375
 461.66;    8.870;    2.040;    0.000; 6.83000
 461.95;   25.740;    2.691;    0.000;23.04875
 462.23;   21.690;    2.905;    0.000;18.78500
 462.52;   18.790;    1.970;    0.000;16.82000
 462.81;    2.810;    1.775;    0.000; 1.03500
 463.09;   24.700;    2.996;    0.000;21.70375
 463.38;   13.350;    3.536;    0.000; 9.81375
 463.66;   18.990;    2.416;    0.000;16.57375
 463.95;   17.380;    0.976;    0.000;16.40375
 464.23;   22.420;    3.136;    0.000;19.28375
 464.52;   22.110;    0.415;    0.000;21.69500
 464.80;   19.770;    2.267;    0.000;17.50250
 465.09;   19.600;    4.450;    0.000;15.15000
 465.38;   21.150;    2.135;    0.000;19.01500
 465.66;   15.000;    3.092;    0.000;11.90750
 465.95;   33.490;    3.005;    0.000;30.48500
 466.23;   12.340;    1.654;    0.000;10.68625
 466.52;   18.320;    2.730;    0.000;15.59000
 466.80;   32.090;    4.429;    0.000;27.66125
 467.09;   25.360;    2.030;    0.000;23.33000
 467.37;   27.140;    2.378;    0.000;24.76250
 467.66;   34.800;    4.521;    0.000;30.27875
 467.94;    5.730;    1.929;    0.000; 3.80125
 468.23;   28.740;    1.577;    0.000;27.16250
 468.51;   29.270;    3.882;    0.000;25.38750
 468.80;   20.180;    3.013;    0.000;17.16750
 469.08;   24.170;    2.563;    0.000;21.60750
 469.37;   32.370;    3.146;    0.000;29.22375
 469.66;   29.000;    1.077;    0.000;27.92250
 469.94;   34.240;    0.594;    0.000;33.64625
 470.23;   25.960;    0.586;    0.000;25.37375
 470.51;   34.050;    2.723;    0.000;31.32750
 470.80;   42.920;    2.582;    0.000;40.33750
 471.08;   37.330;    3.061;    0.000;34.26875
 471.37;   38.620;    2.378;    0.000;36.24250
 471.65;   47.920;    3.132;    0.000;44.78750
 471.94;   26.490;    0.899;    0.000;25.59125
 472.22;   35.730;    1.457;    0.000;34.27250
 472.51;   37.550;    1.730;    0.000;35.82000
 472.79;   50.500;    3.695;    0.000;46.80500
 473.08;   42.080;    0.592;    0.000;41.48750
 473.36;   54.800;    3.221;    0.000;51.57875
 473.64;   51.600;    1.619;    0.000;49.98125
 473.93;   66.470;    3.253;    0.000;63.21750
 474.21;   59.530;    2.713;    0.000;56.81750
 474.50;   76.120;    4.048;    0.000;72.07250
 474.78;   91.290;    2.095;    0.000;89.19500
 475.07;   78.950;    0.941;    0.000;78.00875
 475.35;   95.810;    3.199;    0.000;92.61125
 475.64;   95.280;    2.451;    0.000;92.82875
 475.92;   98.420;    1.299;    0.000;97.12125
 476.21;  123.310;    0.804;    0.000;122.50625
 476.49;  128.870;    2.276;    0.000;126.59375
 476.78;  150.470;    2.287;    0.000;148.18250
 477.06;  141.060;    2.473;    0.000;138.58750
 477.35;  175.390;    3.790;    0.000;171.60000
 477.63;  177.450;    1.086;    0.000;176.36375
 477.91;  203.880;    1.760;    0.000;202.12000
 478.20;  204.920;    1.059;    0.000;203.86125
 478.48;  243.930;    0.538;    0.000;243.39249
 478.77;  257.770;    3.499;    0.000;254.27124
 479.05;  283.250;    3.216;    0.000;280.03375
 479.34;  320.270;    0.761;    0.000;319.50874
 479.62;  337.530;    3.401;    0.000;334.12875
 479.91;  359.840;   -0.785;    0.000;360.62500
 480.19;  404.910;    2.868;    0.000;402.04250
 480.47;  414.590;    0.215;    0.000;414.37500
 480.76;  464.000;    5.134;    0.000;458.86625
 481.04;  497.340;    2.594;    0.000;494.74625
 481.33;  548.880;    5.226;    0.000;543.65375
 481.61;  582.430;    0.775;    0.000;581.65499
 481.90;  619.930;    3.454;    0.000;616.47624
 482.18;  668.690;    1.354;    0.000;667.33625
 482.46;  738.160;    2.395;    0.000;735.76497
 482.75;  766.990;    3.819;    0.000;763.17124
 483.03;  838.510;    1.339;    0.000;837.17126
 483.32;  879.890;   -0.608;    0.000;880.49751
 483.60;  940.820;    2.681;    0.000;938.13876
 483.88;  988.480;    3.960;    0.000;984.51998
 484.17; 1080.640;    1.490;    0.000;1079.15001
 484.45; 1144.750;    0.410;    0.000;1144.34000
 484.74; 1219.120;    2.251;    0.000;1216.86875
 485.02; 1276.090;    2.283;    0.000;1273.80747
 485.30; 1366.990;    1.720;    0.000;1365.26999
 485.59; 1432.800;    0.525;    0.000;1432.27505
 485.87; 1556.380;    1.050;    0.000;1555.33000
 486.16; 1615.090;    1.403;    0.000;1613.68747
 486.44; 1709.660;    2.604;    0.000;1707.05628
 486.72; 1802.400;    1.150;    0.000;1801.25002
 487.01; 1896.960;    3.671;    0.000;1893.28871
 487.29; 2026.010;    0.510;    0.000;2025.50001
 487.58; 2119.210;    5.654;    0.000;2113.55621
 487.86; 2221.510;    3.342;    0.000;2218.16751
 488.14; 2346.450;    3.932;    0.000;2342.51745
 488.43; 2438.850;    0.979;    0.000;2437.87135
 488.71; 2582.110;    0.730;    0.000;2581.38011
 488.99; 2677.420;    1.616;    0.000;2675.80367
 489.28; 2807.960;    0.715;    0.000;2807.24496
 489.56; 2932.710;    1.239;    0.000;2931.47121
 489.85; 3077.810;    2.350;    0.000;3075.46006
 490.13; 3202.090;    2.057;    0.000;3200.03259
 490.41; 3341.330;    4.855;    0.000;3336.47508
 490.70; 3487.490;    2.358;    0.000;3485.13249
 490.98; 3632.080;    1.931;    0.000;3630.14883
 491.26; 3760.630;   -0.796;    0.000;3761.42613
 491.55; 3917.700;    2.747;    0.000;3914.95245
 491.83; 4053.640;    2.797;    0.000;4050.84239
 492.11; 4256.550;    0.218;    0.000;4256.33230
 492.40; 4392.460;    1.774;    0.000;4390.68621
 492.68; 4573.740;    3.876;    0.000;4569.86398
 492.96; 4749.920;    2.506;    0.000;4747.41367
 493.25; 4904.010;    3.009;    0.000;4901.00102
 493.53; 5081.190;    1.435;    0.000;5079.75494
 493.81; 5238.850;    3.051;    0.000;5235.79885
 494.10; 5437.210;    2.372;    0.000;5434.83746
 494.38; 5651.540;    0.340;    0.000;5651.20004
 494.66; 5816.000;   -0.239;    0.000;5816.23875
 494.95; 6014.260;    2.470;    0.000;6011.78977
 495.23; 6188.250;    3.210;    0.000;6185.04000
 495.51; 6362.870;    4.576;    0.000;6358.29387
 495.80; 6541.760;    2.500;    0.000;6539.25977
 496.08; 6772.110;    4.334;    0.000;6767.77611
 496.36; 6979.430;    2.381;    0.000;6977.04893
 496.65; 7155.820;    0.871;    0.000;7154.94857
 496.93; 7319.920;    2.741;    0.000;7317.17867
 497.21; 7568.450;    0.571;    0.000;7567.87895
 497.50; 7741.460;    3.068;    0.000;7738.39246
 497.78; 7969.670;    1.405;    0.000;7968.26492
 498.06; 8161.800;    0.853;    0.000;8160.94730
 498.34; 8386.800;    2.364;    0.000;8384.43605
 498.63; 8562.320;    3.320;    0.000;8559.00031
 498.91; 8806.180;    4.931;    0.000;8801.24844
 499.19; 9036.870;    1.158;    0.000;9035.71262
 499.48; 9219.850;    2.360;    0.000;9217.48961
 499.76; 9489.810;    3.057;    0.000;9486.75207
 500.04; 9682.790;    4.120;    0.000;9678.67004
 500.32; 9910.360;    3.015;    0.000;9907.34535
 500.61;10148.370;    2.210;    0.000;10146.16012
 500.89;10318.190;    2.584;    0.000;10315.60668
 501.17;10552.710;    1.663;    0.000;10551.04746
 501.46;10760.730;    3.491;    0.000;10757.23922
 501.74;11000.850;    4.365;    0.000;10996.48461
 502.02;11231.980;    3.974;    0.000;11228.00672
 502.30;11476.020;    3.686;    0.000;11472.33328
 502.59;11655.000;    3.149;    0.000;11651.85125
 502.87;11905.760;    2.419;    0.000;11903.34102
 503.15;12145.590;    3.114;    0.000;12142.47609
 503.43;12356.820;    1.428;    0.000;12355.39281
 503.72;12585.020;    1.790;    0.000;12583.22953
 504.00;12868.970;    1.394;    0.000;12867.57598
 504.28;13100.570;    2.723;    0.000;13097.84781
 504.56;13292.900;    3.711;    0.000;13289.18914
 504.85;13533.230;    1.084;    0.000;13532.14672
 505.13;13710.120;    3.199;    0.000;13706.92137
 505.41;13980.230;    1.260;    0.000;13978.97047
 505.69;14225.510;    4.202;    0.000;14221.30727
 505.98;14429.070;    2.303;    0.000;14426.76781
 506.26;14674.580;    2.465;    0.000;14672.11508
 506.54;14921.630;    1.691;    0.000;14919.93863
 506.82;15165.840;    1.630;    0.000;15164.20984
 507.11;15354.740;    2.685;    0.000;15352.05523
 507.39;15579.270;    2.963;    0.000;15576.30703
 507.67;15836.260;    2.545;    0.000;15833.71477
 507.95;16087.280;    4.004;    0.000;16083.27652
 508.23;16301.850;    1.665;    0.000;16300.18461
 508.52;16553.330;    4.427;    0.000;16548.90258
 508.80;16764.609;    2.648;    0.000;16761.96187
 509.08;16990.980;    3.473;    0.000;16987.50797
 509.36;17204.490;    0.114;    0.000;17204.37648
 509.65;17499.859;    2.144;    0.000;17497.71563
 509.93;17660.939;    1.548;    0.000;17659.39195
 510.21;17908.859;    1.577;    0.000;17907.28188
 510.49;18114.670;    2.626;    0.000;18112.04367
 510.77;18372.000;    2.529;    0.000;18369.47125
 511.06;18540.279;    1.059;    0.000;18539.22055
 511.34;18793.350;    1.541;    0.000;18791.80836
 511.62;19060.990;   -1.497;    0.000;19062.48773
 511.90;19241.381;    3.204;    0.000;19238.17711
 512.18;19468.211;    1.067;    0.000;19467.14344
 512.47;19708.529;    5.470;    0.000;19703.05930
 512.75;19939.199;    1.100;    0.000;19938.09922
 513.03;20164.770;    4.050;    0.000;20160.71953
 513.31;20385.900;    1.416;    0.000;20384.48414
 513.59;20619.721;    3.094;    0.000;20616.62695
 513.87;20759.699;    1.499;    0.000;20758.20047
 514.16;21072.801;    3.134;    0.000;21069.66703
 514.44;21247.779;    1.394;    0.000;21246.38555
 514.72;21461.711;    3.402;    0.000;21458.30844
 515.00;21687.471;    2.842;    0.000;21684.62820
 515.28;21977.670;    3.527;    0.000;21974.14242
 515.56;22115.080;    2.730;    0.000;22112.35008
 515.85;22322.230;    0.644;    0.000;22321.58672
 516.13;22577.279;    2.204;    0.000;22575.07555
 516.41;22841.150;    1.971;    0.000;22839.17914
 516.69;23070.270;    3.354;    0.000;23066.91578
 516.97;23284.699;    4.766;    0.000;23279.93297
 517.25;23414.039;    2.075;    0.000;23411.96406
 517.54;23671.539;    4.198;    0.000;23667.34156
 517.82;23907.830;    2.642;    0.000;23905.18758
 518.10;24129.199;    1.928;    0.000;24127.27172
 518.38;24273.260;    3.320;    0.000;24269.93977
 518.66;24522.240;    3.017;    0.000;24519.22273
 518.94;24702.100;   -0.038;    0.000;24702.13711
 519.22;24908.721;    3.063;    0.000;24905.65820
 519.51;25185.850;    0.155;    0.000;25185.69461
 519.79;25322.141;   -0.216;    0.000;25322.35688
 520.07;25533.150;    3.670;    0.000;25529.48039
 520.35;25788.539;    3.328;    0.000;25785.21156
 520.63;25971.100;    2.414;    0.000;25968.68586
 520.91;26143.270;    0.201;    0.000;26143.06828
 521.19;26280.090;    3.025;    0.000;26277.06484
 521.47;26511.910;    1.909;    0.000;26510.00141
 521.75;26710.971;    2.081;    0.000;26708.88945
 522.04;26950.480;    2.229;    0.000;26948.25172
 522.32;27131.750;    0.170;    0.000;27131.58000
 522.60;27344.930;    3.899;    0.000;27341.03094
 522.88;27483.961;    3.216;    0.000;27480.74469
 523.16;27692.301;    2.065;    0.000;27690.23578
 523.44;27861.070;    2.495;    0.000;27858.57531
 523.72;28065.029;    3.304;    0.000;28061.72555
 524.00;28230.090;    2.655;    0.000;28227.43484
 524.28;28457.680;    2.943;    0.000;28454.73719
 524.57;28540.260;    2.586;    0.000;28537.67352
 524.85;28775.070;    4.845;    0.000;28770.22531
 525.13;28894.119;    4.231;    0.000;28889.88789
 525.41;29084.340;    1.692;    0.000;29082.64734
 525.69;29286.270;    1.334;    0.000;29284.93578
 525.97;29497.141;    4.061;    0.000;29493.07937
 526.25;29586.750;    0.954;    0.000;29585.79625
 526.53;29843.391;    4.273;    0.000;29839.11812
 526.81;29951.740;    0.319;    0.000;29951.42148
 527.09;30073.520;    1.679;    0.000;30071.84078
 527.37;30191.990;    0.134;    0.000;30191.85648
 527.65;30446.350;    3.938;    0.000;30442.41211
 527.93;30639.061;    1.886;    0.000;30637.17430
 528.22;30727.910;    3.976;    0.000;30723.93391
 528.50;30946.359;    1.497;    0.000;30944.86188
 528.78;31124.039;    4.605;    0.000;31119.43406
 529.06;31159.520;    3.001;    0.000;31156.51828
 529.34;31386.070;    3.697;    0.000;31382.37281
 529.62;31562.141;    2.995;    0.000;31559.14563
 529.90;31632.529;    2.693;    0.000;31629.83680
 530.18;31816.650;    0.646;    0.000;31816.00414
 530.46;31968.990;    3.618;    0.000;31965.37273
 530.74;32086.350;    4.294;    0.000;32082.05586
 531.02;32217.840;    2.640;    0.000;32215.19984
 531.30;32380.340;    0.880;    0.000;32379.45984
 531.58;32495.160;    3.714;    0.000;32491.44641
 531.86;32635.580;    2.035;    0.000;32633.54508
 532.14;32809.398;    4.215;    0.000;32805.18344
 532.42;32905.770;    2.910;    0.000;32902.85953
 532.70;33019.762;    3.036;    0.000;33016.72547
 532.98;33093.441;    0.534;    0.000;33092.90766
 533.26;33280.328;    2.263;    0.000;33278.06562
 533.54;33341.922;    1.962;    0.000;33339.95938
 533.82;33501.828;    4.854;    0.000;33496.97437
 534.10;33601.141;    3.501;    0.000;33597.63937
 534.38;33843.359;    0.683;    0.000;33842.67687
 534.66;33950.352;    4.026;    0.000;33946.32531
 534.94;34018.039;    2.694;    0.000;34015.34531
 535.22;34120.430;    2.501;    0.000;34117.92844
 535.50;34242.371;    1.347;    0.000;34241.02359
 535.78;34285.480;    4.506;    0.000;34280.97422
 536.06;34478.988;    5.009;    0.000;34473.97953
 536.34;34598.539;    2.092;    0.000;34596.44656
 536.62;34594.570;    3.473;    0.000;34591.09781
 536.90;34820.980;    4.017;    0.000;34816.96297
 537.18;34866.828;    2.636;    0.000;34864.19187
 537.46;34956.969;    0.501;    0.000;34956.46750
 537.74;35019.871;    3.977;    0.000;35015.89359
 538.02;35165.398;    5.509;    0.000;35159.88969
 538.30;35334.602;    5.718;    0.000;35328.88406
 538.58;35414.672;    2.925;    0.000;35411.74688
 538.86;35477.840;    4.149;    0.000;35473.69109
 539.14;35545.461;    3.205;    0.000;35542.25594
 539.42;35660.379;    5.500;    0.000;35654.87891
 539.70;35722.078;    1.393;    0.000;35720.68562
 539.98;35873.531;    2.892;    0.000;35870.63875
 540.26;35967.148;    1.592;    0.000;35965.55594
 540.54;36065.281;    4.443;    0.000;36060.83875
 540.82;36119.859;    1.806;    0.000;36118.05313
 541.10;36255.500;    4.010;    0.000;36251.49000
 541.38;36352.191;    2.525;    0.000;36349.66641
 541.66;36391.102;    4.036;    0.000;36387.06531
 541.94;36464.020;    5.741;    0.000;36458.27828
 542.22;36557.520;    6.370;    0.000;36551.14953
 542.50;36690.789;    2.181;    0.000;36688.60781
 542.78;36739.051;    3.706;    0.000;36735.34453
 543.06;36816.512;    1.092;    0.000;36815.41922
 543.34;36818.770;    4.554;    0.000;36814.21578
 543.62;36989.180;    1.795;    0.000;36987.38469
 543.90;37049.852;    2.027;    0.000;37047.82406
 544.17;37041.891;    2.539;    0.000;37039.35188
 544.45;37105.711;    5.716;    0.000;37099.99469
 544.73;37150.121;    3.084;    0.000;37147.03734
 545.01;37255.160;    3.473;    0.000;37251.68766
 545.29;37351.398;    4.139;    0.000;37347.25969
 545.57;37400.809;    5.057;    0.000;37395.75109
 545.85;37480.398;    3.080;    0.000;37477.31844
 546.13;37468.949;    3.045;    0.000;37465.90422
 546.41;37588.809;    5.004;    0.000;37583.80484
 546.69;37560.262;    5.885;    0.000;37554.37672
 546.97;37662.891;    3.510;    0.000;37659.38063
 547.25;37743.191;    5.443;    0.000;37737.74891
 547.52;37732.512;    6.606;    0.000;37725.90547
 547.80;37819.059;    4.670;    0.000;37814.38859
 548.08;37828.160;    2.263;    0.000;37825.89766
 548.36;37905.109;    4.355;    0.000;37900.75437
 548.64;37975.629;    4.756;    0.000;37970.87266
 548.92;37938.230;    3.705;    0.000;37934.52547
 549.20;38014.531;    3.259;    0.000;38011.27250
 549.48;38069.379;    4.170;    0.000;38065.20891
 549.76;38118.770;    4.735;    0.000;38114.03453
 550.04;38178.199;    5.597;    0.000;38172.60172
 550.31;38146.422;    1.956;    0.000;38144.46563
 550.59;38135.809;    3.471;    0.000;38132.33734
 550.87;38239.211;    2.305;    0.000;38236.90594
 551.15;38276.109;    5.196;    0.000;38270.91313
 551.43;38253.891;    2.901;    0.000;38250.98938
 551.71;38305.250;    4.271;    0.000;38300.97875
 551.99;38313.578;    2.554;    0.000;38311.02437
 552.27;38296.590;    4.544;    0.000;38292.04609
 552.54;38264.500;    3.098;    0.000;38261.40250
 552.82;38364.320;    2.580;    0.000;38361.74031
 553.10;38386.602;    3.609;    0.000;38382.99281
 553.38;38452.379;    5.986;    0.000;38446.39266
 553.66;38394.570;    4.290;    0.000;38390.28031
 553.94;38376.449;    0.865;    0.000;38375.58422
 554.22;38418.391;    4.026;    0.000;38414.36438
 554.49;38390.699;    1.909;    0.000;38388.79047
 554.77;38448.828;    3.175;    0.000;38445.65313
 555.05;38388.129;    4.770;    0.000;38383.35891
 555.33;38439.820;    3.230;    0.000;38436.59031
 555.61;38417.090;    3.481;    0.000;38413.60859
 555.89;38359.641;    0.751;    0.000;38358.88937
 556.16;38410.988;    1.086;    0.000;38409.90203
 556.44;38408.422;    1.997;    0.000;38406.42438
 556.72;38436.578;    5.874;    0.000;38430.70437
 557.00;38404.410;    2.216;    0.000;38402.19391
 557.28;38342.770;    2.520;    0.000;38340.24953
 557.56;38379.301;    1.341;    0.000;38377.95953
 557.83;38418.602;    6.726;    0.000;38411.87531
 558.11;38342.949;    6.404;    0.000;38336.54547
 558.39;38314.422;    2.997;    0.000;38311.42438
 558.67;38325.988;    1.645;    0.000;38324.34328
 558.95;38292.520;    1.871;    0.000;38290.64828
 559.23;38204.191;    3.966;    0.000;38200.22516
 559.50;38279.621;    3.114;    0.000;38276.50734
 559.78;38275.488;    2.484;    0.000;38273.00453
 560.06;38181.371;    3.674;    0.000;38177.69734
 560.34;38145.770;    4.381;    0.000;38141.38828
 560.62;38132.328;    5.099;    0.000;38127.22937
 560.89;38033.320;    3.236;    0.000;38030.08406
 561.17;37984.859;    3.039;    0.000;37981.82063
 561.45;38019.102;    6.720;    0.000;38012.38156
 561.73;37937.039;    3.614;    0.000;37933.42531
 562.00;37839.289;    1.837;    0.000;37837.45156
 562.28;37843.672;    4.736;    0.000;37838.93563
 562.56;37883.090;    3.688;    0.000;37879.40234
 562.84;37748.762;    5.670;    0.000;37743.09172
 563.12;37780.340;    1.199;    0.000;37779.14109
 563.39;37657.891;    2.850;    0.000;37655.04063
 563.67;37704.520;    4.331;    0.000;37700.18828
 563.95;37690.328;    3.725;    0.000;37686.60313
 564.23;37620.199;    0.817;    0.000;37619.38172
 564.50;37437.121;    3.756;    0.000;37433.36484
 564.78;37418.109;    4.778;    0.000;37413.33187
 565.06;37370.148;    4.095;    0.000;37366.05344
 565.34;37301.352;    3.490;    0.000;37297.86156
 565.61;37337.590;    3.579;    0.000;37334.01109
 565.89;37172.270;    4.356;    0.000;37167.91328
 566.17;37128.719;    1.107;    0.000;37127.61125
 566.45;37083.770;    3.446;    0.000;37080.32328
 566.73;36947.398;    4.733;    0.000;36942.66594
 567.00;36889.012;    2.011;    0.000;36887.00047
 567.28;36872.230;    4.403;    0.000;36867.82797
 567.56;36776.891;    4.230;    0.000;36772.66062
 567.83;36716.121;    4.820;    0.000;36711.30109
 568.11;36599.352;    4.360;    0.000;36594.99156
 568.39;36552.770;    3.311;    0.000;36549.45828
 568.67;36452.590;    4.975;    0.000;36447.61484
 568.94;36406.691;    4.472;    0.000;36402.21891
 569.22;36292.551;    2.889;    0.000;36289.66203
 569.50;36256.520;    2.293;    0.000;36254.22703
 569.78;36171.180;    0.215;    0.000;36170.96469
 570.05;36026.371;    2.606;    0.000;36023.76484
 570.33;35986.871;    2.001;    0.000;35984.86984
 570.61;35891.219;    5.050;    0.000;35886.16875
 570.88;35789.281;    1.764;    0.000;35787.51750
 571.16;35641.230;    2.787;    0.000;35638.44297
 571.44;35521.711;    0.548;    0.000;35521.16344
 571.72;35436.520;    2.101;    0.000;35434.41828
 571.99;35395.238;    2.487;    0.000;35392.75078
 572.27;35277.090;    2.940;    0.000;35274.14984
 572.55;35154.059;    2.769;    0.000;35151.28984
 572.82;35021.512;    3.071;    0.000;35018.44047
 573.10;35004.551;    4.463;    0.000;35000.08828
 573.38;34956.141;    4.084;    0.000;34952.05688
 573.65;34751.289;    4.691;    0.000;34746.59781
 573.93;34663.711;    2.601;    0.000;34661.10969
 574.21;34561.719;    2.024;    0.000;34559.69500
 574.48;34439.840;    4.831;    0.000;34435.00859
 574.76;34309.250;    4.536;    0.000;34304.71375
 575.04;34198.461;    5.972;    0.000;34192.48844
 575.32;34087.398;    0.036;    0.000;34087.36219
 575.59;33995.148;    5.807;    0.000;33989.34094
 575.87;33910.609;    3.089;    0.000;33907.52063
 576.15;33720.660;    4.832;    0.000;33715.82766
 576.42;33635.148;    1.260;    0.000;33633.88844
 576.70;33511.102;    2.868;    0.000;33508.23406
 576.98;33355.148;    4.479;    0.000;33350.66969
 577.25;33267.738;    3.994;    0.000;33263.74453
 577.53;33103.109;    2.311;    0.000;33100.79813
 577.80;32993.801;    4.555;    0.000;32989.24578
 578.08;32916.672;    1.016;    0.000;32915.65562
 578.36;32772.102;    3.935;    0.000;32768.16656
 578.63;32694.180;    2.959;    0.000;32691.22094
 578.91;32562.891;    3.149;    0.000;32559.74187
 579.19;32393.500;    3.899;    0.000;32389.60125
 579.46;32242.820;    3.882;    0.000;32238.93781
 579.74;32115.641;    0.826;    0.000;32114.81437
 580.02;32015.020;    0.681;    0.000;32014.33828
 580.29;31901.100;    3.734;    0.000;31897.36586
 580.57;31799.131;    2.340;    0.000;31796.79086
 580.84;31559.801;    1.306;    0.000;31558.49453
 581.12;31441.561;    4.154;    0.000;31437.40680
 581.40;31325.600;    2.944;    0.000;31322.65586
 581.67;31178.561;    4.294;    0.000;31174.26680
 581.95;31043.609;    1.742;    0.000;31041.86688
 582.23;30816.420;    2.881;    0.000;30813.53867
 582.50;30704.141;    4.459;    0.000;30699.68188
 582.78;30560.010;    2.859;    0.000;30557.15102
 583.05;30378.631;    3.785;    0.000;30374.84586
 583.33;30311.631;    2.399;    0.000;30309.23211
 583.61;30144.289;    6.227;    0.000;30138.06156
 583.88;29982.010;    3.654;    0.000;29978.35602
 584.16;29829.330;    1.746;    0.000;29827.58383
 584.43;29695.230;    3.211;    0.000;29692.01922
 584.71;29543.500;    2.947;    0.000;29540.55250
 584.99;29465.439;    3.717;    0.000;29461.72195
 585.26;29269.480;    2.017;    0.000;29267.46297
 585.54;29167.900;    1.204;    0.000;29166.69664
 585.81;28942.570;    4.169;    0.000;28938.40156
 586.09;28794.080;    3.445;    0.000;28790.63508
 586.37;28645.600;    1.883;    0.000;28643.71711
 586.64;28554.689;    4.314;    0.000;28550.37570
 586.92;28348.619;    1.679;    0.000;28346.94039
 587.19;28292.641;    3.080;    0.000;28289.56063
 587.47;28034.869;    2.747;    0.000;28032.12164
 587.74;27923.180;    4.613;    0.000;27918.56719
 588.02;27821.830;    4.313;    0.000;27817.51758
 588.30;27651.100;    3.340;    0.000;27647.75961
 588.57;27467.160;    3.376;    0.000;27463.78391
 588.85;27360.779;    4.094;    0.000;27356.68555
 589.12;27177.410;    4.117;    0.000;27173.29266
 589.40;27059.949;    2.787;    0.000;27057.16172
 589.67;26849.779;    2.685;    0.000;26847.09430
 589.95;26783.699;    7.534;    0.000;26776.16547
 590.22;26616.240;    2.001;    0.000;26614.23898
 590.50;26429.641;    3.696;    0.000;26425.94438
 590.77;26264.230;    1.840;    0.000;26262.39047
 591.05;26198.029;    4.359;    0.000;26193.67055
 591.33;25989.930;    1.175;    0.000;25988.75469
 591.60;25902.680;    1.119;    0.000;25901.56094
 591.88;25737.590;    4.168;    0.000;25733.42234
 592.15;25600.680;    3.402;    0.000;25597.27719
 592.43;25458.660;    2.320;    0.000;25456.34016
 592.70;25198.420;    3.095;    0.000;25195.32492
 592.98;25091.699;    3.245;    0.000;25088.45422
 593.25;24920.100;    3.697;    0.000;24916.40211
 593.53;24788.820;    2.335;    0.000;24786.48531
 593.80;24595.680;    3.291;    0.000;24592.38844
 594.08;24409.971;    1.874;    0.000;24408.09695
 594.35;24289.010;    4.060;    0.000;24284.94977
 594.63;24027.500;    2.872;    0.000;24024.62750
 594.90;23951.631;    2.609;    0.000;23949.02211
 595.18;23766.109;    3.821;    0.000;23762.28813
 595.45;23641.170;    4.101;    0.000;23637.06867
 595.73;23443.061;    3.088;    0.000;23439.97305
 596.00;23299.311;    5.176;    0.000;23294.13430
 596.28;23125.670;    2.150;    0.000;23123.51992
 596.55;22993.900;    4.939;    0.000;22988.96164
 596.83;22843.369;    1.852;    0.000;22841.51664
 597.10;22657.090;    4.657;    0.000;22652.43234
 597.38;22485.949;    3.055;    0.000;22482.89422
 597.65;22350.510;    2.369;    0.000;22348.14102
 597.93;22200.221;    0.613;    0.000;22199.60820
 598.20;22004.789;    3.918;    0.000;22000.87156
 598.48;21867.000;    1.860;    0.000;21865.14000
 598.75;21793.609;    3.500;    0.000;21790.10938
 599.03;21550.381;    4.341;    0.000;21546.03961
 599.30;21421.221;    1.952;    0.000;21419.26820
 599.58;21206.961;    3.211;    0.000;21203.74969
 599.85;21076.740;    5.479;    0.000;21071.26148
 600.12;20918.850;    2.605;    0.000;20916.24461
 600.40;20751.051;    4.610;    0.000;20746.44078
 600.67;20659.900;    3.875;    0.000;20656.02539
 600.95;20534.000;    3.932;    0.000;20530.06750
 601.22;20374.119;    4.343;    0.000;20369.77664
 601.50;20206.490;    3.861;    0.000;20202.62898
 601.77;20045.891;    2.813;    0.000;20043.07813
 602.05;19935.779;    3.898;    0.000;19931.88180
 602.32;19767.660;    2.983;    0.000;19764.67766
 602.59;19649.100;    2.529;    0.000;19646.57086
 602.87;19451.900;    4.855;    0.000;19447.04539
 603.14;19368.600;    3.612;    0.000;19364.98711
 603.42;19222.051;    2.557;    0.000;19219.49328
 603.69;19078.561;    1.731;    0.000;19076.82930
 603.97;18900.070;    4.331;    0.000;18895.73906
 604.24;18767.400;    3.800;    0.000;18763.60039
 604.51;18651.270;    3.688;    0.000;18647.58203
 604.79;18524.410;    3.882;    0.000;18520.52766
 605.06;18441.449;    3.945;    0.000;18437.50422
 605.34;18270.779;    4.537;    0.000;18266.24180
 605.61;18184.289;    2.057;    0.000;18182.23156
 605.89;18031.980;    3.287;    0.000;18028.69297
 606.16;17918.529;    4.349;    0.000;17914.18055
 606.43;17791.570;    5.481;    0.000;17786.08906
 606.71;17656.240;    2.475;    0.000;17653.76523
 606.98;17582.150;    2.328;    0.000;17579.82289
 607.26;17434.949;    3.761;    0.000;17431.18797
 607.53;17298.330;    2.716;    0.000;17295.61383
 607.80;17212.311;    2.881;    0.000;17209.42930
 608.08;17107.180;    3.045;    0.000;17104.13469
 608.35;16952.051;    3.132;    0.000;16948.91828
 608.62;16867.990;    2.546;    0.000;16865.44398
 608.90;16774.320;    1.881;    0.000;16772.43906
 609.17;16686.301;    1.808;    0.000;16684.49328
 609.45;16552.529;    3.072;    0.000;16549.45680
 609.72;16401.320;    4.076;    0.000;16397.24406
 609.99;16296.570;    1.740;    0.000;16294.83031
 610.27;16229.850;    3.930;    0.000;16225.91961
 610.54;16134.790;   -0.248;    0.000;16135.03754
 610.81;16020.480;    3.979;    0.000;16016.50172
 611.09;15955.430;    2.641;    0.000;15952.78844
 611.36;15796.030;    0.728;    0.000;15795.30277
 611.64;15738.660;    3.644;    0.000;15735.01641
 611.91;15587.810;    2.205;    0.000;15585.60457
 612.18;15533.110;    3.130;    0.000;15529.98035
 612.46;15376.840;    4.631;    0.000;15372.20859
 612.73;15307.580;    1.941;    0.000;15305.63883
 613.00;15167.440;    3.451;    0.000;15163.98918
 613.28;15071.200;    2.829;    0.000;15068.37145
 613.55;14954.010;    5.354;    0.000;14948.65602
 613.82;14783.220;    2.598;    0.000;14780.62223
 614.10;14621.990;    2.566;    0.000;14619.42398
 614.37;14521.260;    0.998;    0.000;14520.26227
 614.64;14379.640;    1.727;    0.000;14377.91215
 614.92;14187.700;    1.755;    0.000;14185.94520
 615.19;14037.730;    3.310;    0.000;14034.42047
 615.46;13881.760;    3.815;    0.000;13877.94477
 615.74;13698.700;    3.493;    0.000;13695.20770
 616.01;13424.530;   -0.661;    0.000;13425.19152
 616.28;13312.400;    3.483;    0.000;13308.91789
 616.56;13009.370;    1.890;    0.000;13007.48012
 616.83;12847.890;    2.476;    0.000;12845.41340
 617.10;12682.820;    4.282;    0.000;12678.53781
 617.37;12731.300;    2.747;    0.000;12728.55230
 617.65;12830.300;    1.979;    0.000;12828.32105
 617.92;12917.180;    3.259;    0.000;12913.92094
 618.19;12786.780;    3.304;    0.000;12783.47652
 618.47;12666.280;    2.418;    0.000;12663.86277
 618.74;12602.870;    2.545;    0.000;12600.32512
 619.01;12573.250;    5.466;    0.000;12567.78375
 619.28;12502.440;    6.039;    0.000;12496.40168
 619.56;12491.190;    4.155;    0.000;12487.03543
 619.83;12369.840;    3.957;    0.000;12365.88234
 620.10;12280.270;    3.467;    0.000;12276.80203
 620.38;12232.550;    2.330;    0.000;12230.21980
 620.65;12164.960;    3.352;    0.000;12161.60746
 620.92;12092.830;    2.168;    0.000;12090.66258
 621.19;12105.070;    4.168;    0.000;12100.90281
 621.47;12147.920;    0.951;    0.000;12146.96867
 621.74;12151.100;    4.323;    0.000;12146.77711
 622.01;12124.300;    1.462;    0.000;12122.83730
 622.28;12170.660;    4.025;    0.000;12166.63516
 622.56;12099.870;    2.351;    0.000;12097.51887
 622.83;12041.420;    1.730;    0.000;12039.68992
 623.10;11982.780;    2.729;    0.000;11980.05152
 623.38;11957.170;    2.005;    0.000;11955.16492
 623.65;11907.650;    4.239;    0.000;11903.41164
 623.92;11845.040;    1.536;    0.000;11843.50379
 624.19;11762.940;   -0.880;    0.000;11763.82043
 624.46;11725.820;    3.061;    0.000;11722.75906
 624.74;11720.990;    3.045;    0.000;11717.94523
 625.01;11611.530;    5.025;    0.000;11606.50527
 625.28;11589.260;    1.938;    0.000;11587.32227
 625.55;11481.600;    1.933;    0.000;11479.66711
 625.83;11462.870;    3.122;    0.000;11459.74762
 626.10;11407.050;    3.759;    0.000;11403.29105
 626.37;11357.300;    1.891;    0.000;11355.40855
 626.64;11338.960;    2.188;    0.000;11336.77246
 626.92;11280.860;    1.146;    0.000;11279.71410
 627.19;11242.160;    3.395;    0.000;11238.76516
 627.46;11114.600;    1.855;    0.000;11112.74461
 627.73;11075.610;   -0.625;    0.000;11076.23535
 628.00;11077.670;    4.034;    0.000;11073.63617
 628.28;11041.360;    2.981;    0.000;11038.37910
 628.55;10941.550;    0.068;    0.000;10941.48230
 628.82;10928.160;    1.947;    0.000;10926.21266
 629.09;10888.140;    4.360;    0.000;10883.77965
 629.36;10850.240;    5.664;    0.000;10844.57648
 629.64;10744.310;    0.757;    0.000;10743.55207
 629.91;10703.080;    6.573;    0.000;10696.50758
 630.18;10683.530;    3.014;    0.000;10680.51652
 630.45;10618.110;    0.545;    0.000;10617.56535
 630.72;10586.530;   -1.060;    0.000;10587.59027
 631.00;10564.750;    1.430;    0.000;10563.32000
 631.27;10502.080;    2.735;    0.000;10499.34508
 631.54;10434.010;    1.822;    0.000;10432.18727
 631.81;10337.420;    3.679;    0.000;10333.74117
 632.08;10337.910;    3.724;    0.000;10334.18641
 632.35;10313.120;    2.265;    0.000;10310.85512
 632.63;10230.670;    4.170;    0.000;10226.49992
 632.90;10202.570;    2.181;    0.000;10200.38906
 633.17;10180.940;    1.319;    0.000;10179.62168
 633.44;10145.740;    3.421;    0.000;10142.31898
 633.71;10118.910;    3.719;    0.000;10115.19141
 633.98;10115.110;    0.863;    0.000;10114.24785
 634.25;10072.200;    4.139;    0.000;10068.06145
 634.53;10026.340;    3.731;    0.000;10022.60859
 634.80;10012.850;    2.301;    0.000;10010.54836
 635.07; 9992.100;    2.280;    0.000;9989.81961
 635.34;10013.150;    4.559;    0.000;10008.59164
 635.61;10022.090;    4.886;    0.000;10017.20359
 635.88;10030.780;    2.765;    0.000;10028.01527
 636.15;10008.150;    3.779;    0.000;10004.37164
 636.43;10066.800;    3.138;    0.000;10063.66230
 636.70;10045.810;    0.309;    0.000;10045.50082
 636.97; 9977.820;    0.026;    0.000;9977.79406
 637.24; 9885.270;    2.896;    0.000;9882.37328
 637.51; 9754.480;    4.227;    0.000;9750.25297
 637.78; 9544.750;    1.205;    0.000;9543.54500
 638.05; 9544.250;   -0.521;    0.000;9544.77125
 638.32; 9482.250;    4.594;    0.000;9477.65625
 638.60; 9438.750;    1.989;    0.000;9436.76125
 638.87; 9332.200;    0.371;    0.000;9331.82895
 639.14; 9293.860;    4.139;    0.000;9289.72160
 639.41; 9237.590;    0.873;    0.000;9236.71734
 639.68; 9168.600;    3.072;    0.000;9165.52711
 639.95; 9092.790;    1.040;    0.000;9091.75004
 640.22; 9073.680;    3.735;    0.000;9069.94469
 640.49; 9004.250;    2.639;    0.000;9001.61125
 640.76; 8931.640;    5.461;    0.000;8926.17840
 641.03; 8839.720;    0.767;    0.000;8838.95223
 641.30; 8701.390;    4.760;    0.000;8696.62965
 641.58; 8571.120;    0.679;    0.000;8570.44137
 641.85; 8521.620;    3.010;    0.000;8518.61012
 642.12; 8422.440;    1.204;    0.000;8421.23668
 642.39; 8372.830;    4.154;    0.000;8368.67633
 642.66; 8311.410;    1.847;    0.000;8309.56266
 642.93; 8254.290;    1.470;    0.000;8252.82004
 643.20; 8201.430;    1.317;    0.000;8200.11219
 643.47; 8140.530;    3.454;    0.000;8137.07604
 643.74; 8067.050;    0.748;    0.000;8066.30230
 644.01; 8040.500;    3.763;    0.000;8036.73750
 644.28; 7971.090;    0.605;    0.000;7970.48484
 644.55; 7913.440;    2.486;    0.000;7910.95369
 644.82; 7836.590;    2.384;    0.000;7834.20609
 645.09; 7811.770;    0.360;    0.000;7811.41002
 645.36; 7748.340;    3.155;    0.000;7745.18484
 645.63; 7714.320;    2.894;    0.000;7711.42607
 645.91; 7666.270;    3.947;    0.000;7662.32252
 646.18; 7617.690;    3.690;    0.000;7613.99994
 646.45; 7537.510;    0.995;    0.000;7536.51477
 646.72; 7522.090;    1.101;    0.000;7520.98859
 646.99; 7478.460;    1.396;    0.000;7477.06371
 647.26; 7434.820;    1.024;    0.000;7433.79607
 647.53; 7385.600;    1.119;    0.000;7384.48135
 647.80; 7349.920;    1.765;    0.000;7348.15492
 648.07; 7273.590;    0.945;    0.000;7272.64484
 648.34; 7250.690;    1.820;    0.000;7248.86994
 648.61; 7198.770;    1.154;    0.000;7197.61627
 648.88; 7153.670;    2.699;    0.000;7150.97117
 649.15; 7072.440;    1.045;    0.000;7071.39494
 649.42; 7087.680;    2.971;    0.000;7084.70893
 649.69; 7010.660;   -1.864;    0.000;7012.52391
 649.96; 6991.710;    0.123;    0.000;6991.58746
 650.23; 6917.700;   -1.247;    0.000;6918.94770
 650.50; 6869.370;    2.479;    0.000;6866.89137
 650.77; 6816.690;   -0.845;    0.000;6817.53494
 651.04; 6768.400;    4.423;    0.000;6763.97740
 651.31; 6742.920;    1.202;    0.000;6741.71742
 651.58; 6666.330;    1.992;    0.000;6664.33758
 651.85; 6626.900;    0.651;    0.000;6626.24865
 652.12; 6624.830;    1.250;    0.000;6623.58008
 652.39; 6584.610;    2.362;    0.000;6582.24736
 652.66; 6521.460;    3.281;    0.000;6518.17871
 652.93; 6466.010;    2.255;    0.000;6463.75477
 653.20; 6442.890;    2.949;    0.000;6439.94139
 653.47; 6410.710;    0.469;    0.000;6410.24121
 653.74; 6369.400;    4.386;    0.000;6365.01365
 654.01; 6313.010;    2.973;    0.000;6310.03727
 654.28; 6263.690;    1.301;    0.000;6262.38869
 654.55; 6253.710;   -1.832;    0.000;6255.54246
 654.81; 6202.280;    3.639;    0.000;6198.64104
 655.08; 6166.910;    0.624;    0.000;6166.28641
 655.35; 6110.070;    4.320;    0.000;6105.74982
 655.62; 6034.750;   -1.529;    0.000;6036.27875
 655.89; 6008.390;    2.852;    0.000;6005.53764
 656.16; 5981.540;    0.510;    0.000;5981.03004
 656.43; 5924.330;    3.440;    0.000;5920.89008
 656.70; 5912.640;    1.716;    0.000;5910.92389
 656.97; 5871.820;    2.947;    0.000;5868.87232
 657.24; 5827.650;    2.443;    0.000;5825.20740
 657.51; 5762.460;    5.190;    0.000;5757.26996
 657.78; 5734.140;    2.088;    0.000;5732.05264
 658.05; 5692.370;    2.378;    0.000;5689.99262
 658.32; 5665.460;    2.024;    0.000;5663.43621
 658.59; 5625.620;    2.130;    0.000;5623.49012
 658.86; 5586.240;    1.824;    0.000;5584.41648
 659.12; 5552.600;    2.666;    0.000;5549.93385
 659.39; 5505.730;    1.124;    0.000;5504.60623
 659.66; 5494.310;    3.401;    0.000;5490.90881
 659.93; 5449.240;    1.985;    0.000;5447.25523
 660.20; 5404.160;    3.110;    0.000;5401.05016
 660.47; 5345.510;    2.070;    0.000;5343.43977
 660.74; 5314.850;    1.519;    0.000;5313.33135
 661.01; 5297.800;    5.176;    0.000;5292.62355
 661.28; 5252.280;    1.305;    0.000;5250.97479
 661.55; 5240.590;    3.871;    0.000;5236.71859
 661.81; 5181.160;    0.349;    0.000;5180.81141
 662.08; 5128.330;   -1.056;    0.000;5129.38633
 662.35; 5098.980;    0.981;    0.000;5097.99873
 662.62; 5080.150;    0.535;    0.000;5079.61490
 662.89; 5014.660;    3.275;    0.000;5011.38516
 663.16; 4990.620;   -0.139;    0.000;4990.75887
 663.43; 4967.540;    1.344;    0.000;4966.19629
 663.70; 4918.080;    3.266;    0.000;4914.81383
 663.96; 4881.220;    1.253;    0.000;4879.96771
 664.23; 4816.960;    0.530;    0.000;4816.42996
 664.50; 4816.020;    2.487;    0.000;4813.53252
 664.77; 4776.770;   -0.877;    0.000;4777.64752
 665.04; 4756.680;    3.953;    0.000;4752.72768
 665.31; 4712.530;    0.842;    0.000;4711.68729
 665.58; 4663.850;    2.457;    0.000;4661.39260
 665.84; 4630.480;    0.780;    0.000;4629.69998
 666.11; 4604.150;    4.791;    0.000;4599.35865
 666.38; 4589.460;   -0.827;    0.000;4590.28746
 666.65; 4531.110;    2.049;    0.000;4529.06111
 666.92; 4489.240;   -1.602;    0.000;4490.84273
 667.19; 4499.830;    2.217;    0.000;4497.61258
 667.46; 4455.360;    0.044;    0.000;4455.31611
 667.72; 4432.300;    2.615;    0.000;4429.68480
 667.99; 4396.170;    1.617;    0.000;4394.55242
 668.26; 4348.910;    4.448;    0.000;4344.46266
 668.53; 4282.970;    1.530;    0.000;4281.44021
 668.80; 4291.870;    1.789;    0.000;4290.08137
 669.06; 4224.100;    3.941;    0.000;4220.15885
 669.33; 4223.010;    4.309;    0.000;4218.70102
 669.60; 4170.520;    0.438;    0.000;4170.08252
 669.87; 4153.300;    1.599;    0.000;4151.70105
 670.14; 4134.240;   -0.375;    0.000;4134.61523
 670.41; 4073.940;    1.401;    0.000;4072.53869
 670.67; 4055.870;    2.004;    0.000;4053.86637
 670.94; 4030.900;    0.808;    0.000;4030.09240
 671.21; 4001.410;    2.151;    0.000;3999.25866
 671.48; 3968.280;   -0.835;    0.000;3969.11503
 671.75; 3930.720;    2.424;    0.000;3928.29622
 672.01; 3916.100;    3.504;    0.000;3912.59635
 672.28; 3891.590;    1.559;    0.000;3890.03134
 672.55; 3884.210;    3.671;    0.000;3880.53871
 672.82; 3818.410;    1.102;    0.000;3817.30741
 673.08; 3785.330;    2.175;    0.000;3783.15508
 673.35; 3733.910;   -0.296;    0.000;3734.20616
 673.62; 3727.900;    0.715;    0.000;3727.18490
 673.89; 3678.980;   -1.376;    0.000;3680.35623
 674.16; 3636.710;    2.699;    0.000;3634.01121
 674.42; 3642.590;    3.569;    0.000;3639.02134
 674.69; 3602.520;    0.779;    0.000;3601.74127
 674.96; 3568.970;    1.980;    0.000;3566.98997
 675.23; 3551.400;    2.409;    0.000;3548.99115
 675.49; 3494.430;    1.455;    0.000;3492.97493
 675.76; 3491.560;    3.918;    0.000;3487.64256
 676.03; 3473.430;    2.640;    0.000;3470.78993
 676.30; 3443.620;    3.191;    0.000;3440.42887
 676.56; 3387.310;    1.544;    0.000;3385.76631
 676.83; 3388.380;    2.005;    0.000;3386.37488
 677.10; 3336.370;    0.876;    0.000;3335.49387
 677.37; 3339.930;    5.404;    0.000;3334.52618
 677.63; 3308.340;   -0.745;    0.000;3309.08509
 677.90; 3269.330;    4.010;    0.000;3265.32008
 678.17; 3224.710;    1.760;    0.000;3222.94996
 678.44; 3243.470;    2.400;    0.000;3241.06997
 678.70; 3179.410;    1.548;    0.000;3177.86241
 678.97; 3176.860;    1.459;    0.000;3175.40136
 679.24; 3149.260;    0.824;    0.000;3148.43626
 679.50; 3094.050;    2.297;    0.000;3091.75255
 679.77; 3088.930;    0.320;    0.000;3088.60993
 680.04; 3081.720;    0.405;    0.000;3081.31497
 680.31; 3050.130;   -0.887;    0.000;3051.01738
 680.57; 3033.440;    2.870;    0.000;3030.56994
 680.84; 2984.640;    1.740;    0.000;2982.89989
 681.11; 2979.610;    1.115;    0.000;2978.49511
 681.37; 2956.010;   -1.815;    0.000;2957.82501
 681.64; 2939.270;   -0.892;    0.000;2940.16252
 681.91; 2903.370;    4.430;    0.000;2898.94012
 682.17; 2885.550;    3.001;    0.000;2882.54880
 682.44; 2846.010;   -1.503;    0.000;2847.51251
 682.71; 2845.170;    3.140;    0.000;2842.02992
 682.98; 2817.250;    1.636;    0.000;2815.61375
 683.24; 2803.120;   -0.827;    0.000;2803.94762
 683.51; 2758.440;    0.954;    0.000;2757.48619
 683.78; 2753.800;    1.344;    0.000;2752.45630
 684.04; 2687.080;    1.450;    0.000;2685.63008
 684.31; 2690.070;    0.043;    0.000;2690.02757
 684.58; 2685.060;    1.136;    0.000;2683.92381
 684.84; 2668.230;    2.069;    0.000;2666.16123
 685.11; 2619.690;    3.858;    0.000;2615.83244
 685.38; 2618.760;    4.713;    0.000;2614.04751
 685.64; 2570.010;    0.870;    0.000;2569.14001
 685.91; 2591.000;   -0.069;    0.000;2591.06875
 686.17; 2553.060;    2.316;    0.000;2550.74381
 686.44; 2552.310;   -0.858;    0.000;2553.16756
 686.71; 2507.500;    1.816;    0.000;2505.68375
 686.97; 2496.000;   -1.670;    0.000;2497.67000
 687.24; 2452.950;    0.944;    0.000;2452.00620
 687.51; 2456.450;    0.550;    0.000;2455.89995
 687.77; 2429.860;    1.104;    0.000;2428.75636
 688.04; 2410.080;    1.634;    0.000;2408.44633
 688.31; 2391.000;    2.836;    0.000;2388.16375
 688.57; 2393.680;    1.955;    0.000;2391.72493
 688.84; 2351.480;    1.581;    0.000;2349.89873
 689.10; 2325.030;    3.057;    0.000;2321.97253
 689.37; 2323.330;    1.930;    0.000;2321.40008
 689.64; 2277.650;    0.310;    0.000;2277.33990
 689.90; 2279.120;    1.576;    0.000;2277.54387
 690.17; 2252.590;    3.089;    0.000;2249.50134
 690.44; 2223.560;   -0.029;    0.000;2223.58881
 690.70; 2214.990;    2.069;    0.000;2212.92124
 690.97; 2181.120;    0.464;    0.000;2180.65637
 691.23; 2167.120;    2.264;    0.000;2164.85637
 691.50; 2155.180;    0.368;    0.000;2154.81243
 691.77; 2142.310;    3.309;    0.000;2139.00131
 692.03; 2108.060;   -0.905;    0.000;2108.96506
 692.30; 2095.400;    1.190;    0.000;2094.20990
 692.56; 2041.620;    0.126;    0.000;2041.49375
 692.83; 2052.320;    0.384;    0.000;2051.93632
 693.10; 2040.480;    3.125;    0.000;2037.35498
 693.36; 2019.630;    2.911;    0.000;2016.71875
 693.63; 1978.660;    0.608;    0.000;1978.05253
 693.89; 1968.530;   -0.538;    0.000;1969.06753
 694.16; 1942.910;    0.642;    0.000;1942.26753
 694.42; 1929.440;    0.609;    0.000;1928.83119
 694.69; 1926.160;    3.661;    0.000;1922.49878
 694.96; 1924.370;    3.156;    0.000;1921.21375
 695.22; 1875.030;    2.274;    0.000;1872.75628
 695.49; 1860.050;    3.946;    0.000;1856.10380
 695.75; 1826.650;    2.188;    0.000;1824.46252
 696.02; 1812.760;    2.641;    0.000;1810.11876
 696.28; 1801.590;    2.575;    0.000;1799.01497
 696.55; 1785.370;    1.420;    0.000;1783.95000
 696.81; 1760.670;    1.639;    0.000;1759.03129
 697.08; 1724.800;    0.668;    0.000;1724.13255
 697.34; 1703.530;    0.815;    0.000;1702.71503
 697.61; 1700.870;    1.273;    0.000;1699.59750
 697.88; 1662.500;    0.400;    0.000;1662.10000
 698.14; 1674.500;    0.565;    0.000;1673.93500
 698.41; 1644.010;    2.316;    0.000;1641.69376
 698.67; 1625.760;    0.394;    0.000;1625.36626
 698.94; 1580.720;   -0.249;    0.000;1580.96872
 699.20; 1582.630;   -1.043;    0.000;1583.67250
 699.47; 1551.340;    3.237;    0.000;1548.10247
 699.73; 1531.270;    2.318;    0.000;1528.95252
 700.00; 1494.340;   -2.205;    0.000;1496.54497
 700.26; 1497.460;    1.921;    0.000;1495.53871
 700.53; 1468.750;   -0.345;    0.000;1469.09500
 700.79; 1477.920;    2.044;    0.000;1475.87629
 701.06; 1436.370;    1.224;    0.000;1435.14625
 701.32; 1424.630;    3.382;    0.000;1421.24750
 701.59; 1393.260;    0.240;    0.000;1393.02001
 701.85; 1397.310;   -1.337;    0.000;1398.64756
 702.12; 1361.140;   -0.553;    0.000;1361.69251
 702.38; 1352.240;    0.720;    0.000;1351.51999
 702.65; 1324.230;    2.704;    0.000;1321.52623
 702.91; 1317.690;    3.130;    0.000;1314.55994
 703.18; 1287.120;    0.159;    0.000;1286.96125
 703.44; 1278.500;    2.589;    0.000;1275.91125
 703.71; 1259.460;    0.451;    0.000;1259.00871
 703.97; 1233.970;    1.933;    0.000;1232.03747
 704.24; 1203.940;    2.733;    0.000;1201.20744
 704.50; 1189.000;   -1.066;    0.000;1190.06625
 704.76; 1189.740;    0.973;    0.000;1188.76749
 705.03; 1160.800;    3.154;    0.000;1157.64630
 705.29; 1129.900;   -1.855;    0.000;1131.75502
 705.56; 1130.690;    0.824;    0.000;1129.86619
 705.82; 1101.090;    1.599;    0.000;1099.49122
 706.09; 1107.840;    3.196;    0.000;1104.64372
 706.35; 1068.260;   -0.994;    0.000;1069.25376
 706.62; 1071.300;    3.101;    0.000;1068.19880
 706.88; 1029.250;    0.259;    0.000;1028.99125
 707.15; 1024.780;    2.235;    0.000;1022.54503
 707.41;  996.200;    1.023;    0.000;995.17751
 707.67; 1008.400;    2.314;    0.000;1006.08627
 707.94;  984.610;    0.341;    0.000;984.26874
 708.20;  952.020;    2.445;    0.000;949.57502
 708.47;  940.700;    0.235;    0.000;940.46501
 708.73;  939.970;    1.543;    0.000;938.42747
 709.00;  915.440;    1.543;    0.000;913.89750
 709.26;  905.230;    3.355;    0.000;901.87498
 709.52;  884.750;    1.150;    0.000;883.60000
 709.79;  882.670;    2.364;    0.000;880.30623
 710.05;  863.760;    1.482;    0.000;862.27751
 710.32;  849.360;    2.600;    0.000;846.75999
 710.58;  834.810;   -0.961;    0.000;835.77125
 710.84;  832.980;    3.686;    0.000;829.29373
 711.11;  827.360;    0.292;    0.000;827.06749
 711.37;  809.550;    3.571;    0.000;805.97874
 711.64;  787.810;    1.284;    0.000;786.52625
 711.90;  807.200;    3.639;    0.000;803.56126
 712.16;  765.390;    3.284;    0.000;762.10626
 712.43;  777.970;    1.572;    0.000;776.39747
 712.69;  756.370;    3.364;    0.000;753.00625
 712.96;  743.120;    2.591;    0.000;740.52875
 713.22;  722.100;    1.612;    0.000;720.48748
 713.48;  732.250;    0.123;    0.000;732.12750
 713.75;  729.910;   -1.460;    0.000;731.36997
 714.01;  712.860;    5.713;    0.000;707.14749
 714.27;  694.840;    1.730;    0.000;693.11003
 714.54;  711.020;    2.946;    0.000;708.07377
 714.80;  696.120;    1.184;    0.000;694.93625
 715.06;  694.330;    2.250;    0.000;692.08002
 715.33;  664.220;    1.124;    0.000;663.09622
 715.59;  671.830;    1.466;    0.000;670.36377
 715.86;  658.610;    3.069;    0.000;655.54124
 716.12;  673.930;    1.867;    0.000;672.06249
 716.38;  660.260;    2.986;    0.000;657.27376
 716.65;  640.700;    3.819;    0.000;636.88126
 716.91;  631.900;    0.629;    0.000;631.27127
 717.17;  648.560;    3.425;    0.000;645.13500
 717.44;  622.230;    2.554;    0.000;619.67623
 717.70;  642.640;    3.246;    0.000;639.39376
 717.96;  618.600;    0.561;    0.000;618.03873
 718.23;  619.960;   -0.406;    0.000;620.36627
 718.49;  608.150;    1.106;    0.000;607.04377
 718.75;  611.050;    4.903;    0.000;606.14749
 719.02;  590.850;    0.034;    0.000;590.81623
 719.28;  597.900;    0.564;    0.000;597.33627
 719.54;  589.070;    0.788;    0.000;588.28251
 719.80;  591.220;    2.293;    0.000;588.92747
 720.07;  579.150;   -0.094;    0.000;579.24377
 720.33;  585.170;    1.286;    0.000;583.88373
 720.59;  583.660;    1.628;    0.000;582.03247
 720.86;  579.350;   -1.405;    0.000;580.75498
 721.12;  581.360;    1.731;    0.000;579.62874
 721.38;  586.970;    4.088;    0.000;582.88247
 721.65;  575.580;   -0.108;    0.000;575.68752
 721.91;  589.750;   -0.026;    0.000;589.77625
 722.17;  564.750;   -0.304;    0.000;565.05375
 722.43;  576.530;    3.338;    0.000;573.19253
 722.70;  556.770;    0.495;    0.000;556.27502
 722.96;  566.520;    4.814;    0.000;561.70627
 723.22;  561.890;    2.186;    0.000;559.70376
 723.48;  563.280;    3.430;    0.000;559.85003
 723.75;  540.760;    2.215;    0.000;538.54501
 724.01;  555.950;    1.500;    0.000;554.45001
 724.27;  550.390;   -0.826;    0.000;551.21626
 724.54;  552.830;    2.814;    0.000;550.01627
 724.80;  543.630;   -1.109;    0.000;544.73875
 725.06;  560.670;    3.160;    0.000;557.50998
 725.32;  552.860;    2.344;    0.000;550.51624
 725.59;  551.510;    1.226;    0.000;550.28376
 725.85;  541.790;    2.034;    0.000;539.75623
 726.11;  555.120;    2.994;    0.000;552.12625
 726.37;  530.200;    3.204;    0.000;526.99626
 726.64;  555.520;    2.474;    0.000;553.04627
 726.90;  548.970;    3.596;    0.000;545.37372
 727.16;  545.350;    0.375;    0.000;544.97498
 727.42;  534.630;    0.449;    0.000;534.18125
 727.68;  546.970;    0.172;    0.000;546.79747
 727.95;  518.420;    2.132;    0.000;516.28748
 728.21;  545.070;    3.517;    0.000;541.55251
 728.47;  514.720;   -0.545;    0.000;515.26497
 728.73;  539.490;    3.100;    0.000;536.38999
 729.00;  530.500;    0.755;    0.000;529.74500
 729.26;  527.350;    0.587;    0.000;526.76248
 729.52;  512.120;   -0.405;    0.000;512.52500
 729.78;  515.120;   -2.089;    0.000;517.20875
 730.04;  526.890;    4.343;    0.000;522.54751
 730.31;  516.350;    3.566;    0.000;512.78373
 730.57;  503.340;    4.318;    0.000;499.02250
 730.83;  508.120;    2.994;    0.000;505.12625
 731.09;  517.550;   -0.604;    0.000;518.15374
 731.35;  514.940;    2.505;    0.000;512.43500
 731.62;  487.820;    0.100;    0.000;487.72001
 731.88;  503.660;    1.690;    0.000;501.97000
 732.14;  497.310;   -1.254;    0.000;498.56375
 732.40;  497.550;    3.940;    0.000;493.60999
 732.66;  484.790;    1.069;    0.000;483.72126
 732.92;  491.210;    2.316;    0.000;488.89374
 733.19;  476.090;    1.539;    0.000;474.55125
 733.45;  488.740;    5.839;    0.000;482.90124
 733.71;  482.070;    1.001;    0.000;481.06876
 733.97;  508.240;    3.849;    0.000;504.39124
 734.23;  467.110;   -2.451;    0.000;469.56124
 734.49;  467.970;    3.328;    0.000;464.64250
 734.76;  455.730;    1.984;    0.000;453.74626
 735.02;  470.350;    1.000;    0.000;469.35001
 735.28;  459.490;    1.494;    0.000;457.99624
 735.54;  473.140;    2.599;    0.000;470.54126
 735.80;  449.200;    3.059;    0.000;446.14126
 736.06;  458.450;    1.774;    0.000;456.67626
 736.32;  442.100;   -0.745;    0.000;442.84501
 736.59;  454.050;    1.776;    0.000;452.27374
 736.85;  426.880;    2.046;    0.000;424.83375
 737.11;  443.160;    1.040;    0.000;442.12000
 737.37;  417.200;   -0.538;    0.000;417.73751
 737.63;  433.370;    2.409;    0.000;430.96125
 737.89;  424.550;   -0.147;    0.000;424.69749
 738.15;  439.650;    2.342;    0.000;437.30749
 738.41;  412.130;   -1.143;    0.000;413.27250
 738.67;  425.640;    0.023;    0.000;425.61751
 738.94;  394.060;   -1.278;    0.000;395.33750
 739.20;  418.050;   -0.135;    0.000;418.18499
 739.46;  417.860;    1.821;    0.000;416.03874
 739.72;  410.350;    2.342;    0.000;408.00751
 739.98;  393.670;   -0.039;    0.000;393.70876
 740.24;  403.260;    1.996;    0.000;401.26376
 740.50;  388.790;    2.144;    0.000;386.64626
 740.76;  384.800;    4.496;    0.000;380.30374
 741.02;  374.980;    2.037;    0.000;372.94251
 741.28;  390.410;    4.015;    0.000;386.39500
 741.54;  379.190;    2.483;    0.000;376.70750
 741.81;  374.820;    3.010;    0.000;371.81001
 742.07;  362.180;    1.163;    0.000;361.01749
 742.33;  369.850;    2.645;    0.000;367.20501
 742.59;  362.730;    1.821;    0.000;360.90876
 742.85;  361.360;    0.298;    0.000;361.06249
 743.11;  336.510;    1.705;    0.000;334.80501
 743.37;  358.390;    0.685;    0.000;357.70501
 743.63;  331.270;    4.071;    0.000;327.19874
 743.89;  332.870;    4.113;    0.000;328.75749
 744.15;  331.960;    0.405;    0.000;331.55499
 744.41;  337.890;   -1.540;    0.000;339.43001
 744.67;  312.330;    1.661;    0.000;310.66874
 744.93;  333.020;    0.085;    0.000;332.93499
 745.19;  311.200;    2.245;    0.000;308.95501
 745.45;  314.490;    0.485;    0.000;314.00499
 745.71;  306.260;    1.388;    0.000;304.87251
 745.97;  316.460;    1.060;    0.000;315.39999
 746.23;  296.600;    1.283;    0.000;295.31751
 746.49;  289.070;    3.820;    0.000;285.25001
 746.75;  304.760;    3.335;    0.000;301.42501
 747.02;  286.840;    1.569;    0.000;285.27125
 747.28;  274.190;   -0.540;    0.000;274.73000
 747.54;  289.360;    2.818;    0.000;286.54249
 747.80;  273.170;   -1.074;    0.000;274.24376
 748.06;  278.200;   -5.407;    0.000;283.60751
 748.32;  250.610;    3.335;    0.000;247.27500
 748.58;  276.960;    4.275;    0.000;272.68499
 748.84;  268.520;    1.499;    0.000;267.02124
 749.10;  343.360;    9.339;    0.000;334.02124
 749.36;  253.990;    2.190;    0.000;251.80001
 749.62;  254.080;    2.432;    0.000;251.64750
 749.88;  247.110;    1.871;    0.000;245.23875
 750.14;  251.720;    3.449;    0.000;248.27125
 750.40;  240.720;   -1.523;    0.000;242.24250
 750.66;  253.280;    5.100;    0.000;248.18000
 750.91;  230.390;    1.121;    0.000;229.26875
 751.17;  237.420;    4.999;    0.000;232.42125
 751.43;  222.440;   -1.806;    0.000;224.24625
 751.69;  242.680;    4.175;    0.000;238.50499
 751.95;  215.790;    1.244;    0.000;214.54624
 752.21;  236.690;    2.675;    0.000;234.01500
 752.47;  217.820;    1.139;    0.000;216.68126
 752.73;  216.740;    3.609;    0.000;213.13126
 752.99;  195.020;   -0.211;    0.000;195.23125
 753.25;  210.640;    2.358;    0.000;208.28250
 753.51;  202.610;    1.201;    0.000;201.40875
 753.77;  202.790;    1.548;    0.000;201.24249
 754.03;  194.950;    0.859;    0.000;194.09125
 754.29;  195.650;    1.796;    0.000;193.85374
 754.55;  189.920;    3.635;    0.000;186.28500
 754.81;  197.430;    2.146;    0.000;195.28374
 755.07;  182.130;    0.389;    0.000;181.74125
 755.33;  192.840;    2.674;    0.000;190.16625
 755.59;  177.850;    1.291;    0.000;176.55876
 755.85;  186.890;    1.286;    0.000;185.60375
 756.10;  180.360;    2.474;    0.000;177.88625
 756.36;  173.270;    1.336;    0.000;171.93375
 756.62;  161.130;    1.236;    0.000;159.89375
 756.88;  184.140;    1.444;    0.000;182.69625
 757.14;  160.860;    1.900;    0.000;158.96000
 757.40;  174.350;    3.004;    0.000;171.34626
 757.66;  154.950;    2.839;    0.000;152.11125
 757.92;  161.930;    2.434;    0.000;159.49624
 758.18;  150.060;    1.880;    0.000;148.18000
 758.44;  158.310;    1.215;    0.000;157.09500
 758.70;  148.890;    1.508;    0.000;147.38250
 758.95;  158.840;   -0.256;    0.000;159.09625
 759.21;  142.330;    0.169;    0.000;142.16125
 759.47;  161.750;    4.939;    0.000;156.81125
 759.73;  129.150;    0.292;    0.000;128.85749
 759.99;  141.840;    3.420;    0.000;138.42000
 760.25;  131.790;    0.416;    0.000;131.37374
 760.51;  136.100;   -0.933;    0.000;137.03251
 760.77;  138.120;    3.746;    0.000;134.37375
 761.02;  145.380;    3.771;    0.000;141.60875
 761.28;  127.780;    1.756;    0.000;126.02375
 761.54;  139.880;    3.152;    0.000;136.72750
 761.80;  127.760;    2.394;    0.000;125.36625
 762.06;  137.920;    2.415;    0.000;135.50500
 762.32;  111.560;   -0.226;    0.000;111.78625
 762.58;  123.800;    0.177;    0.000;123.62250
 762.83;  133.390;    2.280;    0.000;131.11000
 763.09;  126.480;    4.425;    0.000;122.05500
 763.35;  115.030;    2.086;    0.000;112.94375
 763.61;  138.050;    3.421;    0.000;134.62875
 763.87;  121.110;    2.898;    0.000;118.21250
 764.13;  122.840;    2.771;    0.000;120.06875
 764.38;  101.280;    0.603;    0.000;100.67750
 764.64;  114.960;    0.809;    0.000;114.15125
 764.90;  110.360;    2.140;    0.000;108.22000
 765.16;  119.220;    2.909;    0.000;116.31125
 765.42;  109.430;    1.378;    0.000;108.05250
 765.68;  107.610;    1.506;    0.000;106.10375
 765.93;  104.720;    0.826;    0.000;103.89375
 766.19;  113.770;    1.595;    0.000;112.17500
 766.45;   96.460;    3.033;    0.000;93.42750
 766.71;  107.510;    1.970;    0.000;105.54000
 766.97;   93.780;    1.930;    0.000;91.85000
 767.22;  101.960;    0.001;    0.000;101.95875
 767.48;   84.920;    2.169;    0.000;82.75125
 767.74;  100.880;    3.239;    0.000;97.64125
 768.00;   90.780;    0.127;    0.000;90.65250
 768.26;   92.820;    2.041;    0.000;90.77875
 768.51;   90.810;    1.921;    0.000;88.88875
 768.77;  106.820;    2.866;    0.000;103.95375
 769.03;   89.870;    1.215;    0.000;88.65500
 769.29;   88.600;    3.609;    0.000;84.99125
 769.54;   78.450;   -1.861;    0.000;80.31125
 769.80;   89.150;    1.023;    0.000;88.12750
 770.06;   77.430;   -2.848;    0.000;80.27750
 770.32;   84.750;    3.336;    0.000;81.41375
 770.57;   74.560;    3.290;    0.000;71.27000
 770.83;   93.880;    2.001;    0.000;91.87875
 771.09;   72.310;    0.305;    0.000;72.00500
 771.35;   73.930;   -0.986;    0.000;74.91625
 771.61;   81.200;    3.224;    0.000;77.97625
 771.86;   94.100;    2.035;    0.000;92.06500
 772.12;   62.070;    2.678;    0.000;59.39250
 772.38;   78.990;    2.819;    0.000;76.17125
 772.63;   66.670;    2.169;    0.000;64.50125
 772.89;   77.220;    1.089;    0.000;76.13125
 773.15;   56.650;    3.095;    0.000;53.55500
 773.41;   68.040;    2.499;    0.000;65.54125
 773.66;   76.460;    2.453;    0.000;74.00750
 773.92;   73.100;    2.392;    0.000;70.70750
 774.18;   73.730;    0.616;    0.000;73.11375
 774.44;   62.880;    2.901;    0.000;59.97875
 774.69;   67.670;    2.365;    0.000;65.30500
 774.95;   70.490;    1.592;    0.000;68.89750
 775.21;   74.010;    3.401;    0.000;70.60875
 775.46;   59.900;    2.118;    0.000;57.78250
 775.72;   55.990;   -0.757;    0.000;56.74750
 775.98;   73.360;    2.870;    0.000;70.49000
 776.24;   46.910;    0.654;    0.000;46.25625
 776.49;   68.730;    0.461;    0.000;68.26875
 776.75;   50.260;   -0.097;    0.000;50.35750
 777.01;   55.590;    2.346;    0.000;53.24375
 777.26;   60.360;   -0.501;    0.000;60.86125
 777.52;   65.730;    3.513;    0.000;62.21750
 777.78;   52.400;    2.825;    0.000;49.57500
 778.03;   72.630;    4.813;    0.000;67.81750
 778.29;   53.030;   -1.135;    0.000;54.16500
 778.55;   59.090;    4.461;    0.000;54.62875
 778.80;   49.520;    4.707;    0.000;44.81250
 779.06;   52.790;    1.582;    0.000;51.20750
 779.32;   44.300;   -1.487;    0.000;45.78750
 779.57;   50.390;    5.735;    0.000;44.65500
 779.83;   42.750;    0.904;    0.000;41.84625
 780.09;   47.640;    4.139;    0.000;43.50125
 780.34;   48.270;    2.516;    0.000;45.75375
 780.60;   59.540;    5.276;    0.000;54.26375
 780.86;   42.130;    1.526;    0.000;40.60375
 781.11;   50.450;    2.318;    0.000;48.13250
 781.37;   31.880;    0.714;    0.000;31.16625
 781.63;   59.110;    0.601;    0.000;58.50875
 781.88;   29.390;    0.507;    0.000;28.88250
 782.14;   46.380;    2.296;    0.000;44.08375
 782.39;   32.560;    1.691;    0.000;30.86875
 782.65;   38.680;    0.065;    0.000;38.61500
 782.91;   37.390;    2.026;    0.000;35.36375
 783.16;   45.450;    1.395;    0.000;44.05500
 783.42;   22.750;    0.733;    0.000;22.01750
 783.67;   40.850;    2.081;    0.000;38.76875
 783.93;   25.240;    0.939;    0.000;24.30125
 784.19;   39.850;    1.356;    0.000;38.49375
 784.44;   39.510;    2.641;    0.000;36.86875
 784.70;   39.720;    3.922;    0.000;35.79750
 784.96;   23.110;   -0.010;    0.000;23.12000
 785.21;   33.290;    0.863;    0.000;32.42750
 785.47;   44.840;    1.643;    0.000;43.19750
 785.72;   32.180;    0.114;    0.000;32.06625
 785.98;   23.840;   -0.705;    0.000;24.54500
 786.23;   30.430;    1.793;    0.000;28.63750
 786.49;   18.770;    0.989;    0.000;17.78125
 786.75;   26.020;    3.019;    0.000;23.00125
 787.00;   16.800;    0.529;    0.000;16.27125
 787.26;   25.660;    1.590;    0.000;24.07000
 787.51;   18.720;    0.141;    0.000;18.57875
 787.77;   29.140;    1.200;    0.000;27.94000
 788.02;   19.510;    1.789;    0.000;17.72125
 788.28;   26.670;    0.800;    0.000;25.87000
 788.54;   11.610;   -0.199;    0.000;11.80875
 788.79;   23.570;    0.516;    0.000;23.05375
 789.05;   18.370;    3.386;    0.000;14.98375
 789.30;   22.900;    5.298;    0.000;17.60250
 789.56;   17.050;    1.327;    0.000;15.72250
 789.81;   23.180;    2.234;    0.000;20.94625
 790.07;    7.880;   -0.301;    0.000; 8.18125
 790.32;   30.360;    1.149;    0.000;29.21125
 790.58;    9.820;    1.655;    0.000; 8.16500
 790.83;   19.860;    5.036;    0.000;14.82375
 791.09;    2.700;    0.239;    0.000; 2.46125
 791.35;   15.690;    0.884;    0.000;14.80625
 791.60;    2.030;    1.294;    0.000; 0.73625
 791.86;   18.410;    3.580;    0.000;14.83000
 792.11;    7.770;    0.661;    0.000; 7.10875
 792.37;   15.580;    2.549;    0.000;13.03125
 792.62;   20.195;    2.610;    0.000;17.58500
 792.88;   24.810;    2.671;    0.000;22.13875
 793.13;    7.100;    1.554;    0.000; 5.54625
 793.39;    8.440;    2.964;    0.000; 5.47625
 793.64;    9.090;    1.725;    0.000; 7.36500
 793.90;   17.030;    0.824;    0.000;16.20625
 794.15;    9.730;    4.068;    0.000; 5.66250
 794.41;   15.840;    2.352;    0.000;13.48750
 794.66;   10.860;    1.508;    0.000; 9.35250
 794.92;   17.730;    4.101;    0.000;13.62875
 795.17;   -9.240;   -0.748;    0.000;-8.49250
 795.43;   -1.630;    2.310;    0.000;-3.94000
 795.68;    4.580;    1.050;    0.000; 3.53000
 795.94;   18.530;    2.206;    0.000;16.32375
 796.19;    0.520;    2.890;    0.000;-2.37000
 796.44;    3.720;    2.810;    0.000; 0.91000
 796.70;    1.980;   -0.166;    0.000; 2.14625
 796.95;    9.110;    4.159;    0.000; 4.95125
 797.21;    1.210;    0.479;    0.000; 0.73125
 797.46;    9.550;   -2.271;    0.000;11.82125
 797.72;   -4.800;   -0.439;    0.000;-4.36125
 797.97;   -5.310;    0.895;    0.000;-6.20500
 798.23;   -6.940;    5.259;    0.000;-12.19875
 798.48;    4.900;    0.045;    0.000; 4.85500
 798.74;   -1.040;    0.639;    0.000;-1.67875
 798.99;    1.170;    2.686;    0.000;-1.51625
 799.24;   -8.340;    3.122;    0.000;-11.46250
 799.50;   -3.970;    1.000;    0.000;-4.97000
 799.75;    0.130;   -0.770;    0.000; 0.90000
 800.01;    0.730;   -0.245;    0.000; 0.97500
 800.26;   -9.170;   -0.215;    0.000;-8.95500
 800.52;   -5.120;    2.511;    0.000;-7.63125
 800.77;  -11.700;    2.716;    0.000;-14.41625
 801.02;   -3.250;    1.580;    0.000;-4.83000
 801.28;  -21.070;   -0.673;    0.000;-20.39750
 801.53;    7.750;    0.356;    0.000; 7.39375
 801.79;   -4.270;    3.321;    0.000;-7.59125
 802.04;   -2.460;    1.775;    0.000;-4.23500
 802.29;   -7.290;    1.541;    0.000;-8.83125
 802.55;   -1.490;   -0.161;    0.000;-1.32875
 802.80;  -11.250;    1.750;    0.000;-13.00000
 803.06;   -3.070;    1.202;    0.000;-4.27250
 803.31;  -18.410;    2.051;    0.000;-20.46125
 803.56;    0.680;    1.589;    0.000;-0.90875
 803.82;  -16.510;    1.819;    0.000;-18.32875
 804.07;   -8.860;    1.121;    0.000;-9.98125
 804.32;  -17.030;    2.470;    0.000;-19.50000
 804.58;  -10.430;    0.745;    0.000;-11.17500
 804.83;  -17.160;    2.861;    0.000;-20.02125
 805.09;   -9.990;    2.116;    0.000;-12.10625
 805.34;  -17.480;    2.130;    0.000;-19.61000
 805.59;   -6.330;    1.832;    0.000;-8.16250
 805.85;  -15.840;    2.691;    0.000;-18.53125
 806.10;  -10.610;    4.224;    0.000;-14.83375
 806.35;  -16.910;    1.335;    0.000;-18.24500
 806.61;    0.860;    3.255;    0.000;-2.39500
 806.86;  -22.350;    2.753;    0.000;-25.10250
 807.11;   -1.390;    2.922;    0.000;-4.31250
 807.37;  -11.880;    2.905;    0.000;-14.78500
 807.62;  -11.790;    1.607;    0.000;-13.39750
 807.87;  -19.560;    6.104;    0.000;-25.66375
 808.13;   -4.060;    0.795;    0.000;-4.85500
 808.38;  -28.250;   -0.554;    0.000;-27.69625
 808.63;   -1.020;    4.699;    0.000;-5.71875
 808.89;  -27.720;   -1.511;    0.000;-26.20875
 809.14;  -15.750;    1.401;    0.000;-17.15125
 809.39;  -26.780;   -2.053;    0.000;-24.72750
 809.65;  -16.310;    1.450;    0.000;-17.76000
 809.90;  -24.290;    3.850;    0.000;-28.14000
 810.15;  -17.880;    2.366;    0.000;-20.24625
 810.41;  -19.040;    0.111;    0.000;-19.15125
 810.66;  -12.160;    1.721;    0.000;-13.88125
 810.91;  -29.710;    0.284;    0.000;-29.99375
 811.16;  -28.150;    3.254;    0.000;-31.40375
 811.42;  -26.430;    1.806;    0.000;-28.23625
 811.67;  -12.530;    5.146;    0.000;-17.67625
 811.92;  -26.340;    1.339;    0.000;-27.67875
 812.18;  -19.980;    3.764;    0.000;-23.74375
 812.43;  -36.180;    0.262;    0.000;-36.44250
 812.68;  -22.320;   -0.415;    0.000;-21.90500
 812.93;  -32.820;   -0.444;    0.000;-32.37625
 813.19;  -11.280;    3.415;    0.000;-14.69500
 813.44;  -33.470;   -0.468;    0.000;-33.00250
 813.69;   -9.480;    3.735;    0.000;-13.21500
 813.95;  -26.400;    0.120;    0.000;-26.52000
 814.20;  -19.540;    1.482;    0.000;-21.02250
 814.45;  -33.680;    1.362;    0.000;-35.04250
 814.70;  -16.100;    2.450;    0.000;-18.55000
 814.96;  -30.720;    1.610;    0.000;-32.33000
 815.21;  -24.250;    0.421;    0.000;-24.67125
 815.46;  -40.160;    3.360;    0.000;-43.52000
 815.71;  -12.940;    1.746;    0.000;-14.68625
 815.96;  -31.890;    1.210;    0.000;-33.10000
 816.22;  -29.150;    3.869;    0.000;-33.01875
 816.47;  -32.530;    1.704;    0.000;-34.23375
 816.72;  -16.950;    2.375;    0.000;-19.32500
 816.97;  -30.030;    0.006;    0.000;-30.03625
 817.23;  -15.400;    2.188;    0.000;-17.58750
 817.48;  -30.130;    0.579;    0.000;-30.70875
 817.73;  -20.710;    1.298;    0.000;-22.00750
 817.98;  -17.870;    4.060;    0.000;-21.93000
 818.23;  -20.100;    2.849;    0.000;-22.94875
 818.49;  -28.920;    2.114;    0.000;-31.03375
 818.74;  -15.920;    3.495;    0.000;-19.41500
 818.99;  -32.530;    3.039;    0.000;-35.56875
 819.24;  -12.740;    4.864;    0.000;-17.60375
 819.50;  -40.340;   -0.814;    0.000;-39.52625
 819.75;  -15.450;    1.827;    0.000;-17.27750
 820.00;  -14.320;    2.721;    0.000;-17.04125
 820.25;  -24.920;    2.957;    0.000;-27.87750
 820.50;  -38.960;    0.806;    0.000;-39.76625
 820.75;  -24.810;    2.321;    0.000;-27.13125
 821.01;  -32.020;   -0.526;    0.000;-31.49375
 821.26;  -29.400;    2.589;    0.000;-31.98875
 821.51;  -35.100;    1.920;    0.000;-37.02000
 821.76;  -32.910;    2.214;    0.000;-35.12375
 822.01;  -32.110;    2.021;    0.000;-34.13125
 822.26;  -26.900;    2.135;    0.000;-29.03500
 822.52;  -33.240;    0.341;    0.000;-33.58125
 822.77;  -29.110;    2.754;    0.000;-31.86375
 823.02;  -34.420;    3.078;    0.000;-37.49750
 823.27;  -34.620;    2.414;    0.000;-37.03375
 823.52;  -34.330;   -1.496;    0.000;-32.83375
 823.77;  -30.130;    2.965;    0.000;-33.09500
 824.03;  -27.870;   -1.638;    0.000;-26.23250
 824.28;  -33.570;    1.317;    0.000;-34.88750
 824.53;  -37.450;    1.336;    0.000;-38.78625
 824.78;  -28.960;    0.855;    0.000;-29.81500
 825.03;  -43.760;    2.570;    0.000;-46.33000
 825.28;  -28.880;    2.166;    0.000;-31.04625
 825.53;  -39.900;    2.836;    0.000;-42.73625
 825.78;  -26.800;    2.856;    0.000;-29.65625
 826.04;  -40.430;   -0.415;    0.000;-40.01500
 826.29;  -28.030;    0.965;    0.000;-28.99500
 826.54;  -40.940;    0.800;    0.000;-41.74000
 826.79;  -24.700;    0.228;    0.000;-24.92750
 827.04;  -50.290;    2.715;    0.000;-53.00500
 827.29;  -25.190;    2.820;    0.000;-28.01000
 827.54;  -36.770;    1.196;    0.000;-37.96625
 827.79;  -33.280;    0.577;    0.000;-33.85750
 828.04;  -43.730;    1.154;    0.000;-44.88375
 828.29;  -33.900;    2.582;    0.000;-36.48250
 828.55;  -42.120;    0.469;    0.000;-42.58875
 828.80;  -33.000;    3.072;    0.000;-36.07250
 829.05;  -39.700;    0.731;    0.000;-40.43125
 829.30;  -42.130;    2.580;    0.000;-44.71000
 829.55;  -45.330;    0.910;    0.000;-46.24000
 829.80;  -39.400;    4.061;    0.000;-43.46125
 830.05;  -47.620;   -0.123;    0.000;-47.49750
 830.30;  -37.790;    2.500;    0.000;-40.29000
 830.55;  -42.690;    1.209;    0.000;-43.89875
 830.80;  -33.970;    0.980;    0.000;-34.95000
 831.05;  -36.180;    1.500;    0.000;-37.68000
 831.30;  -29.800;    2.391;    0.000;-32.19125
 831.55;  -54.030;    2.223;    0.000;-56.25250
 831.80;  -29.510;    2.836;    0.000;-32.34625
 832.05;  -36.140;    1.240;    0.000;-37.38000
 832.30;  -23.590;    2.408;    0.000;-25.99750
 832.56;  -42.600;    2.081;    0.000;-44.68125
 832.81;  -38.690;    1.378;    0.000;-40.06750
 833.06;  -38.830;    4.117;    0.000;-42.94750
 833.31;  -34.830;    2.487;    0.000;-37.31750
 833.56;  -46.060;    0.243;    0.000;-46.30250
 833.81;  -36.470;    2.466;    0.000;-38.93625
 834.06;  -34.660;    1.622;    0.000;-36.28250
 834.31;  -30.330;    3.581;    0.000;-33.91125
 834.56;  -41.120;    4.500;    0.000;-45.62000
 834.81;  -44.810;    1.409;    0.000;-46.21875
 835.06;  -47.450;    0.406;    0.000;-47.85625
 835.31;  -29.920;    3.463;    0.000;-33.38250
 835.56;  -35.510;   -0.016;    0.000;-35.49375
 835.81;  -30.900;    2.260;    0.000;-33.16000
 836.06;  -35.950;    1.614;    0.000;-37.56375
 836.31;  -46.490;    2.148;    0.000;-48.63750
 836.56;  -48.910;    3.629;    0.000;-52.53875
 836.81;  -42.270;    2.047;    0.000;-44.31750
 837.06;  -37.020;    0.816;    0.000;-37.83625
 837.31;  -38.450;    1.456;    0.000;-39.90625
 837.56;  -49.600;    1.783;    0.000;-51.38250
 837.81;  -41.100;    2.975;    0.000;-44.07500
 838.06;  -41.110;    4.039;    0.000;-45.14875
 838.31;  -43.190;    0.147;    0.000;-43.33750
 838.56;  -51.860;    1.841;    0.000;-53.70125
 838.80;  -38.070;    2.314;    0.000;-40.38375
 839.05;  -51.310;    1.386;    0.000;-52.69625
 839.30;  -42.560;    0.001;    0.000;-42.56125
 839.55;  -45.710;    0.301;    0.000;-46.01125
 839.80;  -39.910;    3.539;    0.000;-43.44875
 840.05;  -53.090;    1.010;    0.000;-54.10000
 840.30;  -40.510;    4.226;    0.000;-44.73625
 840.55;  -49.140;    1.514;    0.000;-50.65375
 840.80;  -30.920;    4.875;    0.000;-35.79500
 841.05;  -50.680;    0.784;    0.000;-51.46375
 841.30;  -29.510;    3.494;    0.000;-33.00375
 841.55;  -52.230;   -0.995;    0.000;-51.23500
 841.80;  -48.340;    1.559;    0.000;-49.89875
 842.05;  -50.770;   -1.285;    0.000;-49.48500
 842.30;  -43.280;    2.414;    0.000;-45.69375
 842.55;  -48.370;    1.058;    0.000;-49.42750
 842.79;  -41.460;    1.925;    0.000;-43.38500
 843.04;  -43.710;    0.854;    0.000;-44.56375
 843.29;  -36.820;    2.419;    0.000;-39.23875
 843.54;  -62.000;    4.284;    0.000;-66.28375
 843.79;  -39.790;    1.813;    0.000;-41.60250
 844.04;  -40.080;    4.705;    0.000;-44.78500
 844.29;  -39.220;    2.770;    0.000;-41.99000
 844.54;  -47.420;    1.173;    0.000;-48.59250
 844.79;  -43.800;    3.172;    0.000;-46.97250
 845.04;  -49.940;   -1.031;    0.000;-48.90875
 845.28;  -45.280;    3.310;    0.000;-48.59000
 845.53;  -54.290;    1.750;    0.000;-56.04000
 845.78;  -24.780;    1.957;    0.000;-26.73750
 846.03;  -54.970;    1.346;    0.000;-56.31625
 846.28;  -48.630;    2.110;    0.000;-50.74000
 846.53;  -42.930;    0.154;    0.000;-43.08375
 846.78;  -35.450;    4.660;    0.000;-40.11000
 847.02;  -46.870;    2.714;    0.000;-49.58375
 847.27;  -36.000;    1.837;    0.000;-37.83750
 847.52;  -53.840;    3.047;    0.000;-56.88750
 847.77;  -45.430;    3.314;    0.000;-48.74375
 848.02;  -53.810;   -0.440;    0.000;-53.37000
 848.27;  -44.670;    3.787;    0.000;-48.45750
 848.52;  -57.630;    2.264;    0.000;-59.89375
 848.76;  -41.210;    0.844;    0.000;-42.05375
 849.01;  -48.620;    2.570;    0.000;-51.19000
 849.26;  -50.060;    0.859;    0.000;-50.91875
 849.51;  -53.140;    3.328;    0.000;-56.46750
 849.76;  -45.380;    1.469;    0.000;-46.84875
 850.01;  -53.950;    0.701;    0.000;-54.65125
 850.25;  -42.820;    0.585;    0.000;-43.40500
 850.50;  -64.020;    0.848;    0.000;-64.86750
 850.75;  -47.200;    1.875;    0.000;-49.07500
 851.00;  -56.310;   -0.499;    0.000;-55.81125
 851.25;  -47.000;    3.796;    0.000;-50.79625
 851.49;  -60.790;    3.533;    0.000;-64.32250
 851.74;  -51.200;   -0.102;    0.000;-51.09750
 851.99;  -58.010;    2.578;    0.000;-60.58750
 852.24;  -48.040;    0.231;    0.000;-48.27125
 852.49;  -66.300;    0.465;    0.000;-66.76500
 852.73;  -58.070;    2.121;    0.000;-60.19125
 852.98;  -59.850;    0.601;    0.000;-60.45125
 853.23;  -55.940;    4.595;    0.000;-60.53500
 853.48;  -60.790;   -0.339;    0.000;-60.45125
 853.73;  -53.390;    1.725;    0.000;-55.11500
 853.97;  -56.420;    1.999;    0.000;-58.41875
 854.22;  -58.880;    2.446;    0.000;-61.32625
 854.47;  -64.910;    2.151;    0.000;-67.06125
 854.72;  -42.270;    1.765;    0.000;-44.03500
 854.96;  -63.190;    2.703;    0.000;-65.89250
 855.21;  -57.460;    1.244;    0.000;-58.70375
 855.46;  -45.150;    0.944;    0.000;-46.09375
 855.71;  -60.480;    0.262;    0.000;-60.74250
 855.95;  -52.080;    2.922;    0.000;-55.00250
 856.20;  -56.610;    2.591;    0.000;-59.20125
 856.45;  -58.490;    1.355;    0.000;-59.84500
 856.70;  -57.900;    4.641;    0.000;-62.54125
 856.94;  -57.970;    1.589;    0.000;-59.55875
 857.19;  -47.770;    2.404;    0.000;-50.17375
 857.44;  -62.670;    1.933;    0.000;-64.60250
 857.69;  -46.190;    5.104;    0.000;-51.29375
 857.93;  -61.160;    3.511;    0.000;-64.67125
 858.18;  -49.540;    1.986;    0.000;-51.52625
 858.43;  -65.550;   -0.159;    0.000;-65.39125
 858.67;  -41.040;    5.415;    0.000;-46.45500
 858.92;  -53.440;    1.999;    0.000;-55.43875
 859.17;  -44.320;    4.201;    0.000;-48.52125
 859.42;  -66.700;    0.545;    0.000;-67.24500
 859.66;  -60.210;    3.158;    0.000;-63.36750
 859.91;  -59.240;   -0.270;    0.000;-58.97000
 860.16;  -60.050;    1.684;    0.000;-61.73375
 860.40;  -64.230;    1.197;    0.000;-65.42750
 860.65;  -57.830;    1.515;    0.000;-59.34500
 860.90;  -71.240;   -0.985;    0.000;-70.25500
 861.14;  -50.710;    0.160;    0.000;-50.87000
 861.39;  -65.900;    0.465;    0.000;-66.36500
 861.64;  -44.780;    3.563;    0.000;-48.34250
 861.88;  -61.990;    3.859;    0.000;-65.84875
 862.13;  -53.860;    2.254;    0.000;-56.11375
 862.38;  -70.540;    0.489;    0.000;-71.02875
 862.62;  -57.080;    1.619;    0.000;-58.69875
 862.87;  -57.930;    0.080;    0.000;-58.01000
 863.12;  -58.860;    0.527;    0.000;-59.38750
 863.36;  -64.450;    3.011;    0.000;-67.46125
 863.61;  -50.570;    2.111;    0.000;-52.68125
 863.86;  -66.980;    0.804;    0.000;-67.78375
 864.10;  -49.980;    2.416;    0.000;-52.39625
 864.35;  -63.340;    1.164;    0.000;-64.50375
 864.60;  -60.990;    0.605;    0.000;-61.59500
 864.84;  -74.200;    1.896;    0.000;-76.09625
 865.09;  -47.070;    2.196;    0.000;-49.26625
 865.33;  -63.540;    3.348;    0.000;-66.88750
 865.58;  -53.230;    3.236;    0.000;-56.46625
 865.83;  -63.380;    2.321;    0.000;-65.70125
 866.07;  -66.050;    2.855;    0.000;-68.90500
 866.32;  -44.390;    2.915;    0.000;-47.30500
 866.57;  -49.380;   -1.800;    0.000;-47.58000
 866.81;  -69.190;    1.764;    0.000;-70.95375
 867.06;  -60.540;   -0.352;    0.000;-60.18750
 867.30;  -76.400;   -0.220;    0.000;-76.18000
 867.55;  -61.700;    1.786;    0.000;-63.48625
 867.80;  -52.900;    2.810;    0.000;-55.71000
 868.04;  -57.450;    4.080;    0.000;-61.53000
 868.29;  -69.110;    3.003;    0.000;-72.11250
 868.53;  -51.500;    3.311;    0.000;-54.81125
 868.78;  -70.470;   -0.996;    0.000;-69.47375
 869.03;  -54.960;    2.876;    0.000;-57.83625
 869.27;  -69.520;    2.398;    0.000;-71.91750
 869.52;  -59.790;    3.370;    0.000;-63.16000
 869.76;  -65.730;    2.531;    0.000;-68.26125
 870.01;  -58.310;    3.679;    0.000;-61.98875
 870.25;  -59.480;    3.981;    0.000;-63.46125
 870.50;  -53.470;    2.935;    0.000;-56.40500
 870.75;  -67.190;    0.636;    0.000;-67.82625
 870.99;  -50.830;    0.940;    0.000;-51.77000
 871.24;  -61.070;    0.904;    0.000;-61.97375
 871.48;  -51.330;    5.313;    0.000;-56.64250
 871.73;  -64.440;    2.930;    0.000;-67.37000
 871.97;  -63.880;    2.589;    0.000;-66.46875
 872.22;  -61.140;    3.342;    0.000;-64.48250
 872.46;  -42.750;    2.088;    0.000;-44.83750
 872.71;  -69.860;    0.244;    0.000;-70.10375
 872.95;  -56.710;    2.320;    0.000;-59.03000
 873.20;  -58.360;    2.894;    0.000;-61.25375
 873.44;  -43.130;    4.470;    0.000;-47.60000
 873.69;  -71.350;    2.315;    0.000;-73.66500
 873.94;  -51.280;    3.934;    0.000;-55.21375
 874.18;  -72.620;    1.847;    0.000;-74.46750
 874.43;  -55.630;    2.386;    0.000;-58.01625
 874.67;  -68.740;   -0.515;    0.000;-68.22500
 874.92;  -42.100;    1.961;    0.000;-44.06125
 875.16;  -67.530;    4.129;    0.000;-71.65875
 875.41;  -58.430;    0.016;    0.000;-58.44625
 875.65;  -62.850;   -0.228;    0.000;-62.62250
 875.90;  -50.200;    5.189;    0.000;-55.38875
 876.14;  -73.960;    2.056;    0.000;-76.01625
 876.39;  -58.970;    3.029;    0.000;-61.99875
 876.63;  -68.760;    2.815;    0.000;-71.57500
 876.88;  -62.400;    1.354;    0.000;-63.75375
 877.12;  -55.970;    1.954;    0.000;-57.92375
 877.36;  -54.070;    1.592;    0.000;-55.66250
 877.61;  -78.890;    1.324;    0.000;-80.21375
 877.85;  -59.130;    3.668;    0.000;-62.79750
 878.10;  -65.920;    1.811;    0.000;-67.73125
 878.34;  -52.550;    4.662;    0.000;-57.21250
 878.59;  -60.010;    3.560;    0.000;-63.57000
 878.83;  -67.090;    3.334;    0.000;-70.42375
 879.08;  -64.640;    4.274;    0.000;-68.91375
 879.32;  -52.600;    3.205;    0.000;-55.80500
 879.57;  -52.690;    3.221;    0.000;-55.91125
 879.81;  -55.900;    0.571;    0.000;-56.47125
 880.05;  -59.880;    2.775;    0.000;-62.65500
 880.30;  -55.180;    1.899;    0.000;-57.07875
 880.54;  -69.060;    2.659;    0.000;-71.71875
 880.79;  -54.630;    1.919;    0.000;-56.54875
 881.03;  -66.470;    1.780;    0.000;-68.25000
 881.28;  -45.050;    4.125;    0.000;-49.17500
 881.52;  -67.950;    4.539;    0.000;-72.48875
 881.76;  -58.400;    2.729;    0.000;-61.12875
 882.01;  -67.300;    1.770;    0.000;-69.07000
 882.25;  -57.880;    5.285;    0.000;-63.16500
 882.50;  -69.780;    1.586;    0.000;-71.36625
 882.74;  -56.610;    1.505;    0.000;-58.11500
 882.98;  -66.010;    2.839;    0.000;-68.84875
 883.23;  -62.160;    1.059;    0.000;-63.21875
 883.47;  -57.550;    4.950;    0.000;-62.50000
 883.72;  -50.800;    4.606;    0.000;-55.40625
 883.96;  -64.280;    4.194;    0.000;-68.47375
 884.20;  -59.870;    1.607;    0.000;-61.47750
 884.45;  -63.290;    3.172;    0.000;-66.46250
 884.69;  -53.390;    5.045;    0.000;-58.43500
 884.94;  -44.940;    3.589;    0.000;-48.52875
 885.18;  -61.720;    2.435;    0.000;-64.15500
 885.42;  -56.920;    2.079;    0.000;-58.99875
 885.67;  -44.750;    3.995;    0.000;-48.74500
 885.91;  -64.200;    1.904;    0.000;-66.10375
 886.15;  -52.250;    1.859;    0.000;-54.10875
 886.40;  -56.770;    1.438;    0.000;-58.20750
 886.64;  -57.990;    3.661;    0.000;-61.65125
 886.88;  -67.840;    2.609;    0.000;-70.44875
 887.13;  -49.690;    3.316;    0.000;-53.00625
 887.37;  -60.410;    2.561;    0.000;-62.97125
 887.62;  -41.450;    4.399;    0.000;-45.84875
 887.86;  -55.780;    3.491;    0.000;-59.27125
 888.10;  -49.230;    5.320;    0.000;-54.55000
 888.35;  -51.670;    4.015;    0.000;-55.68500
 888.59;  -55.440;    5.435;    0.000;-60.87500
 888.83;  -56.980;    3.104;    0.000;-60.08375
 889.07;  -40.330;    3.310;    0.000;-43.64000
 889.32;  -57.420;    5.429;    0.000;-62.84875
 889.56;  -48.780;    3.888;    0.000;-52.66750
 889.80;  -55.090;    2.438;    0.000;-57.52750
 890.05;  -48.470;    2.096;    0.000;-50.56625
 890.29;  -54.550;    3.392;    0.000;-57.94250
 890.53;  -43.370;    4.108;    0.000;-47.47750
 890.78;  -56.790;    3.010;    0.000;-59.80000
 891.02;  -46.710;    3.884;    0.000;-50.59375
 891.26;  -57.960;    4.090;    0.000;-62.05000
 891.51;  -44.170;    3.727;    0.000;-47.89750
 891.75;  -59.980;    1.636;    0.000;-61.61625
 891.99;  -50.270;    4.133;    0.000;-54.40250
 892.23;  -58.670;    1.094;    0.000;-59.76375
 892.48;  -40.560;    6.174;    0.000;-46.73375
 892.72;  -61.420;    4.309;    0.000;-65.72875
 892.96;  -44.210;    6.463;    0.000;-50.67250
 893.20;  -53.750;    3.534;    0.000;-57.28375
 893.45;  -51.440;    4.674;    0.000;-56.11375
 893.69;  -59.740;    4.350;    0.000;-64.09000
 893.93;  -42.600;    3.811;    0.000;-46.41125
 894.17;  -47.650;    3.632;    0.000;-51.28250
 894.42;  -39.440;    3.563;    0.000;-43.00250
 894.66;  -52.860;    3.575;    0.000;-56.43500
 894.90;  -37.520;    4.434;    0.000;-41.95375
 895.14;  -47.160;    5.156;    0.000;-52.31625
 895.39;  -46.870;    2.453;    0.000;-49.32250
 895.63;  -43.410;    3.581;    0.000;-46.99125
 895.87;  -45.260;    2.703;    0.000;-47.96250
 896.11;  -43.200;    3.902;    0.000;-47.10250
 896.36;  -25.500;    4.361;    0.000;-29.86125
 896.60;  -54.430;    4.684;    0.000;-59.11375
 896.84;  -23.240;    7.503;    0.000;-30.74250
 897.08;  -36.790;    7.704;    0.000;-44.49375
 897.32;  -30.310;    6.090;    0.000;-36.40000
 897.57;  -39.840;    5.235;    0.000;-45.07500
 897.81;  -32.700;    6.305;    0.000;-39.00500
 898.05;  -41.150;    6.220;    0.000;-47.37000
 898.29;  -18.320;    6.834;    0.000;-25.15375
 898.53;  -29.770;    5.426;    0.000;-35.19625
 898.78;  -23.520;    7.475;    0.000;-30.99500
 899.02;  -28.450;    5.856;    0.000;-34.30625
 899.26;  -17.450;    8.570;    0.000;-26.02000
 899.50;    4.670;    7.455;    0.000;-2.78500
 899.74;  -13.280;    5.930;    0.000;-19.21000
 899.99;  -25.680;    9.002;    0.000;-34.68250
 900.23;    0.130;    9.759;    0.000;-9.62875
 900.47;  -14.700;    9.193;    0.000;-23.89250
 900.71;   -0.750;    9.520;    0.000;-10.27000
 900.95;    1.990;    9.591;    0.000;-7.60125
 901.19;   20.740;    9.936;    0.000;10.80375
 901.44;   11.950;   11.654;    0.000; 0.29625
 901.68;   36.370;   11.363;    0.000;25.00750
 901.92;   23.130;   12.930;    0.000;10.20000
 902.16;   47.900;   12.275;    0.000;35.62500
 902.40;   52.050;   15.089;    0.000;36.96125
 902.64;   79.340;   18.999;    0.000;60.34125
 902.88;   93.320;   18.346;    0.000;74.97375
 903.13;  115.090;   19.689;    0.000;95.40125

