
Integration time [ms]:  10.000
Averaging Nr. [scans]: 100
Smoothing Nr. [pixels]: 0
Data measured with spectrometer [name]: 1307078U2
Wave   ;Sample   ;Dark     ;Reference;Scope Corrected for Dark
[nm]   ;[counts] ;[counts] ;[counts] 

 351.07;   11.690;    1.990;    0.000; 9.70000
 351.37;    9.560;    2.840;    0.000; 6.72000
 351.66;   15.250;    9.940;    0.000; 5.31000
 351.95;    1.690;   -4.530;    0.000; 6.22000
 352.24;    4.930;  -15.890;    0.000;20.82000
 352.54;   -6.580;  -10.120;    0.000; 3.54000
 352.83;   13.050;    0.130;    0.000;12.92000
 353.12;   13.070;    2.830;    0.000;10.24000
 353.42;   -0.310;  -15.300;    0.000;14.99000
 353.71;    2.910;  -10.820;    0.000;13.73000
 354.00;    9.090;    4.470;    0.000; 4.62000
 354.30;    0.590;   -9.470;    0.000;10.06000
 354.59;    1.530;   -6.260;    0.000; 7.79000
 354.88;    6.470;   -7.830;    0.000;14.30000
 355.17;    0.380;  -11.980;    0.000;12.36000
 355.47;   -6.410;  -12.230;    0.000; 5.82000
 355.76;   13.270;   -0.430;    0.000;13.70000
 356.05;    9.980;   -0.120;    0.000;10.10000
 356.35;   -1.920;  -10.970;    0.000; 9.05000
 356.64;   13.740;    4.260;    0.000; 9.48000
 356.93;    6.850;   -5.560;    0.000;12.41000
 357.22;   20.900;   11.340;    0.000; 9.56000
 357.52;   -1.250;   -5.230;    0.000; 3.98000
 357.81;    2.570;    3.000;    0.000;-0.43000
 358.10;   -2.060;  -11.750;    0.000; 9.69000
 358.39;   14.940;    3.750;    0.000;11.19000
 358.69;    2.080;   -2.590;    0.000; 4.67000
 358.98;   -0.950;  -10.110;    0.000; 9.16000
 359.27;    6.530;   -5.380;    0.000;11.91000
 359.57;    1.120;    5.370;    0.000;-4.25000
 359.86;    0.500;  -11.540;    0.000;12.04000
 360.15;   17.800;    2.780;    0.000;15.02000
 360.44;   -1.570;  -14.280;    0.000;12.71000
 360.74;    8.140;   -1.840;    0.000; 9.98000
 361.03;   -2.690;   -8.680;    0.000; 5.99000
 361.32;   -0.960;  -10.790;    0.000; 9.83000
 361.61;    1.780;  -11.050;    0.000;12.83000
 361.91;    5.400;    0.980;    0.000; 4.42000
 362.20;   -0.870;  -11.360;    0.000;10.49000
 362.49;   10.920;   -6.030;    0.000;16.95000
 362.78;    6.420;   -1.640;    0.000; 8.06000
 363.08;    5.910;   -9.640;    0.000;15.55000
 363.37;   -3.300;  -12.520;    0.000; 9.22000
 363.66;    9.640;    4.960;    0.000; 4.68000
 363.95;   -9.440;  -13.210;    0.000; 3.77000
 364.24;    5.320;   -3.870;    0.000; 9.19000
 364.54;   -3.930;   -4.510;    0.000; 0.58000
 364.83;    2.010;  -11.190;    0.000;13.20000
 365.12;    1.380;  -14.530;    0.000;15.91000
 365.41;   11.950;    2.210;    0.000; 9.74000
 365.71;   -2.020;  -12.970;    0.000;10.95000
 366.00;   -7.140;  -13.330;    0.000; 6.19000
 366.29;   -5.100;  -12.070;    0.000; 6.97000
 366.58;    7.130;   -8.210;    0.000;15.34000
 366.87;    8.240;   -4.330;    0.000;12.57000
 367.17;   11.600;   10.550;    0.000; 1.05000
 367.46;    0.800;  -15.680;    0.000;16.48000
 367.75;    4.210;   -9.440;    0.000;13.65000
 368.04;   -1.890;  -14.310;    0.000;12.42000
 368.34;   -8.450;   -3.350;    0.000;-5.10000
 368.63;    4.600;   -5.870;    0.000;10.47000
 368.92;   11.200;    4.770;    0.000; 6.43000
 369.21;    5.950;   -4.180;    0.000;10.13000
 369.50;    8.820;    6.490;    0.000; 2.33000
 369.80;   -2.970;   -9.770;    0.000; 6.80000
 370.09;   19.040;   -3.650;    0.000;22.69000
 370.38;    0.620;  -11.370;    0.000;11.99000
 370.67;   -3.400;  -10.340;    0.000; 6.94000
 370.96;    0.560;  -10.990;    0.000;11.55000
 371.26;    0.090;  -10.670;    0.000;10.76000
 371.55;   -4.530;  -18.820;    0.000;14.29000
 371.84;    0.440;   -3.730;    0.000; 4.17000
 372.13;   -5.240;   -8.840;    0.000; 3.60000
 372.42;   11.840;    1.670;    0.000;10.17000
 372.71;    8.740;   -5.020;    0.000;13.76000
 373.01;    6.690;   -9.790;    0.000;16.48000
 373.30;   -6.930;  -18.500;    0.000;11.57000
 373.59;   -1.060;    1.490;    0.000;-2.55000
 373.88;    6.280;   -2.930;    0.000; 9.21000
 374.17;    8.970;   -3.020;    0.000;11.99000
 374.46;    0.580;  -12.260;    0.000;12.84000
 374.76;   15.910;    9.200;    0.000; 6.71000
 375.05;   14.380;    6.350;    0.000; 8.03000
 375.34;    1.210;   -7.790;    0.000; 9.00000
 375.63;   -1.570;  -11.110;    0.000; 9.54000
 375.92;   13.440;   -5.550;    0.000;18.99000
 376.21;   -4.000;  -15.000;    0.000;11.00000
 376.51;   -5.370;  -10.860;    0.000; 5.49000
 376.80;    3.910;   -1.600;    0.000; 5.51000
 377.09;   -0.150;  -15.780;    0.000;15.63000
 377.38;   -2.190;   -5.020;    0.000; 2.83000
 377.67;    4.470;   -1.550;    0.000; 6.02000
 377.96;   -0.360;   -8.760;    0.000; 8.40000
 378.25;    6.780;   -7.470;    0.000;14.25000
 378.55;   -1.260;  -17.830;    0.000;16.57000
 378.84;    0.990;  -10.140;    0.000;11.13000
 379.13;    5.990;   -3.610;    0.000; 9.60000
 379.42;    1.890;  -13.640;    0.000;15.53000
 379.71;    4.760;   -9.550;    0.000;14.31000
 380.00;   18.880;    4.600;    0.000;14.28000
 380.29;   -8.380;  -20.900;    0.000;12.52000
 380.59;   -3.160;  -13.550;    0.000;10.39000
 380.88;   -0.070;  -11.250;    0.000;11.18000
 381.17;   -8.890;  -14.120;    0.000; 5.23000
 381.46;    4.840;   -1.490;    0.000; 6.33000
 381.75;    9.710;   -6.720;    0.000;16.43000
 382.04;    5.350;   -6.950;    0.000;12.30000
 382.33;    0.840;   -8.710;    0.000; 9.55000
 382.62;  -10.120;  -17.870;    0.000; 7.75000
 382.91;    1.100;   -4.340;    0.000; 5.44000
 383.21;   -0.860;  -15.710;    0.000;14.85000
 383.50;   -7.510;  -13.910;    0.000; 6.40000
 383.79;    3.770;   -7.940;    0.000;11.71000
 384.08;   -0.140;  -17.080;    0.000;16.94000
 384.37;   -3.280;   -8.960;    0.000; 5.68000
 384.66;    0.570;   -5.480;    0.000; 6.05000
 384.95;   -3.660;  -18.320;    0.000;14.66000
 385.24;    0.150;  -10.570;    0.000;10.72000
 385.53;   -4.140;  -10.020;    0.000; 5.88000
 385.83;   -5.610;  -19.960;    0.000;14.35000
 386.12;   13.500;   -7.370;    0.000;20.87000
 386.41;   -8.370;  -15.640;    0.000; 7.27000
 386.70;   -3.900;  -22.760;    0.000;18.86000
 386.99;    2.700;   -5.870;    0.000; 8.57000
 387.28;   15.160;   -9.050;    0.000;24.21000
 387.57;   -3.310;   -8.090;    0.000; 4.78000
 387.86;    5.970;  -13.520;    0.000;19.49000
 388.15;  -12.300;  -11.820;    0.000;-0.48000
 388.44;   -8.230;  -13.510;    0.000; 5.28000
 388.73;   -3.980;   -9.650;    0.000; 5.67000
 389.02;    2.080;  -12.670;    0.000;14.75000
 389.31;   -4.570;  -17.780;    0.000;13.21000
 389.61;   -3.830;  -12.580;    0.000; 8.75000
 389.90;   -0.850;   -1.550;    0.000; 0.70000
 390.19;   -2.860;  -17.080;    0.000;14.22000
 390.48;    4.380;   -7.260;    0.000;11.64000
 390.77;    1.060;  -16.370;    0.000;17.43000
 391.06;    0.620;  -14.890;    0.000;15.51000
 391.35;   -6.150;  -20.660;    0.000;14.51000
 391.64;   10.950;    3.120;    0.000; 7.83000
 391.93;   -8.220;  -27.680;    0.000;19.46000
 392.22;    3.610;   -4.250;    0.000; 7.86000
 392.51;    6.900;   -0.480;    0.000; 7.38000
 392.80;    3.470;    0.130;    0.000; 3.34000
 393.09;   -3.980;  -17.160;    0.000;13.18000
 393.38;   -5.160;   -5.590;    0.000; 0.43000
 393.67;   -7.720;  -11.850;    0.000; 4.13000
 393.96;    6.010;   -3.580;    0.000; 9.59000
 394.25;   -3.420;   -5.270;    0.000; 1.85000
 394.54;   -0.040;  -10.940;    0.000;10.90000
 394.83;   -5.730;  -26.700;    0.000;20.97000
 395.13;   -4.110;  -17.240;    0.000;13.13000
 395.42;    5.090;  -12.590;    0.000;17.68000
 395.71;   -1.840;   -4.120;    0.000; 2.28000
 396.00;    5.000;   -6.090;    0.000;11.09000
 396.29;    5.670;   -2.370;    0.000; 8.04000
 396.58;   -4.220;  -14.700;    0.000;10.48000
 396.87;   -0.790;  -12.070;    0.000;11.28000
 397.16;   -9.980;  -17.540;    0.000; 7.56000
 397.45;    0.740;   -9.060;    0.000; 9.80000
 397.74;   -4.120;  -14.860;    0.000;10.74000
 398.03;    1.650;  -11.180;    0.000;12.83000
 398.32;   -7.450;  -21.950;    0.000;14.50000
 398.61;    0.900;  -13.140;    0.000;14.04000
 398.90;    4.220;  -10.560;    0.000;14.78000
 399.19;   -4.730;   -7.320;    0.000; 2.59000
 399.48;   -4.300;  -15.870;    0.000;11.57000
 399.77;   -0.540;  -12.280;    0.000;11.74000
 400.06;    6.940;  -14.080;    0.000;21.02000
 400.35;   -1.290;  -10.410;    0.000; 9.12000
 400.64;   -3.070;  -17.960;    0.000;14.89000
 400.93;    2.260;   -6.800;    0.000; 9.06000
 401.22;   -6.430;  -17.840;    0.000;11.41000
 401.51;    1.950;  -13.020;    0.000;14.97000
 401.80;   -0.140;  -16.350;    0.000;16.21000
 402.09;    0.230;  -14.710;    0.000;14.94000
 402.38;    1.080;  -16.230;    0.000;17.31000
 402.67;   -7.740;   -7.210;    0.000;-0.53000
 402.96;    0.970;   -7.580;    0.000; 8.55000
 403.25;    9.010;    5.550;    0.000; 3.46000
 403.54;    3.280;   -7.190;    0.000;10.47000
 403.83;   -1.540;  -11.910;    0.000;10.37000
 404.12;    1.580;  -13.410;    0.000;14.99000
 404.41;    7.610;   -0.210;    0.000; 7.82000
 404.70;    5.160;  -17.410;    0.000;22.57000
 404.98;    4.100;  -14.010;    0.000;18.11000
 405.27;   -4.980;  -14.400;    0.000; 9.42000
 405.56;   19.500;    4.220;    0.000;15.28000
 405.85;   -5.530;  -15.830;    0.000;10.30000
 406.14;    2.840;  -13.630;    0.000;16.47000
 406.43;   -5.520;  -10.620;    0.000; 5.10000
 406.72;    2.450;  -12.290;    0.000;14.74000
 407.01;   -3.800;  -21.100;    0.000;17.30000
 407.30;   -4.160;  -20.190;    0.000;16.03000
 407.59;   -4.430;  -19.810;    0.000;15.38000
 407.88;   -2.640;   -8.870;    0.000; 6.23000
 408.17;   -5.490;  -17.110;    0.000;11.62000
 408.46;    8.260;   -4.060;    0.000;12.32000
 408.75;    8.620;   -4.650;    0.000;13.27000
 409.04;   -6.620;  -19.590;    0.000;12.97000
 409.33;  -12.370;  -19.630;    0.000; 7.26000
 409.62;    6.350;   -2.110;    0.000; 8.46000
 409.91;   -9.670;  -26.460;    0.000;16.79000
 410.20;   -2.290;   -9.140;    0.000; 6.85000
 410.48;    4.360;   -7.780;    0.000;12.14000
 410.77;   -4.690;  -13.310;    0.000; 8.62000
 411.06;    8.530;  -11.580;    0.000;20.11000
 411.35;   18.920;    5.610;    0.000;13.31000
 411.64;    5.640;   -9.610;    0.000;15.25000
 411.93;   -2.860;  -10.440;    0.000; 7.58000
 412.22;    3.500;  -19.600;    0.000;23.10000
 412.51;   -6.000;  -16.220;    0.000;10.22000
 412.80;   -1.650;  -15.400;    0.000;13.75000
 413.09;   -5.580;  -10.870;    0.000; 5.29000
 413.38;    3.870;  -13.750;    0.000;17.62000
 413.67;   -5.440;  -21.080;    0.000;15.64000
 413.96;  -22.550;  -31.980;    0.000; 9.43000
 414.24;   -1.760;  -19.800;    0.000;18.04000
 414.53;    4.120;  -17.200;    0.000;21.32000
 414.82;    2.990;  -10.120;    0.000;13.11000
 415.11;   11.350;   -0.960;    0.000;12.31000
 415.40;   -6.070;   -8.850;    0.000; 2.78000
 415.69;   -8.660;  -15.490;    0.000; 6.83000
 415.98;   -2.990;  -23.990;    0.000;21.00000
 416.27;  -10.420;  -24.270;    0.000;13.85000
 416.56;    4.320;   -3.280;    0.000; 7.60000
 416.84;   -7.620;  -19.790;    0.000;12.17000
 417.13;   -4.980;  -14.540;    0.000; 9.56000
 417.42;    7.150;   -8.280;    0.000;15.43000
 417.71;   -5.720;   -8.120;    0.000; 2.40000
 418.00;    4.840;  -16.780;    0.000;21.62000
 418.29;   -0.010;   -4.550;    0.000; 4.54000
 418.58;    0.590;  -16.490;    0.000;17.08000
 418.87;   -0.100;  -15.660;    0.000;15.56000
 419.15;   -1.360;  -18.900;    0.000;17.54000
 419.44;    4.460;  -18.980;    0.000;23.44000
 419.73;   -0.920;  -11.850;    0.000;10.93000
 420.02;    4.630;   -7.110;    0.000;11.74000
 420.31;   -9.480;  -30.570;    0.000;21.09000
 420.60;    2.290;   -5.040;    0.000; 7.33000
 420.89;   -4.910;  -21.480;    0.000;16.57000
 421.18;    3.620;   -9.290;    0.000;12.91000
 421.46;    6.840;   -5.340;    0.000;12.18000
 421.75;   -1.650;  -15.320;    0.000;13.67000
 422.04;   -2.960;  -21.410;    0.000;18.45000
 422.33;   11.580;    2.320;    0.000; 9.26000
 422.62;   -2.140;  -18.220;    0.000;16.08000
 422.91;   -4.620;  -24.820;    0.000;20.20000
 423.19;   -9.920;  -28.920;    0.000;19.00000
 423.48;    6.840;    0.140;    0.000; 6.70000
 423.77;   -7.560;  -18.100;    0.000;10.54000
 424.06;   -8.400;   -9.180;    0.000; 0.78000
 424.35;   -8.670;  -16.940;    0.000; 8.27000
 424.64;   12.560;   -2.420;    0.000;14.98000
 424.93;  -10.500;  -26.250;    0.000;15.75000
 425.21;   -6.240;  -17.130;    0.000;10.89000
 425.50;    2.460;  -12.130;    0.000;14.59000
 425.79;   -3.410;  -10.680;    0.000; 7.27000
 426.08;    0.050;  -16.970;    0.000;17.02000
 426.37;   -5.070;   -9.660;    0.000; 4.59000
 426.65;  -17.330;  -22.930;    0.000; 5.60000
 426.94;   -5.330;  -22.840;    0.000;17.51000
 427.23;   -2.530;  -15.010;    0.000;12.48000
 427.52;   -3.800;  -11.990;    0.000; 8.19000
 427.81;   -3.120;  -29.120;    0.000;26.00000
 428.10;    9.800;   -4.670;    0.000;14.47000
 428.38;  -16.930;  -27.520;    0.000;10.59000
 428.67;    3.800;   -2.590;    0.000; 6.39000
 428.96;  -14.620;  -31.540;    0.000;16.92000
 429.25;   -3.160;  -14.100;    0.000;10.94000
 429.54;   -2.370;  -13.980;    0.000;11.61000
 429.82;    3.140;   -9.990;    0.000;13.13000
 430.11;    5.530;  -17.100;    0.000;22.63000
 430.40;   -3.080;  -12.650;    0.000; 9.57000
 430.69;    0.740;  -13.860;    0.000;14.60000
 430.98;   -1.420;  -21.990;    0.000;20.57000
 431.26;   -3.870;   -8.510;    0.000; 4.64000
 431.55;    2.330;   -6.460;    0.000; 8.79000
 431.84;   -6.850;  -21.790;    0.000;14.94000
 432.13;    0.370;  -13.900;    0.000;14.27000
 432.41;   -5.580;  -33.040;    0.000;27.46000
 432.70;    1.590;  -21.040;    0.000;22.63000
 432.99;   -2.710;  -16.870;    0.000;14.16000
 433.28;   -5.000;  -19.660;    0.000;14.66000
 433.57;    5.210;  -10.610;    0.000;15.82000
 433.85;    8.870;  -10.450;    0.000;19.32000
 434.14;  -11.460;  -24.160;    0.000;12.70000
 434.43;   14.970;    1.150;    0.000;13.82000
 434.72;   -9.940;  -20.670;    0.000;10.73000
 435.00;  -12.320;  -23.620;    0.000;11.30000
 435.29;   -4.170;  -17.490;    0.000;13.32000
 435.58;    1.470;   -8.150;    0.000; 9.62000
 435.87;   -6.640;  -25.230;    0.000;18.59000
 436.15;  -13.840;  -22.240;    0.000; 8.40000
 436.44;  -13.340;  -20.080;    0.000; 6.74000
 436.73;    5.390;  -15.600;    0.000;20.99000
 437.02;   -4.890;  -19.490;    0.000;14.60000
 437.30;    7.230;   -4.440;    0.000;11.67000
 437.59;   -8.780;  -17.640;    0.000; 8.86000
 437.88;   -2.450;   -8.810;    0.000; 6.36000
 438.17;  -18.280;  -28.660;    0.000;10.38000
 438.45;   -1.800;  -19.800;    0.000;18.00000
 438.74;   -0.060;  -16.400;    0.000;16.34000
 439.03;    5.780;  -14.480;    0.000;20.26000
 439.32;   -2.190;  -25.370;    0.000;23.18000
 439.60;   -4.980;  -22.430;    0.000;17.45000
 439.89;  -15.130;  -18.250;    0.000; 3.12000
 440.18;   -4.540;  -20.970;    0.000;16.43000
 440.46;  -13.190;  -29.720;    0.000;16.53000
 440.75;    9.060;   -6.850;    0.000;15.91000
 441.04;  -14.260;  -28.000;    0.000;13.74000
 441.33;   -9.000;  -17.230;    0.000; 8.23000
 441.61;  -17.190;  -28.680;    0.000;11.49000
 441.90;    0.810;    0.830;    0.000;-0.02000
 442.19;  -12.570;  -30.670;    0.000;18.10000
 442.47;   -1.150;  -10.780;    0.000; 9.63000
 442.76;  -14.040;  -22.750;    0.000; 8.71000
 443.05;   -0.550;  -21.380;    0.000;20.83000
 443.34;   -5.560;  -30.430;    0.000;24.87000
 443.62;   -5.110;  -17.090;    0.000;11.98000
 443.91;  -15.680;  -22.620;    0.000; 6.94000
 444.20;   22.200;    4.770;    0.000;17.43000
 444.48;   -9.380;  -24.400;    0.000;15.02000
 444.77;   16.920;    9.730;    0.000; 7.19000
 445.06;  -16.360;  -26.390;    0.000;10.03000
 445.34;  -14.400;  -12.470;    0.000;-1.93000
 445.63;   -4.600;  -25.530;    0.000;20.93000
 445.92;   22.800;    6.760;    0.000;16.04000
 446.21;   -0.680;  -22.450;    0.000;21.77000
 446.49;   -7.570;  -14.610;    0.000; 7.04000
 446.78;    9.220;  -11.330;    0.000;20.55000
 447.07;  -16.010;   -9.930;    0.000;-6.08000
 447.35;  -12.090;  -24.390;    0.000;12.30000
 447.64;   -8.110;   -9.840;    0.000; 1.73000
 447.93;   -8.280;  -24.630;    0.000;16.35000
 448.21;   -2.890;  -21.700;    0.000;18.81000
 448.50;   -7.440;  -23.560;    0.000;16.12000
 448.79;   -5.600;  -20.390;    0.000;14.79000
 449.07;   -4.980;  -12.200;    0.000; 7.22000
 449.36;  -16.000;  -25.580;    0.000; 9.58000
 449.65;  -14.520;  -25.970;    0.000;11.45000
 449.93;   -8.610;   -9.050;    0.000; 0.44000
 450.22;   -3.240;  -21.560;    0.000;18.32000
 450.51;   -8.260;  -25.890;    0.000;17.63000
 450.79;   -5.080;  -27.730;    0.000;22.65000
 451.08;  -17.500;  -16.520;    0.000;-0.98000
 451.36;   -8.390;  -14.260;    0.000; 5.87000
 451.65;    4.660;  -14.880;    0.000;19.54000
 451.94;  -15.430;  -29.220;    0.000;13.79000
 452.22;  -13.260;  -25.260;    0.000;12.00000
 452.51;   -9.790;  -19.340;    0.000; 9.55000
 452.80;   -9.830;  -25.310;    0.000;15.48000
 453.08;  -13.270;  -24.790;    0.000;11.52000
 453.37;    6.030;   -7.670;    0.000;13.70000
 453.66;  -11.830;  -23.540;    0.000;11.71000
 453.94;   -7.590;  -22.460;    0.000;14.87000
 454.23;  -13.300;  -32.840;    0.000;19.54000
 454.51;    1.320;  -13.500;    0.000;14.82000
 454.80;  -13.560;  -32.380;    0.000;18.82000
 455.09;   -6.460;  -18.230;    0.000;11.77000
 455.37;    1.960;   -9.480;    0.000;11.44000
 455.66;   -1.760;  -17.710;    0.000;15.95000
 455.95;   -4.710;   -9.720;    0.000; 5.01000
 456.23;    0.190;  -12.820;    0.000;13.01000
 456.52;   -7.470;  -24.840;    0.000;17.37000
 456.80;   -4.020;  -27.870;    0.000;23.85000
 457.09;   -1.940;  -29.660;    0.000;27.72000
 457.38;    7.920;   -4.090;    0.000;12.01000
 457.66;  -11.040;  -22.610;    0.000;11.57000
 457.95;  -10.500;  -23.380;    0.000;12.88000
 458.23;   -6.960;  -25.240;    0.000;18.28000
 458.52;   -4.710;  -13.190;    0.000; 8.48000
 458.81;  -11.580;  -23.660;    0.000;12.08000
 459.09;  -12.700;  -19.720;    0.000; 7.02000
 459.38;  -10.320;  -30.970;    0.000;20.65000
 459.66;  -15.440;  -24.540;    0.000; 9.10000
 459.95;   -5.490;  -17.730;    0.000;12.24000
 460.23;   -1.920;  -19.520;    0.000;17.60000
 460.52;   -0.580;  -20.510;    0.000;19.93000
 460.81;  -12.570;  -27.310;    0.000;14.74000
 461.09;  -15.500;  -28.620;    0.000;13.12000
 461.38;   -0.640;  -16.580;    0.000;15.94000
 461.66;  -17.470;  -30.120;    0.000;12.65000
 461.95;   -6.600;  -21.580;    0.000;14.98000
 462.23;   -5.400;  -15.290;    0.000; 9.89000
 462.52;  -10.450;  -33.350;    0.000;22.90000
 462.81;  -16.720;  -34.430;    0.000;17.71000
 463.09;   -4.610;  -22.640;    0.000;18.03000
 463.38;  -11.840;  -34.400;    0.000;22.56000
 463.66;  -14.250;  -25.720;    0.000;11.47000
 463.95;    3.950;  -23.300;    0.000;27.25000
 464.23;    4.980;  -13.770;    0.000;18.75000
 464.52;   -9.610;  -25.790;    0.000;16.18000
 464.80;  -12.510;  -22.270;    0.000; 9.76000
 465.09;   -2.150;  -15.500;    0.000;13.35000
 465.38;   -4.540;  -31.170;    0.000;26.63000
 465.66;   -6.340;  -34.180;    0.000;27.84000
 465.95;    4.060;  -13.170;    0.000;17.23000
 466.23;  -12.460;  -39.810;    0.000;27.35000
 466.52;  -20.660;  -26.140;    0.000; 5.48000
 466.80;    6.210;   -9.390;    0.000;15.60000
 467.09;  -10.880;  -22.750;    0.000;11.87000
 467.37;    1.670;  -18.880;    0.000;20.55000
 467.66;   -5.380;  -16.140;    0.000;10.76000
 467.94;   -8.170;  -24.810;    0.000;16.64000
 468.23;   -4.100;  -19.950;    0.000;15.85000
 468.51;   -5.370;  -11.990;    0.000; 6.62000
 468.80;  -17.920;  -24.660;    0.000; 6.74000
 469.08;   -1.470;  -22.650;    0.000;21.18000
 469.37;  -10.670;  -15.420;    0.000; 4.75000
 469.66;    3.500;  -25.130;    0.000;28.63000
 469.94;   -6.450;  -22.920;    0.000;16.47000
 470.23;   -2.350;  -19.480;    0.000;17.13000
 470.51;   -7.480;  -21.700;    0.000;14.22000
 470.80;   -0.030;  -14.170;    0.000;14.14000
 471.08;   -2.380;  -24.980;    0.000;22.60000
 471.37;    0.040;  -22.870;    0.000;22.91000
 471.65;    3.050;  -11.550;    0.000;14.60000
 471.94;  -16.560;  -37.450;    0.000;20.89000
 472.22;  -19.490;  -30.200;    0.000;10.71000
 472.51;   -3.670;  -28.820;    0.000;25.15000
 472.79;   -3.800;  -18.730;    0.000;14.93000
 473.08;   -0.720;  -26.180;    0.000;25.46000
 473.36;   -4.020;  -10.910;    0.000; 6.89000
 473.64;   -3.940;  -26.000;    0.000;22.06000
 473.93;    2.510;  -26.520;    0.000;29.03000
 474.21;  -14.180;  -32.440;    0.000;18.26000
 474.50;   -5.590;  -22.240;    0.000;16.65000
 474.78;    7.020;   -6.350;    0.000;13.37000
 475.07;   -7.950;  -21.020;    0.000;13.07000
 475.35;    3.500;  -19.560;    0.000;23.06000
 475.64;   -9.860;  -26.260;    0.000;16.40000
 475.92;   -6.910;  -28.450;    0.000;21.54000
 476.21;   -7.480;  -26.200;    0.000;18.72000
 476.49;   -8.190;  -22.820;    0.000;14.63000
 476.78;  -14.320;  -24.020;    0.000; 9.70000
 477.06;   -7.050;  -26.290;    0.000;19.24000
 477.35;   -2.730;  -24.950;    0.000;22.22000
 477.63;  -15.750;  -31.450;    0.000;15.70000
 477.91;  -10.860;  -21.250;    0.000;10.39000
 478.20;   -7.370;  -32.050;    0.000;24.68000
 478.48;   -5.810;  -28.860;    0.000;23.05000
 478.77;  -12.010;  -26.670;    0.000;14.66000
 479.05;   -8.440;  -26.730;    0.000;18.29000
 479.34;   -4.120;  -25.260;    0.000;21.14000
 479.62;   -1.350;  -22.540;    0.000;21.19000
 479.91;   -4.710;  -25.850;    0.000;21.14000
 480.19;    4.710;   -6.410;    0.000;11.12000
 480.47;  -14.350;  -31.670;    0.000;17.32000
 480.76;   -8.510;  -22.550;    0.000;14.04000
 481.04;  -10.060;  -28.450;    0.000;18.39000
 481.33;    1.710;   -5.690;    0.000; 7.40000
 481.61;   -9.820;  -29.120;    0.000;19.30000
 481.90;  -16.560;  -23.420;    0.000; 6.86000
 482.18;   -2.970;  -28.430;    0.000;25.46000
 482.46;   -8.160;  -20.570;    0.000;12.41000
 482.75;  -14.540;  -23.240;    0.000; 8.70000
 483.03;   -8.290;  -26.580;    0.000;18.29000
 483.32;  -15.980;  -28.070;    0.000;12.09000
 483.60;    0.740;  -23.380;    0.000;24.12000
 483.88;  -20.660;  -40.750;    0.000;20.09000
 484.17;    3.970;  -20.730;    0.000;24.70000
 484.45;   -4.750;  -27.840;    0.000;23.09000
 484.74;    0.260;  -23.640;    0.000;23.90000
 485.02;    2.140;  -24.600;    0.000;26.74000
 485.30;   -6.550;  -23.730;    0.000;17.18000
 485.59;   -4.460;  -23.620;    0.000;19.16000
 485.87;   16.360;  -12.160;    0.000;28.52000
 486.16;   -1.260;  -24.400;    0.000;23.14000
 486.44;   -2.470;  -25.040;    0.000;22.57000
 486.72;  -10.590;  -33.010;    0.000;22.42000
 487.01;   -5.940;  -30.210;    0.000;24.27000
 487.29;   -4.280;  -22.520;    0.000;18.24000
 487.58;    7.180;  -14.390;    0.000;21.57000
 487.86;    3.580;  -24.810;    0.000;28.39000
 488.14;   -4.360;  -31.580;    0.000;27.22000
 488.43;    6.050;  -32.780;    0.000;38.83000
 488.71;    1.400;  -28.340;    0.000;29.74000
 488.99;    6.350;  -24.200;    0.000;30.55000
 489.28;   12.120;  -21.500;    0.000;33.62000
 489.56;   -7.690;  -34.720;    0.000;27.03000
 489.85;    1.940;  -32.510;    0.000;34.45000
 490.13;   14.100;  -28.490;    0.000;42.59000
 490.41;   12.370;  -18.750;    0.000;31.12000
 490.70;    6.060;  -31.500;    0.000;37.56000
 490.98;   17.320;  -28.680;    0.000;46.00000
 491.26;   11.820;  -29.990;    0.000;41.81000
 491.55;   18.900;  -30.740;    0.000;49.64000
 491.83;   35.450;  -18.200;    0.000;53.65000
 492.11;   41.940;  -17.410;    0.000;59.35000
 492.40;   30.120;  -23.950;    0.000;54.07000
 492.68;   59.050;  -15.510;    0.000;74.56000
 492.96;   52.880;  -28.490;    0.000;81.37000
 493.25;   64.640;  -23.660;    0.000;88.30000
 493.53;   64.180;  -34.580;    0.000;98.76000
 493.81;   67.330;  -31.170;    0.000;98.50000
 494.10;   89.430;  -24.100;    0.000;113.53000
 494.38;   99.100;  -21.310;    0.000;120.41000
 494.66;  113.400;  -30.330;    0.000;143.73000
 494.95;  124.320;  -28.360;    0.000;152.68000
 495.23;  145.520;  -25.800;    0.000;171.32000
 495.51;  148.110;  -28.470;    0.000;176.58000
 495.80;  157.100;  -39.880;    0.000;196.98001
 496.08;  191.770;  -15.720;    0.000;207.49000
 496.36;  211.910;  -11.590;    0.000;223.50000
 496.65;  218.720;  -24.500;    0.000;243.22000
 496.93;  241.510;  -25.490;    0.000;266.99999
 497.21;  260.240;  -25.560;    0.000;285.79999
 497.50;  307.900;  -21.360;    0.000;329.25999
 497.78;  318.040;  -22.570;    0.000;340.61001
 498.06;  339.060;  -29.040;    0.000;368.10000
 498.34;  388.380;  -26.730;    0.000;415.11000
 498.63;  406.850;  -33.570;    0.000;440.42001
 498.91;  450.920;  -23.580;    0.000;474.50001
 499.19;  487.950;  -26.700;    0.000;514.65001
 499.48;  520.260;  -25.520;    0.000;545.78001
 499.76;  558.440;  -25.150;    0.000;583.59000
 500.04;  611.030;  -28.270;    0.000;639.30003
 500.32;  653.680;  -14.580;    0.000;668.25999
 500.61;  682.660;  -32.320;    0.000;714.97997
 500.89;  736.480;  -30.760;    0.000;767.23998
 501.17;  777.970;  -30.710;    0.000;808.67997
 501.46;  853.730;  -22.350;    0.000;876.07998
 501.74;  901.990;  -18.090;    0.000;920.07999
 502.02;  964.230;  -15.300;    0.000;979.52998
 502.30; 1018.890;  -18.010;    0.000;1036.90001
 502.59; 1073.710;  -38.280;    0.000;1111.98996
 502.87; 1119.320;  -29.970;    0.000;1149.28995
 503.15; 1197.450;  -35.630;    0.000;1233.07995
 503.43; 1270.450;  -22.000;    0.000;1292.44995
 503.72; 1328.410;  -30.040;    0.000;1358.45004
 504.00; 1408.230;  -33.470;    0.000;1441.69998
 504.28; 1494.790;  -28.460;    0.000;1523.25004
 504.56; 1562.520;  -28.300;    0.000;1590.82002
 504.85; 1648.000;  -19.360;    0.000;1667.36000
 505.13; 1724.280;  -29.910;    0.000;1754.19003
 505.41; 1813.820;  -30.150;    0.000;1843.96995
 505.69; 1914.090;  -24.400;    0.000;1938.48997
 505.98; 1986.810;  -24.150;    0.000;2010.96006
 506.26; 2077.320;  -22.980;    0.000;2100.30007
 506.54; 2164.070;  -35.460;    0.000;2199.53007
 506.82; 2255.420;  -24.120;    0.000;2279.53992
 507.11; 2366.140;  -31.550;    0.000;2397.68989
 507.39; 2470.290;  -41.840;    0.000;2512.13004
 507.67; 2573.860;  -27.870;    0.000;2601.73011
 507.95; 2666.790;  -32.940;    0.000;2699.73004
 508.23; 2778.090;  -35.230;    0.000;2813.32009
 508.52; 2885.060;  -24.250;    0.000;2909.31006
 508.80; 2996.970;  -31.510;    0.000;3028.47997
 509.08; 3110.890;  -19.620;    0.000;3130.50989
 509.36; 3234.050;  -23.880;    0.000;3257.93005
 509.65; 3340.700;  -23.990;    0.000;3364.68995
 509.93; 3447.400;  -30.950;    0.000;3478.34990
 510.21; 3578.320;  -19.850;    0.000;3598.17007
 510.49; 3676.130;  -30.360;    0.000;3706.48988
 510.77; 3808.370;  -34.430;    0.000;3842.80012
 511.06; 3931.760;  -34.890;    0.000;3966.65001
 511.34; 4061.110;  -27.620;    0.000;4088.73011
 511.62; 4194.190;  -28.950;    0.000;4223.13994
 511.90; 4324.110;  -21.870;    0.000;4345.97986
 512.18; 4445.740;  -24.880;    0.000;4470.62023
 512.47; 4600.940;  -18.980;    0.000;4619.91994
 512.75; 4703.850;  -38.220;    0.000;4742.07010
 513.03; 4830.650;  -23.360;    0.000;4854.00990
 513.31; 4970.270;  -33.010;    0.000;5003.28002
 513.59; 5095.000;  -27.410;    0.000;5122.41000
 513.87; 5219.510;  -27.310;    0.000;5246.81977
 514.16; 5391.010;  -25.240;    0.000;5416.24977
 514.44; 5513.410;  -24.030;    0.000;5537.44016
 514.72; 5656.400;  -25.030;    0.000;5681.42990
 515.00; 5788.130;  -17.810;    0.000;5805.93988
 515.28; 5901.000;  -19.280;    0.000;5920.28000
 515.56; 6005.900;  -27.990;    0.000;6033.88990
 515.85; 6148.770;  -24.510;    0.000;6173.28002
 516.13; 6288.140;  -20.170;    0.000;6308.31014
 516.41; 6432.850;  -39.440;    0.000;6472.29010
 516.69; 6572.400;  -26.690;    0.000;6599.08990
 516.97; 6722.610;  -20.650;    0.000;6743.25986
 517.25; 6818.650;  -27.620;    0.000;6846.26990
 517.54; 6983.860;  -14.870;    0.000;6998.72986
 517.82; 7087.990;  -25.560;    0.000;7113.55023
 518.10; 7226.030;  -12.750;    0.000;7238.77979
 518.38; 7334.340;  -29.460;    0.000;7363.79984
 518.66; 7507.270;  -13.080;    0.000;7520.35002
 518.94; 7602.390;  -33.270;    0.000;7635.66014
 519.22; 7735.570;  -12.810;    0.000;7748.37982
 519.51; 7889.380;  -31.490;    0.000;7920.86988
 519.79; 7972.310;  -30.480;    0.000;8002.79006
 520.07; 8116.930;  -26.870;    0.000;8143.80018
 520.35; 8269.360;  -26.720;    0.000;8296.08035
 520.63; 8387.780;  -23.060;    0.000;8410.84027
 520.91; 8493.490;  -26.770;    0.000;8520.26023
 521.19; 8610.270;  -38.370;    0.000;8648.63953
 521.47; 8729.430;  -34.040;    0.000;8763.46969
 521.75; 8849.030;  -18.800;    0.000;8867.83027
 522.04; 9007.380;  -20.950;    0.000;9028.32988
 522.32; 9061.230;  -28.850;    0.000;9090.08047
 522.60; 9219.570;   -2.200;    0.000;9221.77031
 522.88; 9330.700;  -27.480;    0.000;9358.18019
 523.16; 9412.010;  -30.510;    0.000;9442.51977
 523.44; 9584.430;  -14.660;    0.000;9599.08969
 523.72; 9659.300;  -14.230;    0.000;9673.52980
 524.00; 9775.210;  -19.990;    0.000;9795.19996
 524.28; 9898.660;  -13.820;    0.000;9912.48016
 524.57; 9998.730;  -19.210;    0.000;10017.94047
 524.85;10131.880;  -18.070;    0.000;10149.94988
 525.13;10212.770;   -7.880;    0.000;10220.64953
 525.41;10317.610;  -15.200;    0.000;10332.81035
 525.69;10453.120;  -22.730;    0.000;10475.85012
 525.97;10569.020;  -11.300;    0.000;10580.31953
 526.25;10633.790;  -30.900;    0.000;10664.69004
 526.53;10761.760;  -24.080;    0.000;10785.83977
 526.81;10809.880;  -32.680;    0.000;10842.55988
 527.09;10967.980;  -18.610;    0.000;10986.59047
 527.37;11035.260;  -33.990;    0.000;11069.24977
 527.65;11160.750;  -20.330;    0.000;11181.08000
 527.93;11270.030;  -30.530;    0.000;11300.56027
 528.22;11317.930;  -21.370;    0.000;11339.29969
 528.50;11446.790;  -30.810;    0.000;11477.60004
 528.78;11506.220;  -19.390;    0.000;11525.60973
 529.06;11584.810;  -18.110;    0.000;11602.91957
 529.34;11713.800;  -12.610;    0.000;11726.40980
 529.62;11804.430;  -25.580;    0.000;11830.00969
 529.90;11870.800;  -18.220;    0.000;11889.01980
 530.18;12006.450;  -16.900;    0.000;12023.35019
 530.46;12074.690;  -12.490;    0.000;12087.18043
 530.74;12165.340;  -16.000;    0.000;12181.33984
 531.02;12277.410;   -8.990;    0.000;12286.40016
 531.30;12321.960;  -17.900;    0.000;12339.85996
 531.58;12410.000;  -22.140;    0.000;12432.14000
 531.86;12495.030;  -16.120;    0.000;12511.15027
 532.14;12607.210;  -14.770;    0.000;12621.97996
 532.42;12689.890;  -15.480;    0.000;12705.36965
 532.70;12789.880;  -15.860;    0.000;12805.73988
 532.98;12854.810;  -16.040;    0.000;12870.84957
 533.26;12905.350;   -9.200;    0.000;12914.54961
 533.54;12992.490;  -13.350;    0.000;13005.84023
 533.82;13113.510;  -12.340;    0.000;13125.84977
 534.10;13160.580;  -20.000;    0.000;13180.58008
 534.38;13269.150;  -16.730;    0.000;13285.88039
 534.66;13297.310;  -19.020;    0.000;13316.32957
 534.94;13386.490;  -15.430;    0.000;13401.92023
 535.22;13453.970;  -25.480;    0.000;13479.44973
 535.50;13550.130;  -16.270;    0.000;13566.39988
 535.78;13590.440;  -35.370;    0.000;13625.81043
 536.06;13681.630;  -21.060;    0.000;13702.68988
 536.34;13757.240;  -27.730;    0.000;13784.97023
 536.62;13838.600;  -21.040;    0.000;13859.63961
 536.90;13929.410;  -23.680;    0.000;13953.09016
 537.18;13968.080;  -20.220;    0.000;13988.30008
 537.46;14003.180;  -32.690;    0.000;14035.86969
 537.74;14110.880;  -25.030;    0.000;14135.90988
 538.02;14203.210;  -23.550;    0.000;14226.75996
 538.30;14252.850;   -6.860;    0.000;14259.70961
 538.58;14315.060;  -30.360;    0.000;14345.41957
 538.86;14348.430;   -6.790;    0.000;14355.21969
 539.14;14454.630;  -24.250;    0.000;14478.87988
 539.42;14564.940;    7.090;    0.000;14557.85043
 539.70;14613.600;  -28.650;    0.000;14642.24961
 539.98;14696.680;   -6.010;    0.000;14702.68969
 540.26;14747.760;  -20.240;    0.000;14767.99977
 540.54;14779.980;  -28.370;    0.000;14808.35047
 540.82;14869.090;  -30.880;    0.000;14899.96984
 541.10;14985.570;  -11.720;    0.000;14997.29031
 541.38;15011.190;  -29.890;    0.000;15041.08043
 541.66;15058.300;  -19.600;    0.000;15077.89981
 541.94;15169.840;  -20.400;    0.000;15190.23984
 542.22;15166.320;  -22.450;    0.000;15188.77031
 542.50;15249.520;  -25.920;    0.000;15275.43953
 542.78;15313.180;  -22.300;    0.000;15335.47969
 543.06;15382.050;  -24.780;    0.000;15406.82981
 543.34;15458.940;  -13.100;    0.000;15472.04043
 543.62;15476.730;  -22.330;    0.000;15499.06047
 543.90;15547.410;  -21.000;    0.000;15568.41016
 544.17;15594.300;  -28.870;    0.000;15623.16981
 544.45;15637.030;  -25.940;    0.000;15662.97027
 544.73;15729.630;  -19.130;    0.000;15748.75988
 545.01;15825.080;  -25.070;    0.000;15850.15008
 545.29;15864.610;  -23.350;    0.000;15887.96035
 545.57;15889.120;  -13.760;    0.000;15902.88012
 545.85;15919.860;  -16.940;    0.000;15936.80035
 546.13;15962.810;  -27.870;    0.000;15990.67957
 546.41;16041.090;  -16.310;    0.000;16057.39984
 546.69;16028.860;  -32.210;    0.000;16061.07035
 546.97;16151.020;  -24.550;    0.000;16175.56953
 547.25;16148.790;  -27.210;    0.000;16176.00004
 547.52;16193.940;  -26.500;    0.000;16220.44043
 547.80;16266.370;  -20.870;    0.000;16287.24012
 548.08;16269.240;  -23.140;    0.000;16292.38023
 548.36;16369.930;  -18.030;    0.000;16387.95969
 548.64;16398.949;  -17.680;    0.000;16416.62922
 548.92;16420.301;  -24.050;    0.000;16444.35078
 549.20;16516.020;  -19.710;    0.000;16535.72953
 549.48;16528.301;  -15.170;    0.000;16543.47078
 549.76;16588.260;  -15.590;    0.000;16603.84977
 550.04;16605.580;  -23.170;    0.000;16628.75008
 550.31;16671.189;  -27.150;    0.000;16698.33945
 550.59;16671.961;  -12.080;    0.000;16684.04094
 550.87;16779.711;  -29.450;    0.000;16809.16094
 551.15;16758.359;  -18.290;    0.000;16776.64938
 551.43;16851.090;  -24.870;    0.000;16875.95984
 551.71;16817.570;  -24.400;    0.000;16841.97031
 551.99;16788.070;  -24.990;    0.000;16813.06031
 552.27;16870.400;  -24.030;    0.000;16894.43039
 552.54;16886.461;  -22.450;    0.000;16908.91094
 552.82;16963.641;  -10.980;    0.000;16974.62062
 553.10;16980.939;  -23.500;    0.000;17004.43945
 553.38;17028.801;  -13.410;    0.000;17042.21078
 553.66;17024.930;  -23.070;    0.000;17047.99969
 553.94;17113.949;  -13.110;    0.000;17127.05922
 554.22;17091.600;  -13.670;    0.000;17105.26961
 554.49;17100.350;  -16.040;    0.000;17116.38961
 554.77;17193.590;  -16.190;    0.000;17209.77984
 555.05;17128.439;  -15.740;    0.000;17144.17945
 555.33;17135.561;  -32.440;    0.000;17168.00055
 555.61;17224.650;  -25.560;    0.000;17250.21039
 555.89;17230.770;  -33.180;    0.000;17263.94953
 556.16;17282.279;  -25.590;    0.000;17307.86930
 556.44;17217.020;  -32.100;    0.000;17249.11953
 556.72;17316.500;  -29.140;    0.000;17345.64000
 557.00;17277.779;  -31.520;    0.000;17309.29930
 557.28;17319.010;  -17.510;    0.000;17336.51977
 557.56;17353.961;  -21.250;    0.000;17375.21094
 557.83;17344.619;  -25.100;    0.000;17369.71914
 558.11;17383.180;  -15.320;    0.000;17398.49969
 558.39;17378.811;  -15.190;    0.000;17394.00055
 558.67;17365.920;  -19.950;    0.000;17385.86992
 558.95;17408.170;  -29.320;    0.000;17437.48992
 559.23;17417.070;  -27.530;    0.000;17444.60031
 559.50;17420.381;  -21.290;    0.000;17441.67086
 559.78;17418.400;  -17.790;    0.000;17436.19039
 560.06;17391.211;  -22.880;    0.000;17414.09094
 560.34;17447.730;  -13.260;    0.000;17460.99047
 560.62;17399.859;  -24.200;    0.000;17424.05938
 560.89;17467.471;  -14.400;    0.000;17481.87070
 561.17;17496.859;  -13.580;    0.000;17510.43937
 561.45;17443.840;  -31.100;    0.000;17474.93984
 561.73;17478.420;  -25.680;    0.000;17504.09992
 562.00;17440.820;  -26.560;    0.000;17467.38031
 562.28;17439.400;  -20.620;    0.000;17460.02039
 562.56;17428.820;  -26.640;    0.000;17455.46031
 562.84;17446.891;  -11.530;    0.000;17458.42062
 563.12;17436.570;  -33.150;    0.000;17469.72031
 563.39;17386.971;  -30.760;    0.000;17417.73070
 563.67;17462.170;  -22.790;    0.000;17484.95992
 563.95;17439.480;  -23.690;    0.000;17463.17047
 564.23;17428.061;  -23.130;    0.000;17451.19055
 564.50;17387.471;  -16.770;    0.000;17404.24070
 564.78;17395.010;  -10.770;    0.000;17405.77977
 565.06;17437.391;  -24.010;    0.000;17461.40063
 565.34;17380.971;  -21.080;    0.000;17402.05070
 565.61;17414.320;  -15.850;    0.000;17430.17031
 565.89;17402.619;  -10.570;    0.000;17413.18914
 566.17;17364.580;  -33.940;    0.000;17398.52008
 566.45;17376.680;  -18.770;    0.000;17395.44969
 566.73;17284.381;  -28.520;    0.000;17312.90086
 567.00;17340.650;  -31.220;    0.000;17371.87039
 567.28;17292.449;  -26.710;    0.000;17319.15922
 567.56;17325.609;  -20.940;    0.000;17346.54938
 567.83;17306.430;  -22.790;    0.000;17329.21969
 568.11;17227.270;  -26.120;    0.000;17253.38953
 568.39;17196.400;  -30.490;    0.000;17226.89039
 568.67;17216.850;  -27.500;    0.000;17244.34961
 568.94;17182.250;  -23.260;    0.000;17205.51000
 569.22;17139.221;  -22.350;    0.000;17161.57070
 569.50;17080.949;  -31.970;    0.000;17112.91922
 569.78;17126.189;  -23.620;    0.000;17149.80945
 570.05;17090.570;  -30.470;    0.000;17121.04031
 570.33;17048.641;  -24.910;    0.000;17073.55062
 570.61;17039.100;  -15.430;    0.000;17054.52961
 570.88;16998.100;  -38.820;    0.000;17036.91961
 571.16;16959.090;  -23.130;    0.000;16982.21984
 571.44;16926.289;  -35.510;    0.000;16961.79906
 571.72;16940.490;  -20.230;    0.000;16960.72023
 571.99;16834.740;  -30.400;    0.000;16865.14023
 572.27;16838.689;  -20.910;    0.000;16859.59945
 572.55;16807.789;  -30.340;    0.000;16838.12906
 572.82;16790.500;  -20.980;    0.000;16811.48000
 573.10;16748.039;  -22.520;    0.000;16770.55906
 573.38;16691.010;  -33.590;    0.000;16724.59977
 573.65;16679.980;  -11.540;    0.000;16691.52047
 573.93;16646.801;  -23.340;    0.000;16670.14078
 574.21;16560.971;  -22.650;    0.000;16583.62070
 574.48;16514.170;  -27.240;    0.000;16541.40992
 574.76;16434.150;  -31.270;    0.000;16465.42039
 575.04;16490.301;  -15.830;    0.000;16506.13078
 575.32;16426.971;  -21.200;    0.000;16448.17070
 575.59;16346.720;  -16.300;    0.000;16363.01973
 575.87;16324.930;  -40.340;    0.000;16365.26969
 576.15;16298.690;  -10.810;    0.000;16309.50043
 576.42;16254.020;  -28.300;    0.000;16282.31953
 576.70;16173.570;  -33.860;    0.000;16207.43031
 576.98;16129.720;  -32.330;    0.000;16162.04973
 577.25;16083.590;  -28.350;    0.000;16111.93984
 577.53;16044.500;  -31.160;    0.000;16075.66000
 577.80;15979.130;  -29.180;    0.000;16008.30988
 578.08;15960.080;  -29.770;    0.000;15989.85008
 578.36;15919.740;  -21.590;    0.000;15941.33023
 578.63;15854.850;  -37.290;    0.000;15892.13961
 578.91;15787.880;  -26.150;    0.000;15814.02988
 579.19;15727.840;  -31.750;    0.000;15759.58984
 579.46;15690.620;  -24.900;    0.000;15715.52012
 579.74;15633.730;  -22.420;    0.000;15656.15047
 580.02;15562.700;  -29.350;    0.000;15592.05020
 580.29;15560.810;  -37.840;    0.000;15598.64957
 580.57;15473.810;  -30.530;    0.000;15504.33957
 580.84;15452.460;  -30.850;    0.000;15483.30996
 581.12;15392.070;  -27.750;    0.000;15419.82031
 581.40;15329.330;  -34.120;    0.000;15363.45008
 581.67;15239.610;  -30.300;    0.000;15269.91035
 581.95;15229.660;  -36.850;    0.000;15266.51015
 582.23;15178.240;  -28.420;    0.000;15206.66023
 582.50;15029.290;  -40.300;    0.000;15069.59004
 582.78;14949.380;  -28.770;    0.000;14978.14988
 583.05;14866.100;  -25.840;    0.000;14891.93961
 583.33;14882.970;  -21.520;    0.000;14904.48973
 583.61;14797.420;  -21.280;    0.000;14818.69992
 583.88;14748.650;  -18.760;    0.000;14767.41039
 584.16;14686.100;  -32.140;    0.000;14718.23961
 584.43;14631.820;  -29.000;    0.000;14660.82031
 584.71;14507.990;  -24.070;    0.000;14532.06023
 584.99;14496.700;  -21.770;    0.000;14518.47020
 585.26;14427.010;  -32.080;    0.000;14459.08977
 585.54;14341.590;  -36.460;    0.000;14378.04984
 585.81;14328.720;  -34.050;    0.000;14362.76973
 586.09;14260.640;  -15.310;    0.000;14275.94965
 586.37;14132.480;  -42.360;    0.000;14174.84047
 586.64;14111.400;  -24.820;    0.000;14136.22039
 586.92;14029.470;  -30.380;    0.000;14059.84973
 587.19;13973.200;  -24.020;    0.000;13997.22020
 587.47;13893.630;  -38.630;    0.000;13932.25988
 587.74;13793.750;  -24.440;    0.000;13818.19000
 588.02;13762.060;  -22.400;    0.000;13784.45957
 588.30;13680.250;  -31.970;    0.000;13712.22000
 588.57;13659.190;  -29.980;    0.000;13689.17043
 588.85;13597.500;  -32.590;    0.000;13630.09000
 589.12;13502.290;  -35.900;    0.000;13538.19004
 589.40;13484.940;  -22.810;    0.000;13507.75043
 589.67;13379.710;  -27.690;    0.000;13407.39996
 589.95;13344.390;  -11.930;    0.000;13356.31965
 590.22;13261.740;  -29.920;    0.000;13291.66023
 590.50;13220.920;  -19.810;    0.000;13240.72992
 590.77;13174.870;  -32.070;    0.000;13206.94012
 591.05;13051.960;  -28.680;    0.000;13080.63996
 591.33;12985.220;  -29.200;    0.000;13014.41973
 591.60;12910.320;  -34.000;    0.000;12944.32031
 591.88;12842.290;  -25.320;    0.000;12867.61004
 592.15;12777.330;  -30.460;    0.000;12807.79008
 592.43;12673.540;  -39.680;    0.000;12713.22004
 592.70;12658.320;  -23.960;    0.000;12682.28031
 592.98;12526.680;  -39.190;    0.000;12565.86969
 593.25;12446.720;  -10.770;    0.000;12457.48973
 593.53;12427.580;  -29.230;    0.000;12456.81008
 593.80;12322.300;  -30.750;    0.000;12353.04980
 594.08;12255.810;  -37.180;    0.000;12292.98957
 594.35;12225.860;  -31.070;    0.000;12256.93035
 594.63;12132.030;  -21.940;    0.000;12153.97027
 594.90;12016.640;  -34.240;    0.000;12050.87965
 595.18;11942.430;  -26.450;    0.000;11968.87969
 595.45;11884.290;  -30.900;    0.000;11915.19004
 595.73;11816.900;  -35.600;    0.000;11852.50039
 596.00;11739.700;  -29.900;    0.000;11769.60019
 596.28;11657.490;  -41.410;    0.000;11698.90023
 596.55;11598.590;  -36.570;    0.000;11635.15984
 596.83;11514.110;  -34.320;    0.000;11548.43035
 597.10;11477.460;  -17.350;    0.000;11494.80996
 597.38;11380.230;  -25.390;    0.000;11405.62047
 597.65;11298.830;  -23.040;    0.000;11321.87008
 597.93;11210.100;  -47.520;    0.000;11257.61961
 598.20;11173.310;  -29.950;    0.000;11203.25957
 598.48;11085.290;  -39.720;    0.000;11125.01004
 598.75;11009.530;  -38.990;    0.000;11048.52028
 599.03;10970.600;  -25.450;    0.000;10996.04961
 599.30;10835.180;  -33.700;    0.000;10868.87969
 599.58;10792.510;  -24.090;    0.000;10816.59977
 599.85;10758.340;  -20.370;    0.000;10778.70984
 600.12;10670.400;  -29.390;    0.000;10699.79039
 600.40;10567.860;  -39.550;    0.000;10607.41035
 600.67;10477.720;  -39.490;    0.000;10517.20973
 600.95;10425.610;  -24.510;    0.000;10450.12035
 601.22;10381.940;  -31.680;    0.000;10413.62043
 601.50;10325.080;  -26.410;    0.000;10351.49008
 601.77;10242.430;  -33.040;    0.000;10275.46969
 602.05;10144.790;  -12.840;    0.000;10157.63004
 602.32;10122.230;  -26.150;    0.000;10148.38047
 602.59;10025.350;  -37.960;    0.000;10063.30961
 602.87; 9941.300;  -36.580;    0.000;9977.87981
 603.14; 9868.570;  -44.730;    0.000;9913.30031
 603.42; 9804.890;  -26.580;    0.000;9831.46965
 603.69; 9727.320;  -37.870;    0.000;9765.19031
 603.97; 9688.710;  -43.790;    0.000;9732.49996
 604.24; 9619.800;  -40.170;    0.000;9659.96980
 604.51; 9583.670;  -22.580;    0.000;9606.24992
 604.79; 9491.710;  -25.880;    0.000;9517.58996
 605.06; 9421.080;  -33.420;    0.000;9454.50008
 605.34; 9402.890;  -29.770;    0.000;9432.65965
 605.61; 9333.550;  -40.440;    0.000;9373.98980
 605.89; 9255.360;  -27.190;    0.000;9282.55035
 606.16; 9213.670;  -39.370;    0.000;9253.03992
 606.43; 9161.110;  -15.550;    0.000;9176.66035
 606.71; 9084.810;  -48.100;    0.000;9132.90957
 606.98; 9025.010;  -35.410;    0.000;9060.41977
 607.26; 8967.770;  -35.790;    0.000;9003.55953
 607.53; 8915.840;  -36.110;    0.000;8951.94984
 607.80; 8844.330;  -44.650;    0.000;8888.98008
 608.08; 8778.390;  -39.850;    0.000;8818.23965
 608.35; 8721.840;  -41.460;    0.000;8763.29984
 608.62; 8714.640;  -33.970;    0.000;8748.60965
 608.90; 8638.540;  -39.640;    0.000;8678.18004
 609.17; 8633.260;  -32.290;    0.000;8665.54977
 609.45; 8547.010;  -43.540;    0.000;8590.54977
 609.72; 8497.680;  -25.940;    0.000;8523.61969
 609.99; 8423.150;  -54.580;    0.000;8477.73039
 610.27; 8390.970;  -33.980;    0.000;8424.94973
 610.54; 8293.180;  -53.950;    0.000;8347.12969
 610.81; 8287.260;  -40.300;    0.000;8327.55976
 611.09; 8263.290;  -31.150;    0.000;8294.44004
 611.36; 8213.680;  -35.360;    0.000;8249.03969
 611.64; 8108.370;  -44.100;    0.000;8152.47012
 611.91; 8062.020;  -32.700;    0.000;8094.72002
 612.18; 8067.630;  -34.140;    0.000;8101.76988
 612.46; 7963.640;  -36.560;    0.000;8000.20014
 612.73; 7921.120;  -39.030;    0.000;7960.15012
 613.00; 7881.600;  -38.110;    0.000;7919.71010
 613.28; 7818.570;  -32.120;    0.000;7850.68982
 613.55; 7743.910;  -45.300;    0.000;7789.21016
 613.82; 7675.010;  -51.080;    0.000;7726.08977
 614.10; 7613.640;  -41.190;    0.000;7654.83014
 614.37; 7568.110;  -41.870;    0.000;7609.97986
 614.64; 7458.570;  -36.410;    0.000;7494.97982
 614.92; 7387.640;  -39.630;    0.000;7427.27014
 615.19; 7331.620;  -29.580;    0.000;7361.20012
 615.46; 7237.640;  -41.030;    0.000;7278.67014
 615.74; 7104.080;  -36.750;    0.000;7140.83008
 616.01; 7007.040;  -53.870;    0.000;7060.91004
 616.28; 6858.600;  -41.570;    0.000;6900.17010
 616.56; 6785.190;  -47.850;    0.000;6833.03994
 616.83; 6724.950;  -23.950;    0.000;6748.90020
 617.10; 6639.870;  -34.050;    0.000;6673.92012
 617.37; 6618.080;  -25.940;    0.000;6644.02008
 617.65; 6686.780;  -41.240;    0.000;6728.01979
 617.92; 6729.730;  -29.900;    0.000;6759.62998
 618.19; 6698.760;  -46.220;    0.000;6744.97977
 618.47; 6645.110;  -38.070;    0.000;6683.17986
 618.74; 6617.910;  -50.090;    0.000;6668.00016
 619.01; 6588.570;  -38.340;    0.000;6626.90982
 619.28; 6531.140;  -43.640;    0.000;6574.78014
 619.56; 6537.050;  -38.060;    0.000;6575.10981
 619.83; 6489.600;  -39.710;    0.000;6529.31010
 620.10; 6464.790;  -31.220;    0.000;6496.01004
 620.38; 6406.250;  -52.170;    0.000;6458.42000
 620.65; 6403.360;  -46.120;    0.000;6449.47986
 620.92; 6363.830;  -42.600;    0.000;6406.43008
 621.19; 6349.890;  -43.000;    0.000;6392.89014
 621.47; 6379.720;  -40.820;    0.000;6420.54021
 621.74; 6404.460;  -41.630;    0.000;6446.08996
 622.01; 6413.490;  -43.850;    0.000;6457.34023
 622.28; 6396.980;  -32.550;    0.000;6429.52998
 622.56; 6362.740;  -42.800;    0.000;6405.54023
 622.83; 6333.530;  -37.130;    0.000;6370.65979
 623.10; 6309.120;  -48.260;    0.000;6357.38012
 623.38; 6281.890;  -35.400;    0.000;6317.29014
 623.65; 6279.600;  -17.330;    0.000;6296.93010
 623.92; 6247.580;  -32.240;    0.000;6279.82008
 624.19; 6203.670;  -53.540;    0.000;6257.20992
 624.46; 6216.230;  -30.480;    0.000;6246.70998
 624.74; 6195.090;  -39.050;    0.000;6234.13984
 625.01; 6145.250;  -26.210;    0.000;6171.46000
 625.28; 6135.780;  -44.030;    0.000;6179.80978
 625.55; 6102.680;  -44.700;    0.000;6147.38018
 625.83; 6093.380;  -43.650;    0.000;6137.02988
 626.10; 6078.890;  -35.370;    0.000;6114.26014
 626.37; 6027.950;  -51.170;    0.000;6079.12019
 626.64; 6003.560;  -46.220;    0.000;6049.78006
 626.92; 5986.870;  -40.280;    0.000;6027.15012
 627.19; 5937.340;  -37.500;    0.000;5974.83984
 627.46; 5921.390;  -39.980;    0.000;5961.37014
 627.73; 5889.890;  -33.180;    0.000;5923.07014
 628.00; 5867.170;  -39.210;    0.000;5906.37992
 628.28; 5856.900;  -35.220;    0.000;5892.11990
 628.55; 5799.810;  -46.210;    0.000;5846.02006
 628.82; 5792.920;  -27.350;    0.000;5820.26992
 629.09; 5782.030;  -47.190;    0.000;5829.21978
 629.36; 5790.550;  -42.190;    0.000;5832.73980
 629.64; 5738.120;  -41.460;    0.000;5779.58012
 629.91; 5709.700;  -32.990;    0.000;5742.69020
 630.18; 5686.810;  -50.880;    0.000;5737.69006
 630.45; 5683.090;  -51.820;    0.000;5734.90984
 630.72; 5640.420;  -62.210;    0.000;5702.62992
 631.00; 5618.240;  -42.860;    0.000;5661.10023
 631.27; 5600.580;  -42.790;    0.000;5643.37008
 631.54; 5538.270;  -43.780;    0.000;5582.05002
 631.81; 5545.540;  -35.020;    0.000;5580.56004
 632.08; 5541.850;  -40.130;    0.000;5581.98010
 632.35; 5505.460;  -50.910;    0.000;5556.36996
 632.63; 5488.120;  -43.240;    0.000;5531.36012
 632.90; 5465.330;  -44.370;    0.000;5509.70008
 633.17; 5458.030;  -40.840;    0.000;5498.86979
 633.44; 5427.260;  -52.000;    0.000;5479.25977
 633.71; 5398.040;  -32.170;    0.000;5430.21004
 633.98; 5410.860;  -30.510;    0.000;5441.36986
 634.25; 5407.810;  -34.090;    0.000;5441.90006
 634.53; 5373.530;  -34.830;    0.000;5408.35979
 634.80; 5369.650;  -39.750;    0.000;5409.39990
 635.07; 5346.340;  -49.230;    0.000;5395.56984
 635.34; 5366.600;  -23.990;    0.000;5390.59010
 635.61; 5357.290;  -50.510;    0.000;5407.80004
 635.88; 5368.310;  -44.250;    0.000;5412.56006
 636.15; 5320.370;  -43.150;    0.000;5363.52012
 636.43; 5361.750;  -38.010;    0.000;5399.76000
 636.70; 5352.390;  -43.060;    0.000;5395.45014
 636.97; 5354.310;  -38.410;    0.000;5392.72006
 637.24; 5297.860;  -50.350;    0.000;5348.20986
 637.51; 5221.450;  -31.980;    0.000;5253.43019
 637.78; 5082.870;  -46.720;    0.000;5129.59012
 638.05; 5089.910;  -39.310;    0.000;5129.22016
 638.32; 5107.040;  -31.150;    0.000;5138.19004
 638.60; 5046.900;  -44.910;    0.000;5091.80990
 638.87; 5001.510;  -50.240;    0.000;5051.74977
 639.14; 4975.430;  -43.540;    0.000;5018.97018
 639.41; 4979.070;  -32.120;    0.000;5011.18982
 639.68; 4921.470;  -45.810;    0.000;4967.28022
 639.95; 4871.140;  -51.890;    0.000;4923.03014
 640.22; 4849.470;  -48.220;    0.000;4897.69022
 640.49; 4831.440;  -45.740;    0.000;4877.17994
 640.76; 4781.610;  -35.730;    0.000;4817.33986
 641.03; 4723.700;  -50.560;    0.000;4774.26020
 641.30; 4695.230;  -42.310;    0.000;4737.53998
 641.58; 4627.530;  -49.140;    0.000;4676.66978
 641.85; 4562.930;  -43.210;    0.000;4606.14017
 642.12; 4562.720;  -51.320;    0.000;4614.04021
 642.39; 4542.140;  -48.990;    0.000;4591.13014
 642.66; 4470.370;  -45.590;    0.000;4515.96012
 642.93; 4459.180;  -29.310;    0.000;4488.49018
 643.20; 4419.320;  -45.820;    0.000;4465.13982
 643.47; 4412.140;  -42.670;    0.000;4454.81013
 643.74; 4340.130;  -51.730;    0.000;4391.85988
 644.01; 4338.130;  -42.950;    0.000;4381.07988
 644.28; 4301.440;  -60.830;    0.000;4362.26994
 644.55; 4264.950;  -47.560;    0.000;4312.51020
 644.82; 4248.550;  -32.270;    0.000;4280.81981
 645.09; 4230.790;  -35.500;    0.000;4266.29004
 645.36; 4205.380;  -50.290;    0.000;4255.66988
 645.63; 4184.360;  -43.920;    0.000;4228.27986
 645.91; 4152.980;  -46.930;    0.000;4199.90998
 646.18; 4130.860;  -38.010;    0.000;4168.86986
 646.45; 4100.200;  -41.290;    0.000;4141.49020
 646.72; 4067.130;  -48.770;    0.000;4115.89988
 646.99; 4062.300;  -41.040;    0.000;4103.34005
 647.26; 4040.890;  -41.240;    0.000;4082.12989
 647.53; 3979.590;  -54.690;    0.000;4034.28009
 647.80; 3989.830;  -27.780;    0.000;4017.61008
 648.07; 3945.020;  -58.730;    0.000;4003.75002
 648.34; 3967.050;  -34.280;    0.000;4001.33005
 648.61; 3897.190;  -47.500;    0.000;3944.68994
 648.88; 3861.620;  -44.020;    0.000;3905.64012
 649.15; 3879.470;  -52.630;    0.000;3932.09997
 649.42; 3849.190;  -48.650;    0.000;3897.83994
 649.69; 3808.440;  -46.880;    0.000;3855.31994
 649.96; 3788.250;  -41.340;    0.000;3829.59000
 650.23; 3784.570;  -59.960;    0.000;3844.53007
 650.50; 3746.440;  -53.140;    0.000;3799.57994
 650.77; 3713.390;  -61.220;    0.000;3774.60989
 651.04; 3690.770;  -42.700;    0.000;3733.47002
 651.31; 3676.800;  -58.050;    0.000;3734.85005
 651.58; 3658.490;  -46.320;    0.000;3704.80999
 651.85; 3616.760;  -57.610;    0.000;3674.37001
 652.12; 3631.600;  -30.010;    0.000;3661.61010
 652.39; 3582.790;  -47.470;    0.000;3630.26004
 652.66; 3568.270;  -50.490;    0.000;3618.76002
 652.93; 3532.950;  -50.350;    0.000;3583.29995
 653.20; 3529.650;  -40.500;    0.000;3570.14990
 653.47; 3513.610;  -56.060;    0.000;3569.67011
 653.74; 3493.170;  -42.910;    0.000;3536.07992
 654.01; 3472.760;  -45.890;    0.000;3518.65001
 654.28; 3449.960;  -39.800;    0.000;3489.75996
 654.55; 3393.150;  -56.340;    0.000;3449.48990
 654.81; 3390.000;  -45.420;    0.000;3435.42000
 655.08; 3374.970;  -44.350;    0.000;3419.31997
 655.35; 3346.380;  -44.320;    0.000;3390.69988
 655.62; 3318.070;  -45.660;    0.000;3363.73007
 655.89; 3301.920;  -50.060;    0.000;3351.97992
 656.16; 3277.650;  -51.110;    0.000;3328.75990
 656.43; 3272.120;  -52.210;    0.000;3324.33012
 656.70; 3230.210;  -57.420;    0.000;3287.62996
 656.97; 3235.840;  -49.610;    0.000;3285.45009
 657.24; 3178.670;  -51.930;    0.000;3230.59992
 657.51; 3162.240;  -43.090;    0.000;3205.32999
 657.78; 3146.440;  -43.490;    0.000;3189.92994
 658.05; 3137.020;  -42.030;    0.000;3179.05002
 658.32; 3111.970;  -53.310;    0.000;3165.27997
 658.59; 3103.710;  -44.810;    0.000;3148.51996
 658.86; 3048.600;  -50.680;    0.000;3099.28010
 659.12; 3065.240;  -47.800;    0.000;3113.03999
 659.39; 3018.070;  -54.290;    0.000;3072.36007
 659.66; 3026.260;  -36.090;    0.000;3062.35001
 659.93; 2979.400;  -42.230;    0.000;3021.62990
 660.20; 2971.950;  -37.790;    0.000;3009.73995
 660.47; 2937.390;  -53.470;    0.000;2990.85989
 660.74; 2922.740;  -52.820;    0.000;2975.55999
 661.01; 2923.480;  -43.790;    0.000;2967.26998
 661.28; 2901.710;  -40.930;    0.000;2942.63996
 661.55; 2911.520;  -13.100;    0.000;2924.62002
 661.81; 2836.530;  -55.540;    0.000;2892.07003
 662.08; 2822.180;  -46.830;    0.000;2869.00993
 662.35; 2809.170;  -50.920;    0.000;2860.08992
 662.62; 2798.640;  -52.300;    0.000;2850.93989
 662.89; 2777.250;  -51.970;    0.000;2829.22000
 663.16; 2746.420;  -49.180;    0.000;2795.59992
 663.43; 2734.550;  -46.940;    0.000;2781.49005
 663.70; 2698.690;  -59.600;    0.000;2758.28994
 663.96; 2692.230;  -43.330;    0.000;2735.55998
 664.23; 2662.860;  -64.220;    0.000;2727.08011
 664.50; 2668.690;  -48.710;    0.000;2717.39994
 664.77; 2631.870;  -51.030;    0.000;2682.90012
 665.04; 2612.930;  -48.780;    0.000;2661.70993
 665.31; 2601.690;  -54.760;    0.000;2656.44994
 665.58; 2577.040;  -49.660;    0.000;2626.70004
 665.84; 2562.850;  -55.670;    0.000;2618.52010
 666.11; 2541.780;  -49.530;    0.000;2591.31003
 666.38; 2524.120;  -56.960;    0.000;2581.08012
 666.65; 2512.160;  -48.440;    0.000;2560.59991
 666.92; 2477.980;  -61.380;    0.000;2539.35998
 667.19; 2471.440;  -50.390;    0.000;2521.82994
 667.46; 2458.270;  -49.900;    0.000;2508.17002
 667.72; 2439.030;  -43.000;    0.000;2482.03003
 667.99; 2419.020;  -50.920;    0.000;2469.94002
 668.26; 2403.450;  -29.430;    0.000;2432.87995
 668.53; 2369.860;  -61.920;    0.000;2431.78011
 668.80; 2397.690;  -33.970;    0.000;2431.65994
 669.06; 2336.260;  -51.800;    0.000;2388.06001
 669.33; 2328.630;  -43.590;    0.000;2372.21988
 669.60; 2312.390;  -58.870;    0.000;2371.25989
 669.87; 2306.250;  -46.440;    0.000;2352.69000
 670.14; 2279.620;  -50.360;    0.000;2329.98012
 670.41; 2273.300;  -41.980;    0.000;2315.28005
 670.67; 2244.190;  -42.520;    0.000;2286.70994
 670.94; 2225.410;  -54.670;    0.000;2280.07991
 671.21; 2213.590;  -45.490;    0.000;2259.08009
 671.48; 2204.370;  -49.520;    0.000;2253.89012
 671.75; 2158.430;  -59.790;    0.000;2218.21993
 672.01; 2172.470;  -44.080;    0.000;2216.54997
 672.28; 2139.090;  -52.640;    0.000;2191.73009
 672.55; 2140.130;  -37.120;    0.000;2177.24988
 672.82; 2125.190;  -54.630;    0.000;2179.81994
 673.08; 2092.120;  -49.040;    0.000;2141.16012
 673.35; 2079.060;  -55.440;    0.000;2134.50006
 673.62; 2045.010;  -46.870;    0.000;2091.88001
 673.89; 2024.410;  -55.170;    0.000;2079.58003
 674.16; 2014.360;  -57.760;    0.000;2072.11998
 674.42; 2015.620;  -47.940;    0.000;2063.55999
 674.69; 2011.370;  -39.700;    0.000;2051.07000
 674.96; 1970.460;  -50.250;    0.000;2020.70996
 675.23; 1976.370;  -61.580;    0.000;2037.95000
 675.49; 1932.810;  -58.140;    0.000;1990.95006
 675.76; 1932.810;  -47.890;    0.000;1980.70006
 676.03; 1923.460;  -42.090;    0.000;1965.54996
 676.30; 1909.210;  -51.680;    0.000;1960.88996
 676.56; 1875.250;  -56.460;    0.000;1931.71000
 676.83; 1878.630;  -43.720;    0.000;1922.35001
 677.10; 1853.620;  -53.570;    0.000;1907.18999
 677.37; 1855.540;  -48.110;    0.000;1903.65004
 677.63; 1822.050;  -53.920;    0.000;1875.97005
 677.90; 1832.120;  -50.800;    0.000;1882.91999
 678.17; 1797.310;  -51.820;    0.000;1849.13006
 678.44; 1789.320;  -46.980;    0.000;1836.29995
 678.70; 1764.870;  -63.530;    0.000;1828.39999
 678.97; 1765.530;  -55.410;    0.000;1820.94003
 679.24; 1745.900;  -54.480;    0.000;1800.38002
 679.50; 1718.620;  -62.210;    0.000;1780.82999
 679.77; 1712.260;  -50.610;    0.000;1762.87001
 680.04; 1689.780;  -46.910;    0.000;1736.69003
 680.31; 1684.480;  -56.210;    0.000;1740.68998
 680.57; 1682.660;  -54.280;    0.000;1736.94003
 680.84; 1662.030;  -61.530;    0.000;1723.56003
 681.11; 1676.610;  -44.650;    0.000;1721.25999
 681.37; 1644.470;  -59.060;    0.000;1703.52997
 681.64; 1637.930;  -43.030;    0.000;1680.96005
 681.91; 1603.340;  -58.290;    0.000;1661.62997
 682.17; 1607.040;  -37.730;    0.000;1644.77004
 682.44; 1575.250;  -56.890;    0.000;1632.14000
 682.71; 1569.470;  -49.600;    0.000;1619.06997
 682.98; 1550.140;  -57.550;    0.000;1607.69001
 683.24; 1551.750;  -57.200;    0.000;1608.95000
 683.51; 1535.790;  -61.060;    0.000;1596.85004
 683.78; 1534.320;  -56.140;    0.000;1590.45995
 684.04; 1511.920;  -56.030;    0.000;1567.95004
 684.31; 1496.910;  -65.410;    0.000;1562.32004
 684.58; 1475.320;  -60.330;    0.000;1535.64995
 684.84; 1485.400;  -45.720;    0.000;1531.12003
 685.11; 1462.190;  -61.320;    0.000;1523.50994
 685.38; 1455.130;  -54.090;    0.000;1509.22001
 685.64; 1451.160;  -55.840;    0.000;1507.00003
 685.91; 1433.560;  -48.800;    0.000;1482.36006
 686.17; 1419.650;  -52.500;    0.000;1472.15002
 686.44; 1407.460;  -47.040;    0.000;1454.49996
 686.71; 1379.980;  -69.340;    0.000;1449.31998
 686.97; 1383.610;  -61.270;    0.000;1444.87999
 687.24; 1379.720;  -55.300;    0.000;1435.01997
 687.51; 1362.840;  -55.730;    0.000;1418.56997
 687.77; 1357.780;  -55.320;    0.000;1413.10003
 688.04; 1335.310;  -53.560;    0.000;1388.87006
 688.31; 1318.530;  -60.360;    0.000;1378.89003
 688.57; 1336.130;  -42.800;    0.000;1378.93000
 688.84; 1304.750;  -54.400;    0.000;1359.15000
 689.10; 1302.560;  -60.080;    0.000;1362.64006
 689.37; 1295.290;  -53.200;    0.000;1348.49004
 689.64; 1274.360;  -62.880;    0.000;1337.23999
 689.90; 1253.940;  -66.970;    0.000;1320.90994
 690.17; 1239.640;  -61.960;    0.000;1301.60001
 690.44; 1238.550;  -71.470;    0.000;1310.02005
 690.70; 1228.440;  -48.020;    0.000;1276.45994
 690.97; 1200.190;  -67.550;    0.000;1267.73994
 691.23; 1214.770;  -53.030;    0.000;1267.80002
 691.50; 1181.890;  -53.280;    0.000;1235.17001
 691.77; 1169.750;  -59.250;    0.000;1229.00000
 692.03; 1160.630;  -59.590;    0.000;1220.22001
 692.30; 1162.600;  -52.970;    0.000;1215.56998
 692.56; 1130.130;  -61.140;    0.000;1191.27000
 692.83; 1129.560;  -49.500;    0.000;1179.06006
 693.10; 1129.370;  -53.280;    0.000;1182.64999
 693.36; 1120.120;  -42.000;    0.000;1162.12000
 693.63; 1085.400;  -64.510;    0.000;1149.91003
 693.89; 1083.970;  -55.350;    0.000;1139.31997
 694.16; 1078.400;  -50.790;    0.000;1129.19003
 694.42; 1072.090;  -51.270;    0.000;1123.35997
 694.69; 1093.550;  -40.380;    0.000;1133.93005
 694.96; 1079.570;  -33.890;    0.000;1113.45995
 695.22; 1046.870;  -55.260;    0.000;1102.12999
 695.49; 1040.910;  -31.710;    0.000;1072.62003
 695.75; 1004.470;  -66.650;    0.000;1071.11997
 696.02; 1011.630;  -49.310;    0.000;1060.94001
 696.28;  992.560;  -46.910;    0.000;1039.47000
 696.55;  990.140;  -54.660;    0.000;1044.80001
 696.81;  974.840;  -62.250;    0.000;1037.09003
 697.08;  973.640;  -54.150;    0.000;1027.79002
 697.34;  942.600;  -57.540;    0.000;1000.13998
 697.61;  949.100;  -56.810;    0.000;1005.90998
 697.88;  934.110;  -62.100;    0.000;996.20998
 698.14;  922.190;  -58.940;    0.000;981.13000
 698.41;  919.190;  -56.650;    0.000;975.84000
 698.67;  892.150;  -52.920;    0.000;945.07002
 698.94;  882.720;  -58.190;    0.000;940.90997
 699.20;  875.090;  -47.850;    0.000;922.94003
 699.47;  864.430;  -68.830;    0.000;933.25999
 699.73;  858.020;  -58.380;    0.000;916.40002
 700.00;  832.230;  -64.630;    0.000;896.85998
 700.26;  820.310;  -59.530;    0.000;879.84000
 700.53;  814.590;  -54.230;    0.000;868.82003
 700.79;  818.610;  -54.050;    0.000;872.65998
 701.06;  785.310;  -64.410;    0.000;849.72000
 701.32;  786.640;  -47.200;    0.000;833.84002
 701.59;  769.290;  -59.220;    0.000;828.50998
 701.85;  755.240;  -57.540;    0.000;812.77999
 702.12;  754.800;  -64.900;    0.000;819.69999
 702.38;  742.230;  -52.820;    0.000;795.04998
 702.65;  726.560;  -57.340;    0.000;783.90000
 702.91;  728.640;  -41.130;    0.000;769.77002
 703.18;  704.610;  -57.340;    0.000;761.94999
 703.44;  690.320;  -65.650;    0.000;755.97001
 703.71;  692.540;  -50.250;    0.000;742.78998
 703.97;  688.330;  -60.810;    0.000;749.14002
 704.24;  679.960;  -48.680;    0.000;728.64002
 704.50;  653.500;  -62.670;    0.000;716.17000
 704.76;  656.220;  -53.590;    0.000;709.80997
 705.03;  652.320;  -53.270;    0.000;705.59001
 705.29;  632.390;  -68.330;    0.000;700.72002
 705.56;  618.640;  -47.460;    0.000;666.10001
 705.82;  594.050;  -62.540;    0.000;656.58999
 706.09;  612.380;  -35.470;    0.000;647.85001
 706.35;  586.820;  -65.830;    0.000;652.65001
 706.62;  582.260;  -43.730;    0.000;625.99001
 706.88;  569.010;  -65.400;    0.000;634.41001
 707.15;  546.090;  -63.540;    0.000;609.63003
 707.41;  546.450;  -69.930;    0.000;616.38001
 707.67;  541.650;  -58.660;    0.000;600.31002
 707.94;  544.250;  -47.320;    0.000;591.57000
 708.20;  515.560;  -61.750;    0.000;577.31000
 708.47;  515.630;  -56.200;    0.000;571.83001
 708.73;  511.640;  -55.700;    0.000;567.34002
 709.00;  498.890;  -61.320;    0.000;560.21001
 709.26;  498.600;  -47.280;    0.000;545.88000
 709.52;  476.090;  -59.520;    0.000;535.61000
 709.79;  471.080;  -47.280;    0.000;518.35999
 710.05;  467.530;  -65.410;    0.000;532.94000
 710.32;  458.740;  -49.210;    0.000;507.94999
 710.58;  445.340;  -64.440;    0.000;509.78000
 710.84;  438.460;  -52.760;    0.000;491.21999
 711.11;  435.820;  -50.760;    0.000;486.58001
 711.37;  439.340;  -48.120;    0.000;487.46000
 711.64;  420.120;  -59.290;    0.000;479.41000
 711.90;  422.790;  -47.730;    0.000;470.52001
 712.16;  406.530;  -57.190;    0.000;463.72000
 712.43;  414.890;  -47.120;    0.000;462.01001
 712.69;  401.840;  -59.770;    0.000;461.61000
 712.96;  389.790;  -61.520;    0.000;451.31001
 713.22;  389.720;  -63.180;    0.000;452.90000
 713.48;  386.940;  -63.970;    0.000;450.91000
 713.75;  391.490;  -45.320;    0.000;436.80999
 714.01;  370.950;  -56.290;    0.000;427.24001
 714.27;  374.390;  -61.760;    0.000;436.15001
 714.54;  368.870;  -48.990;    0.000;417.86000
 714.80;  366.620;  -44.990;    0.000;411.61000
 715.06;  361.950;  -48.390;    0.000;410.34001
 715.33;  338.620;  -64.460;    0.000;403.07999
 715.59;  346.290;  -65.090;    0.000;411.38000
 715.86;  343.800;  -62.730;    0.000;406.52999
 716.12;  349.990;  -44.380;    0.000;394.36999
 716.38;  329.910;  -53.380;    0.000;383.29000
 716.65;  332.930;  -62.740;    0.000;395.66999
 716.91;  320.130;  -65.510;    0.000;385.64001
 717.17;  316.020;  -53.390;    0.000;369.40999
 717.44;  322.670;  -50.170;    0.000;372.84001
 717.70;  316.230;  -58.520;    0.000;374.75001
 717.96;  320.280;  -59.390;    0.000;379.67000
 718.23;  312.070;  -47.140;    0.000;359.21001
 718.49;  307.660;  -63.040;    0.000;370.70000
 718.75;  313.000;  -56.440;    0.000;369.44000
 719.02;  290.760;  -65.540;    0.000;356.30001
 719.28;  306.060;  -51.330;    0.000;357.39000
 719.54;  300.090;  -66.400;    0.000;366.49000
 719.80;  296.790;  -60.320;    0.000;357.11001
 720.07;  298.520;  -63.050;    0.000;361.56999
 720.33;  299.520;  -49.840;    0.000;349.35999
 720.59;  302.280;  -54.840;    0.000;357.12000
 720.86;  282.820;  -73.400;    0.000;356.22001
 721.12;  299.320;  -54.650;    0.000;353.97001
 721.38;  294.230;  -55.690;    0.000;349.92001
 721.65;  292.020;  -54.520;    0.000;346.53999
 721.91;  297.570;  -52.450;    0.000;350.02001
 722.17;  267.050;  -76.730;    0.000;343.77999
 722.43;  277.470;  -49.480;    0.000;326.95000
 722.70;  280.450;  -65.770;    0.000;346.22001
 722.96;  293.010;  -53.300;    0.000;346.31001
 723.22;  272.690;  -73.430;    0.000;346.12000
 723.48;  286.120;  -56.180;    0.000;342.30000
 723.75;  267.530;  -67.640;    0.000;335.17000
 724.01;  289.220;  -55.620;    0.000;344.84000
 724.27;  267.940;  -67.820;    0.000;335.76000
 724.54;  287.080;  -47.620;    0.000;334.69999
 724.80;  275.220;  -66.900;    0.000;342.12000
 725.06;  271.860;  -58.380;    0.000;330.23999
 725.32;  286.900;  -52.140;    0.000;339.03999
 725.59;  271.610;  -63.950;    0.000;335.55999
 725.85;  268.370;  -72.120;    0.000;340.49000
 726.11;  276.510;  -55.390;    0.000;331.90001
 726.37;  269.020;  -64.820;    0.000;333.83999
 726.64;  292.060;  -37.500;    0.000;329.56000
 726.90;  276.970;  -56.310;    0.000;333.28000
 727.16;  280.230;  -54.440;    0.000;334.67001
 727.42;  271.610;  -60.840;    0.000;332.44999
 727.68;  269.270;  -53.090;    0.000;322.35999
 727.95;  258.450;  -76.660;    0.000;335.11002
 728.21;  275.990;  -49.790;    0.000;325.77999
 728.47;  269.910;  -58.260;    0.000;328.17000
 728.73;  273.500;  -45.620;    0.000;319.12000
 729.00;  268.990;  -57.750;    0.000;326.73999
 729.26;  257.950;  -46.240;    0.000;304.19001
 729.52;  252.730;  -69.960;    0.000;322.68999
 729.78;  259.830;  -58.640;    0.000;318.46999
 730.04;  261.850;  -58.120;    0.000;319.97001
 730.31;  255.190;  -64.750;    0.000;319.94000
 730.57;  253.990;  -66.880;    0.000;320.87000
 730.83;  263.820;  -59.830;    0.000;323.65001
 731.09;  257.850;  -55.260;    0.000;313.11000
 731.35;  256.590;  -58.140;    0.000;314.73000
 731.62;  236.100;  -73.940;    0.000;310.04001
 731.88;  246.330;  -62.720;    0.000;309.05000
 732.14;  252.760;  -57.910;    0.000;310.66999
 732.40;  248.610;  -69.570;    0.000;318.18000
 732.66;  241.330;  -59.720;    0.000;301.05000
 732.92;  239.090;  -69.610;    0.000;308.70000
 733.19;  247.840;  -64.460;    0.000;312.30000
 733.45;  248.540;  -53.510;    0.000;302.04999
 733.71;  244.550;  -62.160;    0.000;306.71000
 733.97;  281.300;  -25.260;    0.000;306.55999
 734.23;  245.930;  -66.750;    0.000;312.67999
 734.49;  228.910;  -64.230;    0.000;293.14001
 734.76;  222.130;  -58.640;    0.000;280.77000
 735.02;  231.260;  -59.310;    0.000;290.57000
 735.28;  232.060;  -55.300;    0.000;287.36000
 735.54;  225.320;  -60.740;    0.000;286.06001
 735.80;  215.790;  -72.340;    0.000;288.12999
 736.06;  229.140;  -54.220;    0.000;283.36000
 736.32;  213.230;  -66.000;    0.000;279.23000
 736.59;  222.230;  -71.880;    0.000;294.10999
 736.85;  217.190;  -57.030;    0.000;274.22000
 737.11;  210.400;  -64.070;    0.000;274.46999
 737.37;  205.250;  -76.050;    0.000;281.30000
 737.63;  209.740;  -66.390;    0.000;276.13000
 737.89;  212.100;  -57.810;    0.000;269.91001
 738.15;  217.870;  -49.020;    0.000;266.89000
 738.41;  203.030;  -71.740;    0.000;274.77000
 738.67;  209.890;  -53.450;    0.000;263.34000
 738.94;  196.420;  -73.730;    0.000;270.15000
 739.20;  199.410;  -71.160;    0.000;270.57001
 739.46;  220.370;  -57.050;    0.000;277.41999
 739.72;  186.380;  -73.350;    0.000;259.73000
 739.98;  194.400;  -62.480;    0.000;256.87999
 740.24;  197.360;  -56.860;    0.000;254.22000
 740.50;  189.600;  -57.360;    0.000;246.96001
 740.76;  185.910;  -68.690;    0.000;254.60001
 741.02;  185.200;  -70.870;    0.000;256.07000
 741.28;  186.690;  -58.510;    0.000;245.20000
 741.54;  196.560;  -53.990;    0.000;250.55000
 741.81;  182.600;  -55.250;    0.000;237.85001
 742.07;  168.920;  -66.200;    0.000;235.12000
 742.33;  184.940;  -48.910;    0.000;233.85000
 742.59;  176.520;  -60.130;    0.000;236.65001
 742.85;  182.410;  -55.100;    0.000;237.51000
 743.11;  156.850;  -76.530;    0.000;233.38000
 743.37;  170.330;  -61.350;    0.000;231.68000
 743.63;  145.050;  -75.800;    0.000;220.85001
 743.89;  157.960;  -59.440;    0.000;217.40001
 744.15;  156.460;  -62.650;    0.000;219.11001
 744.41;  152.670;  -58.030;    0.000;210.70000
 744.67;  150.420;  -64.390;    0.000;214.81000
 744.93;  151.800;  -60.990;    0.000;212.79000
 745.19;  139.150;  -66.920;    0.000;206.06999
 745.45;  151.840;  -67.110;    0.000;218.95000
 745.71;  140.820;  -63.100;    0.000;203.92001
 745.97;  145.770;  -58.360;    0.000;204.13000
 746.23;  137.470;  -65.530;    0.000;203.00000
 746.49;  142.590;  -58.960;    0.000;201.55000
 746.75;  137.570;  -62.950;    0.000;200.52001
 747.02;  132.490;  -69.200;    0.000;201.69000
 747.28;  132.740;  -75.780;    0.000;208.52000
 747.54;  137.520;  -59.290;    0.000;196.81001
 747.80;  121.820;  -66.430;    0.000;188.25000
 748.06;  124.980;  -64.430;    0.000;189.41000
 748.32;  114.330;  -68.280;    0.000;182.61000
 748.58;  126.850;  -56.410;    0.000;183.26000
 748.84;  126.700;  -60.900;    0.000;187.60000
 749.10;  200.310;   14.290;    0.000;186.02000
 749.36;  120.150;  -58.640;    0.000;178.79000
 749.62;  104.750;  -53.300;    0.000;158.05000
 749.88;  108.180;  -63.380;    0.000;171.56000
 750.14;  113.980;  -62.320;    0.000;176.30000
 750.40;  108.930;  -62.710;    0.000;171.64000
 750.66;  111.840;  -53.170;    0.000;165.00999
 750.91;  109.990;  -57.390;    0.000;167.38000
 751.17;   98.440;  -60.510;    0.000;158.95000
 751.43;   95.170;  -67.510;    0.000;162.68000
 751.69;  101.880;  -53.130;    0.000;155.01000
 751.95;   98.100;  -58.380;    0.000;156.48000
 752.21;   97.850;  -54.270;    0.000;152.12000
 752.47;   90.050;  -66.590;    0.000;156.64000
 752.73;   99.280;  -59.420;    0.000;158.70000
 752.99;   88.820;  -67.420;    0.000;156.24000
 753.25;   80.850;  -61.010;    0.000;141.86000
 753.51;   77.980;  -64.170;    0.000;142.15000
 753.77;   88.040;  -58.420;    0.000;146.46000
 754.03;   81.440;  -63.170;    0.000;144.61000
 754.29;   72.010;  -60.390;    0.000;132.40000
 754.55;   79.490;  -59.530;    0.000;139.02000
 754.81;   76.540;  -64.020;    0.000;140.56000
 755.07;   68.010;  -65.730;    0.000;133.74001
 755.33;   73.750;  -53.650;    0.000;127.40000
 755.59;   69.180;  -65.350;    0.000;134.53000
 755.85;   77.830;  -62.930;    0.000;140.76000
 756.10;   71.010;  -62.610;    0.000;133.62000
 756.36;   65.680;  -63.220;    0.000;128.90000
 756.62;   69.500;  -76.090;    0.000;145.59000
 756.88;   60.770;  -63.210;    0.000;123.98000
 757.14;   66.020;  -54.900;    0.000;120.92000
 757.40;   64.190;  -58.450;    0.000;122.64000
 757.66;   63.030;  -52.890;    0.000;115.92000
 757.92;   66.220;  -53.070;    0.000;119.29000
 758.18;   50.640;  -70.780;    0.000;121.42000
 758.44;   59.700;  -61.350;    0.000;121.05000
 758.70;   53.500;  -62.310;    0.000;115.81000
 758.95;   54.540;  -55.510;    0.000;110.05000
 759.21;   42.970;  -71.730;    0.000;114.70000
 759.47;   64.040;  -55.090;    0.000;119.13000
 759.73;   45.900;  -66.680;    0.000;112.58000
 759.99;   40.230;  -65.250;    0.000;105.48000
 760.25;   43.960;  -76.330;    0.000;120.29000
 760.51;   48.300;  -66.640;    0.000;114.94000
 760.77;   45.610;  -62.640;    0.000;108.25000
 761.02;   48.100;  -55.290;    0.000;103.39000
 761.28;   40.070;  -72.630;    0.000;112.70000
 761.54;   43.240;  -59.090;    0.000;102.33000
 761.80;   37.010;  -67.640;    0.000;104.65000
 762.06;   53.320;  -50.180;    0.000;103.50000
 762.32;   32.640;  -79.560;    0.000;112.20000
 762.58;   44.000;  -63.330;    0.000;107.33000
 762.83;   50.630;  -60.260;    0.000;110.89000
 763.09;   28.770;  -60.390;    0.000;89.16000
 763.35;   25.170;  -70.560;    0.000;95.73000
 763.61;   42.960;  -54.640;    0.000;97.60000
 763.87;   40.460;  -50.690;    0.000;91.15000
 764.13;   36.750;  -61.450;    0.000;98.20000
 764.38;   29.610;  -65.440;    0.000;95.05000
 764.64;   31.180;  -69.840;    0.000;101.02000
 764.90;   22.900;  -70.080;    0.000;92.98000
 765.16;   30.540;  -56.430;    0.000;86.97000
 765.42;   33.910;  -72.650;    0.000;106.56000
 765.68;   20.400;  -70.250;    0.000;90.65000
 765.93;   20.470;  -73.680;    0.000;94.15000
 766.19;   26.860;  -50.430;    0.000;77.29000
 766.45;   14.750;  -71.110;    0.000;85.86000
 766.71;   29.140;  -54.730;    0.000;83.87000
 766.97;   22.880;  -68.930;    0.000;91.81000
 767.22;   25.270;  -59.260;    0.000;84.53000
 767.48;   13.160;  -71.090;    0.000;84.25000
 767.74;   22.850;  -61.560;    0.000;84.41000
 768.00;   15.870;  -77.530;    0.000;93.40000
 768.26;   10.810;  -62.040;    0.000;72.85000
 768.51;   20.440;  -60.300;    0.000;80.74000
 768.77;   35.610;  -47.940;    0.000;83.55000
 769.03;   13.860;  -78.410;    0.000;92.27000
 769.29;   20.730;  -71.790;    0.000;92.52000
 769.54;   13.920;  -73.200;    0.000;87.12000
 769.80;   23.140;  -67.540;    0.000;90.68000
 770.06;   -0.440;  -74.660;    0.000;74.22000
 770.32;   16.520;  -76.440;    0.000;92.96000
 770.57;    2.620;  -80.070;    0.000;82.69000
 770.83;   20.770;  -63.860;    0.000;84.63000
 771.09;    9.680;  -69.770;    0.000;79.45000
 771.35;    4.600;  -65.060;    0.000;69.66000
 771.61;    8.660;  -76.250;    0.000;84.91000
 771.86;   16.490;  -52.550;    0.000;69.04000
 772.12;   -6.640;  -82.060;    0.000;75.42000
 772.38;    9.730;  -70.920;    0.000;80.65000
 772.63;    9.350;  -70.280;    0.000;79.63000
 772.89;   11.580;  -67.220;    0.000;78.80000
 773.15;    2.290;  -70.020;    0.000;72.31000
 773.41;    6.470;  -75.520;    0.000;81.99000
 773.66;   10.750;  -64.250;    0.000;75.00000
 773.92;    3.610;  -62.320;    0.000;65.93000
 774.18;   18.240;  -60.500;    0.000;78.74000
 774.44;   -1.560;  -69.740;    0.000;68.18000
 774.69;    5.880;  -66.950;    0.000;72.83000
 774.95;   10.690;  -61.260;    0.000;71.95000
 775.21;   12.980;  -56.740;    0.000;69.72000
 775.46;    0.920;  -71.760;    0.000;72.68000
 775.72;   -5.220;  -74.010;    0.000;68.79000
 775.98;    3.260;  -57.630;    0.000;60.89000
 776.24;   -0.550;  -78.090;    0.000;77.54000
 776.49;    2.970;  -65.450;    0.000;68.42000
 776.75;   -0.110;  -70.010;    0.000;69.90000
 777.01;   -1.300;  -73.480;    0.000;72.18000
 777.26;   14.340;  -53.890;    0.000;68.23000
 777.52;    0.230;  -58.810;    0.000;59.04000
 777.78;    1.790;  -72.700;    0.000;74.49000
 778.03;    1.710;  -56.180;    0.000;57.89000
 778.29;   -3.570;  -65.510;    0.000;61.94000
 778.55;   -1.820;  -64.990;    0.000;63.17000
 778.80;   -2.610;  -66.480;    0.000;63.87000
 779.06;  -12.420;  -72.690;    0.000;60.27000
 779.32;  -11.300;  -76.670;    0.000;65.37000
 779.57;  -21.900;  -67.570;    0.000;45.67000
 779.83;   -8.580;  -69.500;    0.000;60.92000
 780.09;    1.730;  -65.320;    0.000;67.05000
 780.34;   -9.380;  -69.050;    0.000;59.67000
 780.60;    5.850;  -54.350;    0.000;60.20000
 780.86;   -3.830;  -70.540;    0.000;66.71000
 781.11;   -2.120;  -60.140;    0.000;58.02000
 781.37;  -17.900;  -89.190;    0.000;71.29000
 781.63;    3.300;  -53.500;    0.000;56.80000
 781.88;  -11.220;  -75.250;    0.000;64.03000
 782.14;  -16.410;  -65.990;    0.000;49.58000
 782.39;   -7.860;  -73.460;    0.000;65.60000
 782.65;   -6.890;  -67.340;    0.000;60.45000
 782.91;   -4.120;  -61.740;    0.000;57.62000
 783.16;   -7.600;  -64.430;    0.000;56.83000
 783.42;  -20.100;  -78.900;    0.000;58.80000
 783.67;  -14.530;  -60.080;    0.000;45.55000
 783.93;  -19.570;  -75.140;    0.000;55.57000
 784.19;  -13.550;  -63.580;    0.000;50.03000
 784.44;   -8.130;  -59.560;    0.000;51.43000
 784.70;    0.050;  -51.310;    0.000;51.36000
 784.96;  -29.850;  -79.860;    0.000;50.01000
 785.21;   -8.930;  -67.680;    0.000;58.75000
 785.47;    3.930;  -48.970;    0.000;52.90000
 785.72;  -23.090;  -76.220;    0.000;53.13000
 785.98;  -24.030;  -73.540;    0.000;49.51000
 786.23;  -23.670;  -71.420;    0.000;47.75000
 786.49;  -28.870;  -76.000;    0.000;47.13000
 786.75;  -20.500;  -71.520;    0.000;51.02000
 787.00;  -29.420;  -75.060;    0.000;45.64000
 787.26;  -22.870;  -65.970;    0.000;43.10000
 787.51;  -14.550;  -71.990;    0.000;57.44000
 787.77;   -6.910;  -54.030;    0.000;47.12000
 788.02;  -10.110;  -61.800;    0.000;51.69000
 788.28;  -26.990;  -70.640;    0.000;43.65000
 788.54;  -14.660;  -63.910;    0.000;49.25000
 788.79;  -12.460;  -58.120;    0.000;45.66000
 789.05;  -21.620;  -77.260;    0.000;55.64000
 789.30;  -24.730;  -63.070;    0.000;38.34000
 789.56;  -28.980;  -83.770;    0.000;54.79000
 789.81;  -28.370;  -70.330;    0.000;41.96000
 790.07;  -25.670;  -76.840;    0.000;51.17000
 790.32;  -23.460;  -67.480;    0.000;44.02000
 790.58;  -24.390;  -76.340;    0.000;51.95000
 790.83;  -27.840;  -66.550;    0.000;38.71000
 791.09;  -31.430;  -80.200;    0.000;48.77000
 791.35;  -35.800;  -74.470;    0.000;38.67000
 791.60;  -31.050;  -88.380;    0.000;57.33000
 791.86;  -30.600;  -60.380;    0.000;29.78000
 792.11;  -20.230;  -63.000;    0.000;42.77000
 792.37;  -33.650;  -71.430;    0.000;37.78000
 792.62;  -30.375;  -70.745;    0.000;40.37000
 792.88;  -27.100;  -70.060;    0.000;42.96000
 793.13;  -28.620;  -70.130;    0.000;41.51000
 793.39;  -34.710;  -73.500;    0.000;38.79000
 793.64;  -32.090;  -78.890;    0.000;46.80000
 793.90;  -24.560;  -64.800;    0.000;40.24000
 794.15;  -28.940;  -62.780;    0.000;33.84000
 794.41;  -23.890;  -61.310;    0.000;37.42000
 794.66;  -24.360;  -62.340;    0.000;37.98000
 794.92;  -40.790;  -63.470;    0.000;22.68000
 795.17;  -40.710;  -78.030;    0.000;37.32000
 795.43;  -39.970;  -81.320;    0.000;41.35000
 795.68;  -30.450;  -65.590;    0.000;35.14000
 795.94;  -33.460;  -63.900;    0.000;30.44000
 796.19;  -28.610;  -67.970;    0.000;39.36000
 796.44;  -28.230;  -76.220;    0.000;47.99000
 796.70;  -32.280;  -65.720;    0.000;33.44000
 796.95;  -23.510;  -54.340;    0.000;30.83000
 797.21;  -42.400;  -80.910;    0.000;38.51000
 797.46;  -42.710;  -78.690;    0.000;35.98000
 797.72;  -40.860;  -82.870;    0.000;42.01000
 797.97;  -43.800;  -82.520;    0.000;38.72000
 798.23;  -37.210;  -76.920;    0.000;39.71000
 798.48;  -32.930;  -63.290;    0.000;30.36000
 798.74;  -33.720;  -71.360;    0.000;37.64000
 798.99;  -36.150;  -74.330;    0.000;38.18000
 799.24;  -38.520;  -71.830;    0.000;33.31000
 799.50;  -39.260;  -63.300;    0.000;24.04000
 799.75;  -34.120;  -68.600;    0.000;34.48000
 800.01;  -43.060;  -68.250;    0.000;25.19000
 800.26;  -51.330;  -80.860;    0.000;29.53000
 800.52;  -34.730;  -72.700;    0.000;37.97000
 800.77;  -43.170;  -78.340;    0.000;35.17000
 801.02;  -35.970;  -78.570;    0.000;42.60000
 801.28;  -46.110;  -84.840;    0.000;38.73000
 801.53;  -28.210;  -60.400;    0.000;32.19000
 801.79;  -32.550;  -67.370;    0.000;34.82000
 802.04;  -38.460;  -68.440;    0.000;29.98000
 802.29;  -41.930;  -75.880;    0.000;33.95000
 802.55;  -36.960;  -61.940;    0.000;24.98000
 802.80;  -41.940;  -70.790;    0.000;28.85000
 803.06;  -36.370;  -66.900;    0.000;30.53000
 803.31;  -42.820;  -70.290;    0.000;27.47000
 803.56;  -30.280;  -66.680;    0.000;36.40000
 803.82;  -42.050;  -76.730;    0.000;34.68000
 804.07;  -40.150;  -70.630;    0.000;30.48000
 804.32;  -39.650;  -78.040;    0.000;38.39000
 804.58;  -46.860;  -75.000;    0.000;28.14000
 804.83;  -45.300;  -76.500;    0.000;31.20000
 805.09;  -44.440;  -63.990;    0.000;19.55000
 805.34;  -43.720;  -69.630;    0.000;25.91000
 805.59;  -37.300;  -58.930;    0.000;21.63000
 805.85;  -51.160;  -80.680;    0.000;29.52000
 806.10;  -44.990;  -65.530;    0.000;20.54000
 806.35;  -30.480;  -67.770;    0.000;37.29000
 806.61;  -40.700;  -75.980;    0.000;35.28000
 806.86;  -45.130;  -79.500;    0.000;34.37000
 807.11;  -39.040;  -62.610;    0.000;23.57000
 807.37;  -27.550;  -56.160;    0.000;28.61000
 807.62;  -47.530;  -77.550;    0.000;30.02000
 807.87;  -45.630;  -71.820;    0.000;26.19000
 808.13;  -51.250;  -73.880;    0.000;22.63000
 808.38;  -48.450;  -72.370;    0.000;23.92000
 808.63;  -44.660;  -66.890;    0.000;22.23000
 808.89;  -43.650;  -81.230;    0.000;37.58000
 809.14;  -42.040;  -74.120;    0.000;32.08000
 809.39;  -51.510;  -88.710;    0.000;37.20000
 809.65;  -46.470;  -69.050;    0.000;22.58000
 809.90;  -52.600;  -83.440;    0.000;30.84000
 810.15;  -41.510;  -78.660;    0.000;37.15001
 810.41;  -40.520;  -68.470;    0.000;27.95000
 810.66;  -49.290;  -70.200;    0.000;20.91000
 810.91;  -51.770;  -69.770;    0.000;18.00000
 811.16;  -47.080;  -74.940;    0.000;27.86000
 811.42;  -47.910;  -71.010;    0.000;23.10000
 811.67;  -48.070;  -72.410;    0.000;24.34000
 811.92;  -46.050;  -82.960;    0.000;36.91000
 812.18;  -40.720;  -69.050;    0.000;28.33000
 812.43;  -56.850;  -77.030;    0.000;20.18000
 812.68;  -49.880;  -69.130;    0.000;19.25000
 812.93;  -52.380;  -81.060;    0.000;28.68000
 813.19;  -39.940;  -57.500;    0.000;17.56000
 813.44;  -53.580;  -78.150;    0.000;24.57000
 813.69;  -36.200;  -60.290;    0.000;24.09000
 813.95;  -48.070;  -72.300;    0.000;24.23000
 814.20;  -53.470;  -69.340;    0.000;15.87000
 814.45;  -52.950;  -82.170;    0.000;29.22000
 814.70;  -40.510;  -61.380;    0.000;20.87000
 814.96;  -57.340;  -78.600;    0.000;21.26000
 815.21;  -58.420;  -69.070;    0.000;10.65000
 815.46;  -60.430;  -77.560;    0.000;17.13000
 815.71;  -54.960;  -70.640;    0.000;15.68000
 815.96;  -56.060;  -73.920;    0.000;17.86000
 816.22;  -52.890;  -75.550;    0.000;22.66000
 816.47;  -46.570;  -75.610;    0.000;29.04000
 816.72;  -54.380;  -64.380;    0.000;10.00000
 816.97;  -54.970;  -69.030;    0.000;14.06000
 817.23;  -47.260;  -58.770;    0.000;11.51000
 817.48;  -50.720;  -72.640;    0.000;21.92000
 817.73;  -52.050;  -68.910;    0.000;16.86000
 817.98;  -42.590;  -62.500;    0.000;19.91000
 818.23;  -52.170;  -69.600;    0.000;17.43000
 818.49;  -50.930;  -82.830;    0.000;31.90000
 818.74;  -40.250;  -63.160;    0.000;22.91000
 818.99;  -47.490;  -76.980;    0.000;29.49000
 819.24;  -39.840;  -56.900;    0.000;17.06000
 819.50;  -61.360;  -85.700;    0.000;24.34000
 819.75;  -44.090;  -58.460;    0.000;14.37000
 820.00;  -32.880;  -51.580;    0.000;18.70000
 820.25;  -48.360;  -76.950;    0.000;28.59000
 820.50;  -63.040;  -76.040;    0.000;13.00000
 820.75;  -50.150;  -58.290;    0.000; 8.14000
 821.01;  -55.610;  -72.980;    0.000;17.37000
 821.26;  -45.520;  -61.870;    0.000;16.35000
 821.51;  -49.070;  -75.230;    0.000;26.16000
 821.76;  -58.700;  -74.500;    0.000;15.80000
 822.01;  -51.180;  -69.050;    0.000;17.87000
 822.26;  -53.280;  -75.290;    0.000;22.01000
 822.52;  -52.510;  -75.780;    0.000;23.27000
 822.77;  -48.410;  -73.230;    0.000;24.82000
 823.02;  -56.070;  -82.200;    0.000;26.13000
 823.27;  -60.980;  -74.650;    0.000;13.67000
 823.52;  -55.380;  -83.590;    0.000;28.21000
 823.77;  -53.350;  -71.930;    0.000;18.58000
 824.03;  -53.350;  -66.100;    0.000;12.75000
 824.28;  -58.880;  -73.830;    0.000;14.95000
 824.53;  -54.510;  -76.580;    0.000;22.07000
 824.78;  -54.330;  -73.800;    0.000;19.47000
 825.03;  -62.780;  -81.540;    0.000;18.76000
 825.28;  -56.680;  -77.210;    0.000;20.53000
 825.53;  -60.230;  -74.480;    0.000;14.25000
 825.78;  -51.700;  -64.840;    0.000;13.14000
 826.04;  -57.100;  -71.720;    0.000;14.62000
 826.29;  -48.470;  -69.860;    0.000;21.39000
 826.54;  -60.620;  -78.410;    0.000;17.79000
 826.79;  -56.000;  -73.020;    0.000;17.02000
 827.04;  -68.550;  -84.000;    0.000;15.45000
 827.29;  -56.290;  -74.210;    0.000;17.92000
 827.54;  -56.310;  -73.620;    0.000;17.31000
 827.79;  -53.370;  -70.830;    0.000;17.46000
 828.04;  -51.360;  -72.100;    0.000;20.74000
 828.29;  -58.330;  -67.810;    0.000; 9.48000
 828.55;  -61.480;  -72.130;    0.000;10.65000
 828.80;  -45.130;  -71.180;    0.000;26.05000
 829.05;  -60.260;  -70.120;    0.000; 9.86000
 829.30;  -59.540;  -79.380;    0.000;19.84000
 829.55;  -69.060;  -77.730;    0.000; 8.67001
 829.80;  -57.260;  -69.970;    0.000;12.71000
 830.05;  -57.210;  -71.210;    0.000;14.00000
 830.30;  -58.780;  -74.490;    0.000;15.71000
 830.55;  -53.630;  -73.870;    0.000;20.24000
 830.80;  -56.790;  -72.120;    0.000;15.33000
 831.05;  -60.430;  -73.240;    0.000;12.81000
 831.30;  -46.880;  -61.610;    0.000;14.73000
 831.55;  -56.390;  -72.070;    0.000;15.68000
 831.80;  -52.400;  -76.090;    0.000;23.68999
 832.05;  -49.610;  -72.350;    0.000;22.74000
 832.30;  -46.580;  -56.990;    0.000;10.41000
 832.56;  -57.350;  -74.880;    0.000;17.53000
 832.81;  -64.970;  -81.530;    0.000;16.56000
 833.06;  -51.580;  -70.100;    0.000;18.52000
 833.31;  -63.440;  -72.540;    0.000; 9.10000
 833.56;  -59.360;  -79.370;    0.000;20.01000
 833.81;  -56.080;  -71.960;    0.000;15.88000
 834.06;  -61.940;  -76.960;    0.000;15.02000
 834.31;  -53.350;  -78.130;    0.000;24.78000
 834.56;  -58.540;  -66.970;    0.000; 8.43000
 834.81;  -66.200;  -83.940;    0.000;17.74001
 835.06;  -63.740;  -84.050;    0.000;20.31000
 835.31;  -51.380;  -64.180;    0.000;12.80000
 835.56;  -53.820;  -70.370;    0.000;16.55000
 835.81;  -56.220;  -67.350;    0.000;11.13000
 836.06;  -38.780;  -63.940;    0.000;25.16000
 836.31;  -63.640;  -73.980;    0.000;10.34000
 836.56;  -71.160;  -79.330;    0.000; 8.17000
 836.81;  -57.770;  -71.010;    0.000;13.24000
 837.06;  -44.410;  -63.870;    0.000;19.46000
 837.31;  -63.490;  -74.940;    0.000;11.45000
 837.56;  -73.200;  -88.560;    0.000;15.36000
 837.81;  -55.110;  -68.370;    0.000;13.26000
 838.06;  -59.060;  -79.050;    0.000;19.99000
 838.31;  -63.540;  -77.890;    0.000;14.35000
 838.56;  -70.630;  -87.890;    0.000;17.26000
 838.80;  -62.890;  -74.450;    0.000;11.56000
 839.05;  -53.640;  -72.720;    0.000;19.08000
 839.30;  -70.880;  -81.530;    0.000;10.65000
 839.55;  -67.210;  -74.880;    0.000; 7.67000
 839.80;  -56.990;  -72.710;    0.000;15.72000
 840.05;  -65.410;  -77.730;    0.000;12.32000
 840.30;  -49.360;  -62.950;    0.000;13.59000
 840.55;  -62.600;  -77.380;    0.000;14.78000
 840.80;  -56.100;  -60.500;    0.000; 4.40000
 841.05;  -68.750;  -77.450;    0.000; 8.70000
 841.30;  -57.880;  -64.750;    0.000; 6.87000
 841.55;  -71.170;  -82.380;    0.000;11.21000
 841.80;  -68.440;  -80.340;    0.000;11.89999
 842.05;  -73.790;  -93.420;    0.000;19.63000
 842.30;  -60.370;  -72.220;    0.000;11.85000
 842.55;  -61.000;  -72.190;    0.000;11.19000
 842.79;  -68.110;  -78.840;    0.000;10.73000
 843.04;  -55.720;  -63.610;    0.000; 7.89000
 843.29;  -58.760;  -70.050;    0.000;11.29000
 843.54;  -50.400;  -72.130;    0.000;21.73000
 843.79;  -69.000;  -77.040;    0.000; 8.04000
 844.04;  -64.490;  -74.220;    0.000; 9.73000
 844.29;  -65.810;  -71.690;    0.000; 5.88000
 844.54;  -57.850;  -78.650;    0.000;20.80000
 844.79;  -64.190;  -76.030;    0.000;11.84000
 845.04;  -52.550;  -70.190;    0.000;17.64000
 845.28;  -71.330;  -74.780;    0.000; 3.45000
 845.53;  -57.520;  -75.020;    0.000;17.50000
 845.78;  -45.030;  -59.080;    0.000;14.05000
 846.03;  -64.340;  -74.510;    0.000;10.17001
 846.28;  -59.890;  -70.160;    0.000;10.27000
 846.53;  -49.460;  -58.960;    0.000; 9.50000
 846.78;  -55.600;  -73.040;    0.000;17.44000
 847.02;  -49.020;  -58.760;    0.000; 9.74000
 847.27;  -57.270;  -67.500;    0.000;10.23000
 847.52;  -69.900;  -80.170;    0.000;10.27000
 847.77;  -64.880;  -75.890;    0.000;11.01000
 848.02;  -61.210;  -79.510;    0.000;18.30000
 848.27;  -66.300;  -72.730;    0.000; 6.43000
 848.52;  -70.180;  -80.850;    0.000;10.67000
 848.76;  -50.800;  -60.510;    0.000; 9.71000
 849.01;  -60.520;  -78.490;    0.000;17.97000
 849.26;  -71.860;  -76.380;    0.000; 4.52000
 849.51;  -54.540;  -72.410;    0.000;17.87000
 849.76;  -66.950;  -75.550;    0.000; 8.60001
 850.01;  -65.340;  -83.570;    0.000;18.23000
 850.25;  -59.240;  -69.620;    0.000;10.38000
 850.50;  -67.810;  -82.060;    0.000;14.25000
 850.75;  -62.440;  -65.940;    0.000; 3.50000
 851.00;  -71.080;  -76.370;    0.000; 5.29000
 851.25;  -63.520;  -68.640;    0.000; 5.12000
 851.49;  -68.180;  -80.630;    0.000;12.45000
 851.74;  -70.410;  -74.970;    0.000; 4.56000
 851.99;  -57.920;  -73.100;    0.000;15.18000
 852.24;  -64.780;  -77.500;    0.000;12.72000
 852.49;  -65.640;  -79.380;    0.000;13.74000
 852.73;  -72.090;  -78.890;    0.000; 6.80000
 852.98;  -68.970;  -74.210;    0.000; 5.24000
 853.23;  -60.320;  -76.100;    0.000;15.78000
 853.48;  -75.670;  -81.410;    0.000; 5.74001
 853.73;  -66.100;  -76.970;    0.000;10.87000
 853.97;  -64.110;  -75.100;    0.000;10.99000
 854.22;  -70.050;  -76.230;    0.000; 6.18000
 854.47;  -66.150;  -82.400;    0.000;16.25000
 854.72;  -60.100;  -68.920;    0.000; 8.82000
 854.96;  -67.770;  -78.580;    0.000;10.81001
 855.21;  -56.090;  -71.010;    0.000;14.92000
 855.46;  -50.730;  -59.170;    0.000; 8.44000
 855.71;  -74.200;  -85.800;    0.000;11.60001
 855.95;  -69.730;  -74.110;    0.000; 4.38000
 856.20;  -69.200;  -72.760;    0.000; 3.56001
 856.45;  -65.590;  -85.610;    0.000;20.02000
 856.70;  -68.010;  -70.870;    0.000; 2.86000
 856.94;  -68.290;  -79.390;    0.000;11.10000
 857.19;  -54.290;  -64.950;    0.000;10.66000
 857.44;  -69.910;  -74.140;    0.000; 4.23000
 857.69;  -61.520;  -74.080;    0.000;12.56000
 857.93;  -74.900;  -72.170;    0.000;-2.73000
 858.18;  -58.850;  -65.400;    0.000; 6.55000
 858.43;  -61.680;  -74.950;    0.000;13.27000
 858.67;  -52.860;  -62.950;    0.000;10.09000
 858.92;  -64.970;  -76.360;    0.000;11.39000
 859.17;  -47.310;  -54.150;    0.000; 6.84000
 859.42;  -67.200;  -78.880;    0.000;11.68000
 859.66;  -77.220;  -79.670;    0.000; 2.45000
 859.91;  -62.140;  -75.430;    0.000;13.29000
 860.16;  -71.290;  -85.150;    0.000;13.86000
 860.40;  -58.690;  -73.870;    0.000;15.18000
 860.65;  -66.360;  -76.580;    0.000;10.22000
 860.90;  -74.320;  -87.770;    0.000;13.45000
 861.14;  -72.230;  -79.050;    0.000; 6.82000
 861.39;  -72.330;  -79.040;    0.000; 6.71000
 861.64;  -69.050;  -69.400;    0.000; 0.35000
 861.88;  -75.600;  -85.710;    0.000;10.11000
 862.13;  -68.620;  -71.250;    0.000; 2.63000
 862.38;  -72.060;  -85.130;    0.000;13.07000
 862.62;  -63.460;  -73.110;    0.000; 9.65000
 862.87;  -64.210;  -74.050;    0.000; 9.84000
 863.12;  -74.710;  -85.480;    0.000;10.77000
 863.36;  -71.000;  -77.780;    0.000; 6.78000
 863.61;  -69.640;  -70.330;    0.000; 0.69000
 863.86;  -72.590;  -83.090;    0.000;10.50000
 864.10;  -61.600;  -74.370;    0.000;12.77000
 864.35;  -69.610;  -78.440;    0.000; 8.83000
 864.60;  -70.190;  -76.350;    0.000; 6.16000
 864.84;  -73.190;  -78.230;    0.000; 5.04000
 865.09;  -58.170;  -66.680;    0.000; 8.51000
 865.33;  -75.220;  -82.700;    0.000; 7.48000
 865.58;  -61.290;  -67.180;    0.000; 5.89000
 865.83;  -71.060;  -80.080;    0.000; 9.02000
 866.07;  -73.540;  -81.320;    0.000; 7.78000
 866.32;  -43.100;  -54.500;    0.000;11.40000
 866.57;  -62.660;  -70.470;    0.000; 7.81000
 866.81;  -74.040;  -82.540;    0.000; 8.50000
 867.06;  -68.990;  -77.360;    0.000; 8.37000
 867.30;  -71.000;  -83.760;    0.000;12.76000
 867.55;  -64.510;  -80.860;    0.000;16.35000
 867.80;  -57.960;  -70.830;    0.000;12.87000
 868.04;  -67.540;  -70.790;    0.000; 3.25000
 868.29;  -71.660;  -74.480;    0.000; 2.82000
 868.53;  -57.650;  -69.440;    0.000;11.79000
 868.78;  -73.430;  -84.070;    0.000;10.64000
 869.03;  -67.050;  -68.510;    0.000; 1.46000
 869.27;  -69.910;  -77.050;    0.000; 7.14000
 869.52;  -64.700;  -83.420;    0.000;18.72000
 869.76;  -70.240;  -67.410;    0.000;-2.82999
 870.01;  -70.860;  -67.550;    0.000;-3.31000
 870.25;  -59.980;  -65.140;    0.000; 5.16000
 870.50;  -68.160;  -70.290;    0.000; 2.13000
 870.75;  -72.440;  -82.930;    0.000;10.49000
 870.99;  -66.740;  -70.660;    0.000; 3.92001
 871.24;  -70.180;  -80.160;    0.000; 9.98000
 871.48;  -64.980;  -69.890;    0.000; 4.91000
 871.73;  -68.520;  -75.060;    0.000; 6.54000
 871.97;  -72.260;  -77.380;    0.000; 5.12000
 872.22;  -70.530;  -80.500;    0.000; 9.97000
 872.46;  -62.270;  -68.790;    0.000; 6.52000
 872.71;  -82.070;  -83.910;    0.000; 1.84000
 872.95;  -59.670;  -67.870;    0.000; 8.20000
 873.20;  -61.660;  -72.490;    0.000;10.83000
 873.44;  -53.460;  -65.600;    0.000;12.14000
 873.69;  -64.620;  -86.780;    0.000;22.16000
 873.94;  -59.530;  -68.320;    0.000; 8.79000
 874.18;  -70.620;  -81.740;    0.000;11.12000
 874.43;  -67.990;  -78.500;    0.000;10.51000
 874.67;  -69.930;  -79.530;    0.000; 9.60000
 874.92;  -59.870;  -61.980;    0.000; 2.11000
 875.16;  -66.740;  -71.600;    0.000; 4.86000
 875.41;  -67.850;  -74.550;    0.000; 6.70000
 875.65;  -68.550;  -72.820;    0.000; 4.27000
 875.90;  -51.040;  -57.710;    0.000; 6.67000
 876.14;  -73.550;  -85.280;    0.000;11.73000
 876.39;  -61.260;  -68.330;    0.000; 7.07000
 876.63;  -65.050;  -80.430;    0.000;15.38000
 876.88;  -65.040;  -67.830;    0.000; 2.79000
 877.12;  -66.310;  -78.920;    0.000;12.61000
 877.36;  -66.400;  -70.470;    0.000; 4.07000
 877.61;  -73.100;  -72.490;    0.000;-0.61000
 877.85;  -63.990;  -67.300;    0.000; 3.31000
 878.10;  -63.660;  -68.070;    0.000; 4.41000
 878.34;  -56.320;  -65.220;    0.000; 8.90000
 878.59;  -67.020;  -74.140;    0.000; 7.12000
 878.83;  -71.470;  -77.480;    0.000; 6.01000
 879.08;  -56.780;  -71.810;    0.000;15.03000
 879.32;  -72.870;  -75.140;    0.000; 2.27000
 879.57;  -44.030;  -61.580;    0.000;17.55000
 879.81;  -67.710;  -78.450;    0.000;10.74000
 880.05;  -61.770;  -62.330;    0.000; 0.56000
 880.30;  -61.010;  -69.030;    0.000; 8.02000
 880.54;  -61.200;  -74.620;    0.000;13.42000
 880.79;  -69.980;  -74.890;    0.000; 4.91000
 881.03;  -58.790;  -76.740;    0.000;17.95000
 881.28;  -50.600;  -61.820;    0.000;11.22000
 881.52;  -73.610;  -78.630;    0.000; 5.02000
 881.76;  -64.490;  -63.620;    0.000;-0.87000
 882.01;  -66.600;  -70.160;    0.000; 3.56001
 882.25;  -65.970;  -70.020;    0.000; 4.05000
 882.50;  -68.820;  -76.690;    0.000; 7.87000
 882.74;  -62.070;  -58.310;    0.000;-3.76000
 882.98;  -68.010;  -71.460;    0.000; 3.45000
 883.23;  -64.440;  -72.830;    0.000; 8.39000
 883.47;  -59.590;  -64.540;    0.000; 4.95000
 883.72;  -59.880;  -63.640;    0.000; 3.76000
 883.96;  -59.940;  -69.160;    0.000; 9.22001
 884.20;  -61.890;  -72.280;    0.000;10.39000
 884.45;  -50.330;  -69.830;    0.000;19.50000
 884.69;  -50.030;  -54.450;    0.000; 4.42000
 884.94;  -46.970;  -57.560;    0.000;10.59000
 885.18;  -66.530;  -68.170;    0.000; 1.64000
 885.42;  -62.050;  -70.470;    0.000; 8.42000
 885.67;  -61.140;  -65.500;    0.000; 4.36000
 885.91;  -63.560;  -76.290;    0.000;12.73000
 886.15;  -62.270;  -70.610;    0.000; 8.34000
 886.40;  -60.190;  -66.170;    0.000; 5.98000
 886.64;  -64.240;  -68.810;    0.000; 4.57000
 886.88;  -69.960;  -75.520;    0.000; 5.56000
 887.13;  -56.420;  -61.410;    0.000; 4.99000
 887.37;  -62.430;  -76.880;    0.000;14.45000
 887.62;  -43.720;  -56.020;    0.000;12.30000
 887.86;  -56.800;  -70.890;    0.000;14.09000
 888.10;  -56.190;  -64.840;    0.000; 8.65000
 888.35;  -56.550;  -61.600;    0.000; 5.05000
 888.59;  -64.640;  -64.870;    0.000; 0.23000
 888.83;  -58.410;  -68.950;    0.000;10.54000
 889.07;  -56.010;  -59.470;    0.000; 3.46000
 889.32;  -48.890;  -70.170;    0.000;21.28000
 889.56;  -59.500;  -62.350;    0.000; 2.85000
 889.80;  -53.860;  -60.710;    0.000; 6.85000
 890.05;  -57.730;  -57.640;    0.000;-0.09000
 890.29;  -67.870;  -66.700;    0.000;-1.17001
 890.53;  -50.700;  -66.790;    0.000;16.09000
 890.78;  -53.790;  -62.500;    0.000; 8.71000
 891.02;  -53.570;  -56.430;    0.000; 2.86000
 891.26;  -57.960;  -68.100;    0.000;10.14000
 891.51;  -58.120;  -54.610;    0.000;-3.51000
 891.75;  -52.760;  -53.430;    0.000; 0.67000
 891.99;  -57.540;  -66.610;    0.000; 9.07000
 892.23;  -63.520;  -69.110;    0.000; 5.59000
 892.48;  -41.770;  -50.770;    0.000; 9.00000
 892.72;  -49.420;  -55.570;    0.000; 6.15000
 892.96;  -51.640;  -53.150;    0.000; 1.51000
 893.20;  -58.490;  -64.400;    0.000; 5.91000
 893.45;  -57.280;  -60.030;    0.000; 2.75000
 893.69;  -52.080;  -62.920;    0.000;10.84000
 893.93;  -49.180;  -48.190;    0.000;-0.99000
 894.17;  -46.810;  -57.110;    0.000;10.30000
 894.42;  -46.120;  -58.560;    0.000;12.44000
 894.66;  -47.240;  -56.160;    0.000; 8.92000
 894.90;  -39.330;  -44.390;    0.000; 5.06000
 895.14;  -49.860;  -54.700;    0.000; 4.84000
 895.39;  -51.300;  -54.160;    0.000; 2.86000
 895.63;  -38.520;  -46.130;    0.000; 7.61000
 895.87;  -40.480;  -45.090;    0.000; 4.61000
 896.11;  -33.930;  -47.000;    0.000;13.07000
 896.36;  -29.000;  -40.580;    0.000;11.58000
 896.60;  -56.090;  -64.630;    0.000; 8.54000
 896.84;  -26.030;  -34.960;    0.000; 8.93000
 897.08;  -35.780;  -41.800;    0.000; 6.02000
 897.32;  -30.880;  -37.560;    0.000; 6.68000
 897.57;  -26.250;  -42.160;    0.000;15.91000
 897.81;  -38.790;  -39.390;    0.000; 0.60000
 898.05;  -29.490;  -41.300;    0.000;11.81000
 898.29;  -24.000;  -35.390;    0.000;11.39000
 898.53;  -30.350;  -37.290;    0.000; 6.94000
 898.78;  -19.020;  -33.330;    0.000;14.31000
 899.02;  -31.270;  -30.870;    0.000;-0.40000
 899.26;  -16.150;  -20.780;    0.000; 4.63000
 899.50;    1.840;  -10.960;    0.000;12.80000
 899.74;  -17.400;  -25.610;    0.000; 8.21000
 899.99;  -14.470;  -21.070;    0.000; 6.60000
 900.23;   -7.760;    2.230;    0.000;-9.99000
 900.47;  -12.950;  -20.220;    0.000; 7.27000
 900.71;   -2.440;   -2.550;    0.000; 0.11000
 900.95;    7.040;   -0.240;    0.000; 7.28000
 901.19;   13.200;   14.960;    0.000;-1.76000
 901.44;   24.460;    5.540;    0.000;18.92000
 901.68;   42.080;   31.200;    0.000;10.88000
 901.92;   40.300;   34.600;    0.000; 5.70000
 902.16;   53.840;   46.190;    0.000; 7.65000
 902.40;   54.890;   56.140;    0.000;-1.25000
 902.64;   84.570;   82.740;    0.000; 1.83000
 902.88;   95.730;   92.020;    0.000; 3.71001
 903.13;  113.850;  105.920;    0.000; 7.93000

