
Integration time [ms]:  10.000
Averaging Nr. [scans]: 100
Smoothing Nr. [pixels]: 0
Data measured with spectrometer [name]: 1307077U2
Wave   ;Sample   ;Dark     ;Reference;Scope Corrected for Dark
[nm]   ;[counts] ;[counts] ;[counts] 

 350.80;   15.940;    4.030;    0.000;11.91000
 351.10;    2.640;   -4.180;    0.000; 6.82000
 351.39;    1.670;    2.470;    0.000;-0.80000
 351.69;    2.060;   -5.160;    0.000; 7.22000
 351.99;    2.280;    6.180;    0.000;-3.90000
 352.28;   -3.750;  -10.540;    0.000; 6.79000
 352.58;    1.430;    5.710;    0.000;-4.28000
 352.88;    4.830;    5.210;    0.000;-0.38000
 353.17;    7.010;   14.010;    0.000;-7.00000
 353.47;    1.330;   -9.550;    0.000;10.88000
 353.76;    2.000;    8.350;    0.000;-6.35000
 354.06;    2.190;   -1.640;    0.000; 3.83000
 354.36;    4.930;    3.130;    0.000; 1.80000
 354.65;   13.100;    2.490;    0.000;10.61000
 354.95;   11.210;   -4.840;    0.000;16.05000
 355.24;    1.490;   -6.230;    0.000; 7.72000
 355.54;    1.240;    5.960;    0.000;-4.72000
 355.84;    3.520;   -2.430;    0.000; 5.95000
 356.13;   20.140;   14.640;    0.000; 5.50000
 356.43;   -4.980;  -16.650;    0.000;11.67000
 356.72;    2.520;   -2.860;    0.000; 5.38000
 357.02;    4.060;   -4.950;    0.000; 9.01000
 357.31;   15.550;   15.180;    0.000; 0.37000
 357.61;   14.900;    0.860;    0.000;14.04000
 357.91;   -1.580;   -0.030;    0.000;-1.55000
 358.20;    2.340;   -6.640;    0.000; 8.98000
 358.50;    4.860;   -1.800;    0.000; 6.66000
 358.79;    8.280;   -6.380;    0.000;14.66000
 359.09;    2.750;    7.630;    0.000;-4.88000
 359.38;    3.470;   -4.280;    0.000; 7.75000
 359.68;    0.900;   -3.990;    0.000; 4.89000
 359.98;    5.080;   -9.890;    0.000;14.97000
 360.27;    4.090;    3.120;    0.000; 0.97000
 360.57;   -5.860;   -9.860;    0.000; 4.00000
 360.86;   10.300;    4.120;    0.000; 6.18000
 361.16;   -1.900;   -9.770;    0.000; 7.87000
 361.45;    5.220;   -2.580;    0.000; 7.80000
 361.75;   -2.440;   -7.950;    0.000; 5.51000
 362.04;   29.160;   21.750;    0.000; 7.41000
 362.34;    8.790;  -10.000;    0.000;18.79000
 362.64;    0.990;    2.910;    0.000;-1.92000
 362.93;    0.340;   -9.640;    0.000; 9.98000
 363.23;   -4.380;   -0.950;    0.000;-3.43000
 363.52;   -6.900;   -9.960;    0.000; 3.06000
 363.82;   13.450;   -1.210;    0.000;14.66000
 364.11;    4.380;   -0.330;    0.000; 4.71000
 364.41;   -1.300;   -7.080;    0.000; 5.78000
 364.70;   -4.390;   -9.350;    0.000; 4.96000
 365.00;   10.640;    2.780;    0.000; 7.86000
 365.29;   -3.360;   -8.860;    0.000; 5.50000
 365.59;    3.570;   -0.230;    0.000; 3.80000
 365.88;   -0.510;  -13.770;    0.000;13.26000
 366.18;    6.700;   -0.050;    0.000; 6.75000
 366.47;   -0.750;   -8.130;    0.000; 7.38000
 366.77;    6.160;    1.200;    0.000; 4.96000
 367.06;    6.300;   -5.020;    0.000;11.32000
 367.36;    5.440;    8.050;    0.000;-2.61000
 367.65;    3.430;   -3.440;    0.000; 6.87000
 367.95;    4.520;   -3.460;    0.000; 7.98000
 368.24;    6.580;   -6.160;    0.000;12.74000
 368.54;   -3.080;   -1.860;    0.000;-1.22000
 368.83;   11.410;    4.430;    0.000; 6.98000
 369.13;   10.430;    3.080;    0.000; 7.35000
 369.42;    6.000;   -7.200;    0.000;13.20000
 369.72;    1.290;    1.890;    0.000;-0.60000
 370.01;    0.250;   -8.200;    0.000; 8.45000
 370.31;   11.210;    5.490;    0.000; 5.72000
 370.60;   16.220;    5.190;    0.000;11.03000
 370.90;    5.120;    2.280;    0.000; 2.84000
 371.19;   -6.440;  -14.890;    0.000; 8.45000
 371.49;   -2.220;   -5.010;    0.000; 2.79000
 371.78;   -2.920;  -15.390;    0.000;12.47000
 372.08;    9.240;   -0.720;    0.000; 9.96000
 372.37;   -0.370;   -7.980;    0.000; 7.61000
 372.67;   14.020;    7.150;    0.000; 6.87000
 372.96;   -0.540;   -8.630;    0.000; 8.09000
 373.26;    2.830;   -6.050;    0.000; 8.88000
 373.55;   -1.680;  -10.400;    0.000; 8.72000
 373.85;    1.170;   -8.440;    0.000; 9.61000
 374.14;    3.770;   -7.130;    0.000;10.90000
 374.43;   -1.700;    6.000;    0.000;-7.70000
 374.73;    4.680;   -8.200;    0.000;12.88000
 375.02;    8.050;    6.040;    0.000; 2.01000
 375.32;   -7.070;   -8.280;    0.000; 1.21000
 375.61;    1.350;   -4.320;    0.000; 5.67000
 375.91;   -3.060;  -10.610;    0.000; 7.55000
 376.20;   -6.760;  -11.900;    0.000; 5.14000
 376.50;    0.320;   -8.930;    0.000; 9.25000
 376.79;   -3.950;  -11.570;    0.000; 7.62000
 377.08;   -3.450;  -17.270;    0.000;13.82000
 377.38;   -1.910;    3.140;    0.000;-5.05000
 377.67;    5.310;   -4.850;    0.000;10.16000
 377.97;  -12.480;   -6.580;    0.000;-5.90000
 378.26;    3.240;  -11.160;    0.000;14.40000
 378.56;   -4.760;  -10.070;    0.000; 5.31000
 378.85;    7.310;   -2.180;    0.000; 9.49000
 379.14;   -3.480;   -4.480;    0.000; 1.00000
 379.44;   -4.160;  -12.520;    0.000; 8.36000
 379.73;    2.460;   -1.390;    0.000; 3.85000
 380.03;    0.400;    1.420;    0.000;-1.02000
 380.32;   -2.330;   -7.470;    0.000; 5.14000
 380.62;   -3.120;  -18.470;    0.000;15.35000
 380.91;    4.400;    0.800;    0.000; 3.60000
 381.20;   -4.510;  -15.290;    0.000;10.78000
 381.50;   -6.040;   -1.950;    0.000;-4.09000
 381.79;  -11.770;  -15.050;    0.000; 3.28000
 382.09;    5.910;    1.220;    0.000; 4.69000
 382.38;   -3.670;   -8.980;    0.000; 5.31000
 382.67;    2.230;   -6.760;    0.000; 8.99000
 382.97;    0.150;   -7.720;    0.000; 7.87000
 383.26;    2.730;    1.020;    0.000; 1.71000
 383.56;    2.030;  -10.020;    0.000;12.05000
 383.85;    2.190;   -6.070;    0.000; 8.26000
 384.14;   -2.740;  -14.150;    0.000;11.41000
 384.44;   -3.610;   -0.890;    0.000;-2.72000
 384.73;   -3.010;   -7.150;    0.000; 4.14000
 385.02;    5.730;   -2.920;    0.000; 8.65000
 385.32;   -5.090;   -3.830;    0.000;-1.26000
 385.61;   -7.000;  -13.580;    0.000; 6.58000
 385.91;    4.860;   -9.020;    0.000;13.88000
 386.20;   -3.370;  -14.970;    0.000;11.60000
 386.49;   -9.060;  -15.310;    0.000; 6.25000
 386.79;    4.230;   -6.270;    0.000;10.50000
 387.08;   -0.860;  -10.690;    0.000; 9.83000
 387.37;   -0.380;   -4.540;    0.000; 4.16000
 387.67;    1.860;  -13.490;    0.000;15.35000
 387.96;   -3.060;   -7.140;    0.000; 4.08000
 388.25;    0.110;  -13.000;    0.000;13.11000
 388.55;   -0.060;  -11.590;    0.000;11.53000
 388.84;  -12.450;  -13.480;    0.000; 1.03000
 389.14;    4.020;   -4.870;    0.000; 8.89000
 389.43;   -1.020;   -7.270;    0.000; 6.25000
 389.72;   -2.840;   -3.600;    0.000; 0.76000
 390.02;   -7.360;  -15.150;    0.000; 7.79000
 390.31;   -0.740;   -3.970;    0.000; 3.23000
 390.60;   -2.750;   -9.800;    0.000; 7.05000
 390.90;   -7.120;   -1.730;    0.000;-5.39000
 391.19;   -7.400;  -13.590;    0.000; 6.19000
 391.48;    3.530;   -4.990;    0.000; 8.52000
 391.78;   -0.380;   -6.390;    0.000; 6.01000
 392.07;   43.610;   36.750;    0.000; 6.86000
 392.36;   11.930;  -11.230;    0.000;23.16000
 392.66;   -2.060;   -8.300;    0.000; 6.24000
 392.95;    0.000;  -19.820;    0.000;19.82000
 393.24;   -7.790;  -11.730;    0.000; 3.94000
 393.53;   -1.810;  -15.730;    0.000;13.92000
 393.83;  -12.440;  -10.950;    0.000;-1.49000
 394.12;   -5.810;  -16.390;    0.000;10.58000
 394.41;   -3.300;   -7.450;    0.000; 4.15000
 394.71;   -0.950;  -12.950;    0.000;12.00000
 395.00;   -0.800;   -7.620;    0.000; 6.82000
 395.29;   -3.530;   -8.310;    0.000; 4.78000
 395.59;   -0.850;  -13.230;    0.000;12.38000
 395.88;   -6.360;   -9.550;    0.000; 3.19000
 396.17;  -11.990;  -10.600;    0.000;-1.39000
 396.46;   -1.560;   -2.150;    0.000; 0.59000
 396.76;   -4.400;   -5.400;    0.000; 1.00000
 397.05;   20.230;    1.250;    0.000;18.98000
 397.34;   -2.160;  -12.160;    0.000;10.00000
 397.64;   -8.280;  -11.990;    0.000; 3.71000
 397.93;   -7.200;  -10.290;    0.000; 3.09000
 398.22;   -2.080;  -20.930;    0.000;18.85000
 398.51;   -3.630;   -7.580;    0.000; 3.95000
 398.81;  -11.380;  -17.770;    0.000; 6.39000
 399.10;   -5.760;   -1.830;    0.000;-3.93000
 399.39;   -5.050;  -18.860;    0.000;13.81000
 399.69;    2.360;   -9.380;    0.000;11.74000
 399.98;   -1.930;  -11.540;    0.000; 9.61000
 400.27;   -3.620;  -15.330;    0.000;11.71000
 400.56;  -10.900;  -12.910;    0.000; 2.01000
 400.86;   -4.250;  -10.400;    0.000; 6.15000
 401.15;    2.830;   -6.510;    0.000; 9.34000
 401.44;    2.210;  -10.610;    0.000;12.82000
 401.73;    2.230;   -7.690;    0.000; 9.92000
 402.03;    3.620;   -4.040;    0.000; 7.66000
 402.32;   -9.060;  -19.160;    0.000;10.10000
 402.61;   -3.160;   -1.730;    0.000;-1.43000
 402.90;   -8.010;  -16.990;    0.000; 8.98000
 403.20;   -3.820;   -2.910;    0.000;-0.91000
 403.49;    8.540;   -9.760;    0.000;18.30000
 403.78;    2.260;  -11.610;    0.000;13.87000
 404.07;  -10.480;  -22.560;    0.000;12.08000
 404.37;    0.530;  -12.400;    0.000;12.93000
 404.66;   -4.580;  -17.920;    0.000;13.34000
 404.95;    6.350;   -3.130;    0.000; 9.48000
 405.24;   -7.900;  -14.390;    0.000; 6.49000
 405.53;   -4.920;   -6.780;    0.000; 1.86000
 405.83;    0.240;  -12.330;    0.000;12.57000
 406.12;   -3.860;  -19.690;    0.000;15.83000
 406.41;    4.430;   -3.820;    0.000; 8.25000
 406.70;   -7.150;   -6.390;    0.000;-0.76000
 407.00;    0.900;  -17.760;    0.000;18.66000
 407.29;   -1.560;   -5.640;    0.000; 4.08000
 407.58;   -9.970;  -18.150;    0.000; 8.18000
 407.87;   -5.870;  -10.380;    0.000; 4.51000
 408.16;  -11.400;  -17.260;    0.000; 5.86000
 408.46;   -7.510;  -12.130;    0.000; 4.62000
 408.75;   -6.870;  -15.780;    0.000; 8.91000
 409.04;    5.910;   -1.600;    0.000; 7.51000
 409.33;   -0.970;  -13.340;    0.000;12.37000
 409.62;    3.060;   -2.450;    0.000; 5.51000
 409.92;   -2.140;   -6.880;    0.000; 4.74000
 410.21;   -1.510;  -15.900;    0.000;14.39000
 410.50;  -14.460;  -20.780;    0.000; 6.32000
 410.79;    2.110;   -5.100;    0.000; 7.21000
 411.08;   -5.780;  -13.180;    0.000; 7.40000
 411.37;    1.810;   -8.590;    0.000;10.40000
 411.67;   -4.250;  -14.900;    0.000;10.65000
 411.96;   -6.700;  -12.600;    0.000; 5.90000
 412.25;   -7.730;  -17.930;    0.000;10.20000
 412.54;   -4.260;  -12.620;    0.000; 8.36000
 412.83;   -4.850;  -16.690;    0.000;11.84000
 413.13;   -5.270;   -9.100;    0.000; 3.83000
 413.42;   -9.560;  -21.200;    0.000;11.64000
 413.71;   -1.830;   -1.600;    0.000;-0.23000
 414.00;   -7.540;  -26.150;    0.000;18.61000
 414.29;    2.730;   -3.360;    0.000; 6.09000
 414.58;   -7.960;  -19.610;    0.000;11.65000
 414.87;    0.960;  -12.000;    0.000;12.96000
 415.17;   -9.360;  -17.230;    0.000; 7.87000
 415.46;   -1.090;   -8.680;    0.000; 7.59000
 415.75;    0.300;   -6.700;    0.000; 7.00000
 416.04;    8.730;  -10.910;    0.000;19.64000
 416.33;   -5.510;  -11.250;    0.000; 5.74000
 416.62;   -7.780;  -15.020;    0.000; 7.24000
 416.91;   -9.880;  -12.540;    0.000; 2.66000
 417.21;   -7.630;  -13.820;    0.000; 6.19000
 417.50;   -9.730;  -22.670;    0.000;12.94000
 417.79;   -0.590;  -14.150;    0.000;13.56000
 418.08;   -3.820;  -22.610;    0.000;18.79000
 418.37;   -1.460;   -8.440;    0.000; 6.98000
 418.66;   -7.460;  -12.690;    0.000; 5.23000
 418.95;   11.610;   -4.060;    0.000;15.67000
 419.24;   -8.770;  -16.540;    0.000; 7.77000
 419.54;   -1.640;   -4.710;    0.000; 3.07000
 419.83;   -1.920;  -17.210;    0.000;15.29000
 420.12;   -6.020;   -9.330;    0.000; 3.31000
 420.41;    2.690;   -1.720;    0.000; 4.41000
 420.70;   -9.830;  -12.920;    0.000; 3.09000
 420.99;    3.990;  -13.160;    0.000;17.15000
 421.28;   -4.140;   -9.530;    0.000; 5.39000
 421.57;   -3.570;  -19.200;    0.000;15.63000
 421.86;    7.490;   -0.530;    0.000; 8.02000
 422.16;   -5.600;  -11.590;    0.000; 5.99000
 422.45;   -3.250;  -15.740;    0.000;12.49000
 422.74;  -10.760;  -14.600;    0.000; 3.84000
 423.03;    4.300;   -1.000;    0.000; 5.30000
 423.32;   -7.590;  -19.120;    0.000;11.53000
 423.61;    6.060;   -1.410;    0.000; 7.47000
 423.90;    0.670;  -14.280;    0.000;14.95000
 424.19;   21.750;   17.330;    0.000; 4.42000
 424.48;   -2.830;  -13.500;    0.000;10.67000
 424.77;    4.150;   -7.810;    0.000;11.96000
 425.06;  -10.590;  -11.550;    0.000; 0.96000
 425.35;    9.490;   -2.890;    0.000;12.38000
 425.65;  -15.230;  -19.130;    0.000; 3.90000
 425.94;   -7.240;  -14.880;    0.000; 7.64000
 426.23;   -4.810;  -24.160;    0.000;19.35000
 426.52;  -10.610;  -15.130;    0.000; 4.52000
 426.81;    5.550;   -2.380;    0.000; 7.93000
 427.10;   -8.930;  -14.170;    0.000; 5.24000
 427.39;   -6.490;  -18.300;    0.000;11.81000
 427.68;    1.370;   -9.370;    0.000;10.74000
 427.97;    6.160;  -14.330;    0.000;20.49000
 428.26;  -10.740;  -19.050;    0.000; 8.31000
 428.55;    3.080;   -8.910;    0.000;11.99000
 428.84;   -0.140;   -4.380;    0.000; 4.24000
 429.13;   -2.510;  -14.120;    0.000;11.61000
 429.42;    0.500;   -1.830;    0.000; 2.33000
 429.71;   -6.840;  -11.710;    0.000; 4.87000
 430.00;    2.460;  -13.910;    0.000;16.37000
 430.29;  -13.950;  -25.330;    0.000;11.38000
 430.58;   -3.680;  -14.890;    0.000;11.21000
 430.87;   -3.290;  -16.420;    0.000;13.13000
 431.16;   -8.460;  -20.530;    0.000;12.07000
 431.46;   -7.440;  -12.910;    0.000; 5.47000
 431.75;  -12.640;  -19.130;    0.000; 6.49000
 432.04;    6.040;   -8.890;    0.000;14.93000
 432.33;  -11.130;  -20.210;    0.000; 9.08000
 432.62;    0.540;   -9.300;    0.000; 9.84000
 432.91;   -8.480;  -13.020;    0.000; 4.54000
 433.20;   -0.150;  -18.270;    0.000;18.12000
 433.49;   -5.240;  -14.130;    0.000; 8.89000
 433.78;  -15.960;  -23.820;    0.000; 7.86000
 434.07;   -6.620;  -16.610;    0.000; 9.99000
 434.36;  -10.490;  -16.950;    0.000; 6.46000
 434.65;  -11.970;  -27.030;    0.000;15.06000
 434.94;   -2.370;  -19.310;    0.000;16.94000
 435.23;    2.880;   -5.090;    0.000; 7.97000
 435.52;   -3.150;  -13.640;    0.000;10.49000
 435.81;   -2.740;   -6.560;    0.000; 3.82000
 436.10;    0.900;  -18.360;    0.000;19.26000
 436.39;    4.250;   -1.810;    0.000; 6.06000
 436.68;   -0.990;  -11.450;    0.000;10.46000
 436.97;  -14.940;  -11.940;    0.000;-3.00000
 437.26;  -10.710;  -15.160;    0.000; 4.45000
 437.55;   -0.850;   -9.340;    0.000; 8.49000
 437.83;  -10.580;  -24.130;    0.000;13.55000
 438.12;  -20.870;  -18.050;    0.000;-2.82000
 438.41;   -6.120;  -16.450;    0.000;10.33000
 438.70;   15.350;    5.100;    0.000;10.25000
 438.99;    1.420;   -6.560;    0.000; 7.98000
 439.28;   -1.380;  -16.310;    0.000;14.93000
 439.57;   -9.600;  -26.570;    0.000;16.97000
 439.86;   -9.320;  -22.850;    0.000;13.53000
 440.15;   -3.360;  -18.290;    0.000;14.93000
 440.44;   -0.370;  -10.400;    0.000;10.03000
 440.73;   -7.510;  -18.710;    0.000;11.20000
 441.02;  -12.010;  -12.870;    0.000; 0.86000
 441.31;   -3.310;  -12.510;    0.000; 9.20000
 441.60;    1.170;   -5.700;    0.000; 6.87000
 441.89;  -17.320;  -20.000;    0.000; 2.68000
 442.18;   -2.230;  -17.290;    0.000;15.06000
 442.47;   -8.960;  -23.560;    0.000;14.60000
 442.76;   -6.700;  -22.050;    0.000;15.35000
 443.05;   -0.850;  -10.700;    0.000; 9.85000
 443.34;   -9.480;  -15.160;    0.000; 5.68000
 443.63;   -8.600;  -23.400;    0.000;14.80000
 443.91;   -1.000;  -12.690;    0.000;11.69000
 444.20;   -7.200;  -20.000;    0.000;12.80000
 444.49;  -10.020;  -19.950;    0.000; 9.93000
 444.78;   -5.890;  -18.340;    0.000;12.45000
 445.07;    7.090;   -5.870;    0.000;12.96000
 445.36;  -15.950;  -26.980;    0.000;11.03000
 445.65;   -8.420;  -13.340;    0.000; 4.92000
 445.94;   -1.430;  -18.160;    0.000;16.73000
 446.23;    0.060;  -10.830;    0.000;10.89000
 446.52;    3.800;  -19.630;    0.000;23.43000
 446.81;    0.570;   -3.250;    0.000; 3.82000
 447.10;   -6.230;  -16.850;    0.000;10.62000
 447.38;   -6.090;   -9.000;    0.000; 2.91000
 447.67;   -2.920;  -16.460;    0.000;13.54000
 447.96;  -10.680;  -15.930;    0.000; 5.25000
 448.25;    1.050;  -11.520;    0.000;12.57000
 448.54;   -8.480;  -14.940;    0.000; 6.46000
 448.83;  -10.650;  -23.010;    0.000;12.36000
 449.12;   -7.520;  -12.830;    0.000; 5.31000
 449.41;   -2.720;  -21.820;    0.000;19.10000
 449.70;   -5.980;  -15.120;    0.000; 9.14000
 449.98;  -16.860;  -24.820;    0.000; 7.96000
 450.27;    4.070;  -10.730;    0.000;14.80000
 450.56;  -10.940;  -32.070;    0.000;21.13000
 450.85;   -2.740;  -17.010;    0.000;14.27000
 451.14;  -10.810;  -19.960;    0.000; 9.15000
 451.43;   -7.930;  -22.330;    0.000;14.40000
 451.72;  -10.170;  -25.220;    0.000;15.05000
 452.01;    7.110;   -8.480;    0.000;15.59000
 452.29;   -9.580;  -25.040;    0.000;15.46000
 452.58;  -10.190;  -19.810;    0.000; 9.62000
 452.87;   -7.020;  -25.340;    0.000;18.32000
 453.16;   -6.940;  -19.590;    0.000;12.65000
 453.45;   -6.790;  -18.650;    0.000;11.86000
 453.74;   -1.630;  -12.950;    0.000;11.32000
 454.03;   -7.110;  -24.100;    0.000;16.99000
 454.31;   -8.390;  -16.240;    0.000; 7.85000
 454.60;  -10.820;  -19.330;    0.000; 8.51000
 454.89;    8.900;  -11.120;    0.000;20.02000
 455.18;   -8.530;  -27.130;    0.000;18.60000
 455.47;  -16.650;  -21.170;    0.000; 4.52000
 455.76;   -4.060;  -24.610;    0.000;20.55000
 456.04;   -8.450;  -11.030;    0.000; 2.58000
 456.33;   -3.760;  -18.760;    0.000;15.00000
 456.62;   -7.350;  -19.610;    0.000;12.26000
 456.91;  -18.380;  -28.380;    0.000;10.00000
 457.20;    1.620;   -5.630;    0.000; 7.25000
 457.49;  -10.340;  -27.200;    0.000;16.86000
 457.77;  -12.710;  -17.300;    0.000; 4.59000
 458.06;   -9.070;  -18.500;    0.000; 9.43000
 458.35;   -9.380;  -17.400;    0.000; 8.02000
 458.64;  -10.550;  -24.560;    0.000;14.01000
 458.93;   -6.760;  -18.030;    0.000;11.27000
 459.21;   -8.250;  -24.490;    0.000;16.24000
 459.50;  -10.300;  -10.930;    0.000; 0.63000
 459.79;  -11.520;  -29.690;    0.000;18.17000
 460.08;   -6.930;  -20.110;    0.000;13.18000
 460.37;   -4.090;  -20.120;    0.000;16.03000
 460.65;   -2.920;  -13.690;    0.000;10.77000
 460.94;   -9.070;  -23.190;    0.000;14.12000
 461.23;   -4.470;  -21.260;    0.000;16.79000
 461.52;    6.400;   -7.100;    0.000;13.50000
 461.81;   -5.190;  -22.900;    0.000;17.71000
 462.09;   -6.980;  -18.640;    0.000;11.66000
 462.38;  -14.280;  -21.600;    0.000; 7.32000
 462.67;  -14.630;  -27.600;    0.000;12.97000
 462.96;   -9.290;  -18.400;    0.000; 9.11000
 463.24;  -12.350;  -21.500;    0.000; 9.15000
 463.53;   -1.840;  -11.730;    0.000; 9.89000
 463.82;  -10.570;  -24.760;    0.000;14.19000
 464.11;   -5.730;  -21.340;    0.000;15.61000
 464.40;  -10.710;  -28.780;    0.000;18.07000
 464.68;  -12.980;  -25.400;    0.000;12.42000
 464.97;   -4.080;  -22.490;    0.000;18.41000
 465.26;   -4.810;  -12.310;    0.000; 7.50000
 465.55;   -7.590;  -25.340;    0.000;17.75000
 465.83;   -1.650;  -16.630;    0.000;14.98000
 466.12;  -17.040;  -27.950;    0.000;10.91000
 466.41;   -1.080;  -13.760;    0.000;12.68000
 466.70;   -8.750;  -27.320;    0.000;18.57000
 466.98;   -7.100;  -19.100;    0.000;12.00000
 467.27;   -2.540;  -15.890;    0.000;13.35000
 467.56;    0.560;   -3.140;    0.000; 3.70000
 467.85;   -2.320;  -21.160;    0.000;18.84000
 468.13;   -0.900;  -10.210;    0.000; 9.31000
 468.42;   -3.750;  -21.810;    0.000;18.06000
 468.71;   -3.800;  -21.960;    0.000;18.16000
 468.99;   -1.440;  -23.670;    0.000;22.23000
 469.28;   -9.770;  -23.740;    0.000;13.97000
 469.57;   -8.770;  -24.310;    0.000;15.54000
 469.86;   -1.890;  -17.130;    0.000;15.24000
 470.14;   -4.440;  -27.390;    0.000;22.95000
 470.43;   16.420;   -3.080;    0.000;19.50000
 470.72;  -10.310;  -30.520;    0.000;20.21000
 471.00;   -7.730;  -27.340;    0.000;19.61000
 471.29;   10.310;  -16.820;    0.000;27.13000
 471.58;   12.480;   -1.770;    0.000;14.25000
 471.87;   -1.870;  -23.530;    0.000;21.66000
 472.15;    1.890;  -20.140;    0.000;22.03000
 472.44;   16.750;  -10.790;    0.000;27.54000
 472.73;   -1.510;  -24.380;    0.000;22.87000
 473.01;    2.020;  -31.480;    0.000;33.50000
 473.30;    3.040;  -18.050;    0.000;21.09000
 473.59;    8.640;  -21.600;    0.000;30.24000
 473.87;    9.210;  -20.000;    0.000;29.21000
 474.16;   -0.640;  -31.170;    0.000;30.53000
 474.45;   12.600;  -20.640;    0.000;33.24000
 474.74;    7.250;  -32.260;    0.000;39.51000
 475.02;   20.180;  -12.660;    0.000;32.84000
 475.31;   17.860;  -19.370;    0.000;37.23000
 475.60;   28.760;  -16.310;    0.000;45.07000
 475.88;   24.510;  -28.060;    0.000;52.57000
 476.17;   44.650;   -7.100;    0.000;51.75000
 476.46;   28.190;  -25.100;    0.000;53.29000
 476.74;   38.970;  -16.590;    0.000;55.56000
 477.03;   31.400;  -32.260;    0.000;63.66000
 477.32;   52.990;   -9.990;    0.000;62.98000
 477.60;   55.430;  -25.170;    0.000;80.60000
 477.89;   59.310;  -14.410;    0.000;73.72000
 478.18;   65.060;  -24.840;    0.000;89.90000
 478.46;   77.900;  -12.980;    0.000;90.88000
 478.75;   74.910;  -26.450;    0.000;101.36000
 479.03;   84.100;  -18.610;    0.000;102.71000
 479.32;   95.890;  -18.010;    0.000;113.90000
 479.61;   98.130;  -17.740;    0.000;115.87000
 479.89;  113.910;  -32.470;    0.000;146.38000
 480.18;  118.090;  -19.180;    0.000;137.27000
 480.47;  129.180;  -19.530;    0.000;148.70999
 480.75;  146.140;  -21.460;    0.000;167.60000
 481.04;  160.480;  -21.890;    0.000;182.37000
 481.33;  175.800;  -19.190;    0.000;194.99000
 481.61;  176.900;  -26.000;    0.000;202.89999
 481.90;  188.690;  -24.330;    0.000;213.02000
 482.18;  222.510;  -12.870;    0.000;235.37999
 482.47;  236.230;   -9.230;    0.000;245.46000
 482.76;  242.690;  -27.380;    0.000;270.07000
 483.04;  264.180;  -19.970;    0.000;284.14999
 483.33;  278.870;  -36.330;    0.000;315.20000
 483.61;  299.660;  -21.150;    0.000;320.81000
 483.90;  326.740;  -27.790;    0.000;354.52999
 484.19;  336.250;  -28.550;    0.000;364.80000
 484.47;  367.630;  -29.920;    0.000;397.55000
 484.76;  385.410;  -26.270;    0.000;411.68000
 485.05;  413.320;  -21.290;    0.000;434.61001
 485.33;  441.760;  -21.790;    0.000;463.55001
 485.62;  448.670;  -30.440;    0.000;479.11001
 485.90;  498.900;  -21.610;    0.000;520.50999
 486.19;  522.210;  -28.210;    0.000;550.42002
 486.47;  564.520;   -4.970;    0.000;569.49002
 486.76;  576.930;  -33.520;    0.000;610.44999
 487.05;  623.970;  -17.370;    0.000;641.33997
 487.33;  657.990;  -27.740;    0.000;685.72999
 487.62;  678.520;  -25.220;    0.000;703.74002
 487.90;  728.620;  -24.810;    0.000;753.42999
 488.19;  772.830;  -10.100;    0.000;782.93002
 488.47;  797.550;  -22.810;    0.000;820.35999
 488.76;  833.590;  -18.670;    0.000;852.26003
 489.05;  893.660;  -15.140;    0.000;908.79997
 489.33;  931.630;  -21.140;    0.000;952.77000
 489.62;  959.560;  -24.230;    0.000;983.79000
 489.90;  992.210;  -27.030;    0.000;1019.24002
 490.19; 1057.100;  -30.750;    0.000;1087.84998
 490.47; 1099.520;  -22.180;    0.000;1121.70002
 490.76; 1140.350;  -22.340;    0.000;1162.68998
 491.05; 1180.350;  -12.260;    0.000;1192.60998
 491.33; 1239.370;  -22.510;    0.000;1261.88000
 491.62; 1277.110;  -21.570;    0.000;1298.67999
 491.90; 1349.140;  -26.480;    0.000;1375.62001
 492.19; 1381.280;  -26.160;    0.000;1407.44003
 492.47; 1434.910;  -30.670;    0.000;1465.58003
 492.76; 1500.470;  -23.690;    0.000;1524.15997
 493.04; 1559.390;  -20.900;    0.000;1580.29001
 493.33; 1597.980;  -27.540;    0.000;1625.51998
 493.61; 1656.570;  -29.360;    0.000;1685.92995
 493.90; 1731.050;  -15.540;    0.000;1746.59005
 494.18; 1791.010;  -20.750;    0.000;1811.76001
 494.47; 1839.480;  -30.060;    0.000;1869.53998
 494.75; 1901.390;  -29.080;    0.000;1930.47001
 495.04; 1970.710;  -18.440;    0.000;1989.14996
 495.32; 2013.310;  -33.110;    0.000;2046.42006
 495.61; 2089.380;  -28.570;    0.000;2117.94988
 495.89; 2128.470;  -37.530;    0.000;2165.99997
 496.18; 2191.070;  -23.250;    0.000;2214.32007
 496.46; 2254.310;  -23.180;    0.000;2277.49006
 496.75; 2330.880;  -21.450;    0.000;2352.32988
 497.03; 2399.560;  -28.260;    0.000;2427.82006
 497.32; 2475.790;  -24.590;    0.000;2500.38004
 497.60; 2500.970;  -31.160;    0.000;2532.12997
 497.89; 2592.140;  -20.470;    0.000;2612.60989
 498.17; 2663.990;  -31.270;    0.000;2695.25999
 498.46; 2733.490;  -22.930;    0.000;2756.41999
 498.74; 2792.200;  -23.650;    0.000;2815.84995
 499.03; 2854.830;  -20.030;    0.000;2874.86008
 499.31; 2932.150;  -31.270;    0.000;2963.41990
 499.60; 2988.390;  -18.610;    0.000;3006.99989
 499.88; 3066.960;  -10.980;    0.000;3077.93996
 500.17; 3139.440;  -24.320;    0.000;3163.75994
 500.45; 3197.430;  -35.700;    0.000;3233.12993
 500.74; 3277.790;  -22.620;    0.000;3300.41004
 501.02; 3349.080;  -33.630;    0.000;3382.71008
 501.31; 3391.340;  -17.610;    0.000;3408.95009
 501.59; 3468.370;  -29.560;    0.000;3497.93012
 501.88; 3552.410;  -13.950;    0.000;3566.35991
 502.16; 3607.580;  -34.760;    0.000;3642.34008
 502.45; 3672.020;  -16.300;    0.000;3688.32002
 502.73; 3750.330;  -30.760;    0.000;3781.09008
 503.01; 3823.590;  -24.340;    0.000;3847.93009
 503.30; 3903.350;  -37.940;    0.000;3941.29010
 503.58; 3970.780;  -23.090;    0.000;3993.87003
 503.87; 4033.330;  -21.060;    0.000;4054.39008
 504.15; 4077.680;  -30.190;    0.000;4107.86993
 504.44; 4151.240;  -27.590;    0.000;4178.83023
 504.72; 4249.680;  -10.570;    0.000;4260.25018
 505.00; 4308.840;  -34.250;    0.000;4343.08984
 505.29; 4346.400;   -9.520;    0.000;4355.91990
 505.57; 4411.580;  -29.130;    0.000;4440.71008
 505.86; 4481.430;  -27.820;    0.000;4509.25018
 506.14; 4565.910;  -35.780;    0.000;4601.69016
 506.43; 4644.870;  -12.910;    0.000;4657.78012
 506.71; 4676.180;  -34.180;    0.000;4710.36018
 506.99; 4748.610;  -30.960;    0.000;4779.56986
 507.28; 4824.360;  -19.100;    0.000;4843.45986
 507.56; 4881.490;  -24.830;    0.000;4906.32023
 507.85; 4975.320;  -37.590;    0.000;5012.90982
 508.13; 5007.610;  -19.100;    0.000;5026.70986
 508.41; 5083.780;  -12.480;    0.000;5096.25978
 508.70; 5153.450;  -25.360;    0.000;5178.81020
 508.98; 5219.780;  -28.380;    0.000;5248.15978
 509.27; 5301.870;  -20.760;    0.000;5322.63012
 509.55; 5335.670;  -24.450;    0.000;5360.11992
 509.83; 5382.850;  -25.210;    0.000;5408.06010
 510.12; 5453.060;  -32.590;    0.000;5485.65006
 510.40; 5547.150;  -21.830;    0.000;5568.97990
 510.69; 5574.320;  -24.150;    0.000;5598.46982
 510.97; 5672.950;  -16.710;    0.000;5689.66019
 511.25; 5720.100;  -35.350;    0.000;5755.45010
 511.54; 5756.140;  -25.090;    0.000;5781.23014
 511.82; 5823.000;  -17.590;    0.000;5840.59000
 512.11; 5884.250;  -22.350;    0.000;5906.60000
 512.39; 5942.890;  -32.070;    0.000;5974.96014
 512.67; 6042.990;  -25.880;    0.000;6068.87023
 512.96; 6085.170;  -28.850;    0.000;6114.01992
 513.24; 6133.860;  -17.400;    0.000;6151.25986
 513.52; 6192.990;  -26.700;    0.000;6219.69024
 513.81; 6201.830;  -12.470;    0.000;6214.30008
 514.09; 6250.310;  -39.120;    0.000;6289.43006
 514.37; 6297.210;  -27.600;    0.000;6324.80996
 514.66; 6343.870;  -17.040;    0.000;6360.91012
 514.94; 6430.950;  -21.390;    0.000;6452.34019
 515.22; 6507.290;  -27.790;    0.000;6535.08004
 515.51; 6529.950;  -29.040;    0.000;6558.99020
 515.79; 6600.280;  -28.800;    0.000;6629.07978
 516.07; 6685.970;  -17.270;    0.000;6703.24022
 516.36; 6715.990;  -41.720;    0.000;6757.71024
 516.64; 6788.440;  -19.320;    0.000;6807.75994
 516.92; 6846.290;  -31.610;    0.000;6877.90004
 517.21; 6886.470;  -33.320;    0.000;6919.79021
 517.49; 7014.090;  -31.350;    0.000;7045.43984
 517.77; 7056.460;  -19.740;    0.000;7076.19996
 518.06; 7132.170;  -30.270;    0.000;7162.43992
 518.34; 7170.550;  -12.260;    0.000;7182.80980
 518.62; 7245.950;  -21.610;    0.000;7267.56020
 518.91; 7300.150;  -12.930;    0.000;7313.07990
 519.19; 7316.600;  -34.590;    0.000;7351.19010
 519.47; 7423.530;  -20.490;    0.000;7444.01978
 519.76; 7478.060;  -21.550;    0.000;7499.61006
 520.04; 7472.580;  -14.340;    0.000;7486.92008
 520.32; 7547.070;  -23.830;    0.000;7570.89982
 520.61; 7640.600;   -5.440;    0.000;7646.04010
 520.89; 7628.320;  -37.640;    0.000;7665.95982
 521.17; 7725.480;  -26.850;    0.000;7752.32998
 521.45; 7728.380;  -23.640;    0.000;7752.01988
 521.74; 7806.380;  -17.740;    0.000;7824.11988
 522.02; 7843.090;  -26.720;    0.000;7869.80984
 522.30; 7909.820;  -14.940;    0.000;7924.75982
 522.59; 7969.880;  -21.350;    0.000;7991.22988
 522.87; 7975.020;  -32.120;    0.000;8007.14002
 523.15; 8057.860;  -18.770;    0.000;8076.62986
 523.43; 8087.160;  -28.200;    0.000;8115.36016
 523.72; 8130.910;  -31.700;    0.000;8162.61016
 524.00; 8221.270;  -22.390;    0.000;8243.65953
 524.28; 8246.340;  -27.040;    0.000;8273.37984
 524.57; 8288.400;  -20.090;    0.000;8308.49039
 524.85; 8336.370;  -34.840;    0.000;8371.21012
 525.13; 8428.280;  -17.120;    0.000;8445.40027
 525.41; 8426.610;  -19.600;    0.000;8446.21035
 525.70; 8508.980;  -20.520;    0.000;8529.50047
 525.98; 8568.870;  -37.750;    0.000;8606.62012
 526.26; 8600.700;  -23.650;    0.000;8624.35019
 526.54; 8611.540;  -26.170;    0.000;8637.71004
 526.83; 8680.380;  -28.490;    0.000;8708.86988
 527.11; 8740.800;  -27.630;    0.000;8768.42980
 527.39; 8797.490;  -17.980;    0.000;8815.47023
 527.67; 8823.900;  -25.250;    0.000;8849.15039
 527.96; 8831.860;  -18.240;    0.000;8850.10035
 528.24; 8903.010;  -32.040;    0.000;8935.04977
 528.52; 9007.100;  -22.060;    0.000;9029.15961
 528.80; 8991.400;  -16.360;    0.000;9007.76039
 529.08; 9044.330;  -24.400;    0.000;9068.73008
 529.37; 9107.820;  -29.260;    0.000;9137.08031
 529.65; 9138.920;  -13.830;    0.000;9152.74992
 529.93; 9218.610;  -22.430;    0.000;9241.04035
 530.21; 9249.270;  -21.460;    0.000;9270.72953
 530.50; 9302.080;  -30.250;    0.000;9332.33008
 530.78; 9315.310;  -14.630;    0.000;9329.93957
 531.06; 9376.180;  -20.080;    0.000;9396.25969
 531.34; 9397.500;  -25.820;    0.000;9423.32000
 531.62; 9456.330;  -31.660;    0.000;9487.99008
 531.91; 9472.090;  -15.940;    0.000;9488.02984
 532.19; 9542.110;  -25.720;    0.000;9567.83035
 532.47; 9546.970;  -18.110;    0.000;9565.07973
 532.75; 9605.360;  -21.440;    0.000;9626.80035
 533.03; 9617.510;  -17.220;    0.000;9634.72976
 533.32; 9675.440;  -17.810;    0.000;9693.25043
 533.60; 9796.590;   -9.970;    0.000;9806.55984
 533.88; 9771.760;  -15.710;    0.000;9787.46977
 534.16; 9807.940;  -18.090;    0.000;9826.03043
 534.44; 9854.880;  -10.590;    0.000;9865.46988
 534.72; 9879.820;  -23.730;    0.000;9903.55031
 535.01; 9927.780;  -27.150;    0.000;9954.93027
 535.29; 9943.620;  -21.960;    0.000;9965.58012
 535.57; 9970.540;  -23.210;    0.000;9993.75004
 535.85; 9990.420;  -13.690;    0.000;10004.10992
 536.13;10070.140;  -28.500;    0.000;10098.63965
 536.42;10080.030;  -21.980;    0.000;10102.01027
 536.70;10117.540;  -24.950;    0.000;10142.49004
 536.98;10132.640;  -20.220;    0.000;10152.85965
 537.26;10204.630;  -29.690;    0.000;10234.31988
 537.54;10235.780;  -20.250;    0.000;10256.03027
 537.82;10271.000;  -25.520;    0.000;10296.52000
 538.10;10303.870;  -26.660;    0.000;10330.53012
 538.39;10349.970;  -21.750;    0.000;10371.71973
 538.67;10374.620;  -22.250;    0.000;10396.87012
 538.95;10387.130;  -30.330;    0.000;10417.45988
 539.23;10422.080;  -19.740;    0.000;10441.82008
 539.51;10461.930;  -23.770;    0.000;10485.69969
 539.79;10419.270;  -24.990;    0.000;10444.25953
 540.07;10492.630;  -36.040;    0.000;10528.66988
 540.36;10531.880;  -32.000;    0.000;10563.87988
 540.64;10547.570;  -27.990;    0.000;10575.56031
 540.92;10620.880;  -16.720;    0.000;10637.59988
 541.20;10635.840;  -22.670;    0.000;10658.50984
 541.48;10680.620;   -5.030;    0.000;10685.65012
 541.76;10703.420;  -30.870;    0.000;10734.28992
 542.04;10697.880;  -20.340;    0.000;10718.21988
 542.32;10755.140;  -29.390;    0.000;10784.52965
 542.61;10778.050;  -19.070;    0.000;10797.11980
 542.89;10826.820;  -13.970;    0.000;10840.79031
 543.17;10839.680;  -18.380;    0.000;10858.05969
 543.45;10853.940;  -27.300;    0.000;10881.24043
 543.73;10909.220;  -30.880;    0.000;10940.09973
 544.01;10903.360;  -28.330;    0.000;10931.69035
 544.29;10961.980;  -23.230;    0.000;10985.21047
 544.57;10951.410;  -30.670;    0.000;10982.08016
 544.85;10964.820;  -31.850;    0.000;10996.67031
 545.13;11017.060;  -29.720;    0.000;11046.77957
 545.42;10990.290;  -22.510;    0.000;11012.80004
 545.70;11027.230;  -25.810;    0.000;11053.04047
 545.98;11041.060;  -29.460;    0.000;11070.51957
 546.26;11075.670;  -23.710;    0.000;11099.37992
 546.54;11080.970;  -27.350;    0.000;11108.31973
 546.82;11078.720;  -27.350;    0.000;11106.06973
 547.10;11110.270;  -28.060;    0.000;11138.32953
 547.38;11126.400;  -26.980;    0.000;11153.38039
 547.66;11170.370;  -20.600;    0.000;11190.97012
 547.94;11212.580;  -26.620;    0.000;11239.20008
 548.22;11181.940;  -18.210;    0.000;11200.15043
 548.50;11157.920;  -33.930;    0.000;11191.84992
 548.78;11225.090;  -19.160;    0.000;11244.24984
 549.06;11254.620;  -26.480;    0.000;11281.10012
 549.34;11225.520;  -26.050;    0.000;11251.56953
 549.63;11247.150;  -22.420;    0.000;11269.57039
 549.91;11233.460;  -20.450;    0.000;11253.90996
 550.19;11273.000;  -20.960;    0.000;11293.96000
 550.47;11230.780;  -23.490;    0.000;11254.27027
 550.75;11268.710;  -35.020;    0.000;11303.72996
 551.03;11321.260;  -20.560;    0.000;11341.81977
 551.31;11308.020;  -24.020;    0.000;11332.03953
 551.59;11333.380;  -16.240;    0.000;11349.61988
 551.87;11330.250;  -23.530;    0.000;11353.78000
 552.15;11374.380;  -28.140;    0.000;11402.51988
 552.43;11352.440;  -14.870;    0.000;11367.31043
 552.71;11360.000;  -21.280;    0.000;11381.28000
 552.99;11365.180;  -21.520;    0.000;11386.69969
 553.27;11403.380;  -25.870;    0.000;11429.24988
 553.55;11413.930;  -23.860;    0.000;11437.78969
 553.83;11425.850;  -19.210;    0.000;11445.05961
 554.11;11436.830;  -21.190;    0.000;11458.02008
 554.39;11458.220;  -17.150;    0.000;11475.36973
 554.67;11447.370;  -26.640;    0.000;11474.01012
 554.95;11438.130;    3.920;    0.000;11434.20988
 555.23;11394.500;  -11.960;    0.000;11406.46000
 555.51;11366.940;  -21.900;    0.000;11388.84043
 555.79;11404.440;  -23.970;    0.000;11428.41043
 556.07;11445.040;  -19.910;    0.000;11464.95004
 556.35;11386.520;  -18.640;    0.000;11405.15953
 556.63;11396.270;  -12.070;    0.000;11408.33953
 556.91;11393.550;   -1.640;    0.000;11395.18980
 557.19;11453.760;  -13.940;    0.000;11467.69977
 557.47;11373.140;  -13.060;    0.000;11386.19965
 557.75;11427.950;  -15.340;    0.000;11443.29020
 558.03;11484.170;  -13.480;    0.000;11497.64992
 558.31;11423.680;  -19.320;    0.000;11442.99969
 558.59;11464.400;  -31.280;    0.000;11495.68039
 558.87;11430.130;  -13.310;    0.000;11443.43988
 559.15;11425.020;  -29.070;    0.000;11454.08953
 559.43;11427.320;  -25.000;    0.000;11452.32031
 559.71;11431.130;  -21.670;    0.000;11452.79988
 559.99;11442.830;  -21.350;    0.000;11464.18008
 560.27;11456.610;  -24.410;    0.000;11481.02035
 560.55;11478.550;  -16.770;    0.000;11495.31981
 560.82;11447.380;  -40.520;    0.000;11487.89988
 561.10;11431.160;  -21.030;    0.000;11452.19016
 561.38;11401.040;  -31.620;    0.000;11432.66004
 561.66;11361.670;  -19.200;    0.000;11380.86992
 561.94;11365.430;  -32.500;    0.000;11397.92969
 562.22;11384.680;  -18.950;    0.000;11403.62969
 562.50;11358.480;  -22.930;    0.000;11381.41047
 562.78;11355.770;  -21.880;    0.000;11377.64953
 563.06;11300.570;  -25.020;    0.000;11325.59031
 563.34;11330.440;  -23.340;    0.000;11353.78043
 563.62;11279.970;  -28.600;    0.000;11308.56973
 563.90;11259.660;  -24.780;    0.000;11284.44016
 564.18;11268.370;  -23.890;    0.000;11292.26012
 564.46;11241.000;  -31.800;    0.000;11272.80000
 564.74;11243.170;  -36.810;    0.000;11279.97992
 565.01;11218.820;  -18.650;    0.000;11237.47031
 565.29;11188.100;  -31.200;    0.000;11219.29961
 565.57;11159.620;  -24.140;    0.000;11183.76012
 565.85;11161.380;  -30.170;    0.000;11191.54988
 566.13;11122.690;  -25.400;    0.000;11148.09043
 566.41;11147.990;  -20.760;    0.000;11168.75023
 566.69;11097.140;  -20.180;    0.000;11117.31965
 566.97;11046.290;  -29.100;    0.000;11075.39004
 567.25;11077.570;  -23.320;    0.000;11100.89031
 567.53;11055.130;  -37.960;    0.000;11093.08988
 567.80;11030.370;  -17.520;    0.000;11047.89012
 568.08;10992.350;  -24.640;    0.000;11016.98961
 568.36;10965.320;  -31.890;    0.000;10997.21031
 568.64;10986.170;  -36.700;    0.000;11022.86992
 568.92;10975.640;  -19.060;    0.000;10994.69965
 569.20;10889.710;  -33.620;    0.000;10923.32996
 569.48;10900.520;  -28.970;    0.000;10929.48953
 569.76;10854.920;  -38.390;    0.000;10893.30992
 570.03;10881.250;  -30.740;    0.000;10911.99000
 570.31;10804.530;  -26.680;    0.000;10831.21027
 570.59;10790.290;  -30.140;    0.000;10820.43004
 570.87;10759.310;  -36.880;    0.000;10796.18957
 571.15;10725.170;  -34.680;    0.000;10759.84992
 571.43;10701.640;  -25.070;    0.000;10726.70965
 571.71;10657.890;  -27.830;    0.000;10685.71965
 571.98;10621.200;  -36.950;    0.000;10658.15020
 572.26;10640.770;  -31.860;    0.000;10672.62953
 572.54;10585.670;  -30.510;    0.000;10616.17992
 572.82;10535.360;  -26.230;    0.000;10561.59035
 573.10;10527.640;  -29.670;    0.000;10557.30965
 573.38;10518.140;  -24.500;    0.000;10542.63965
 573.66;10529.870;  -37.870;    0.000;10567.74012
 573.93;10423.420;  -25.520;    0.000;10448.93992
 574.21;10386.600;  -44.710;    0.000;10431.30961
 574.49;10409.510;  -29.650;    0.000;10439.15977
 574.77;10339.520;  -29.070;    0.000;10368.58953
 575.05;10339.570;  -17.380;    0.000;10356.95031
 575.33;10287.750;  -34.780;    0.000;10322.53000
 575.60;10243.010;  -27.030;    0.000;10270.03977
 575.88;10199.020;  -27.440;    0.000;10226.45953
 576.16;10155.000;  -28.700;    0.000;10183.70000
 576.44;10122.610;  -26.920;    0.000;10149.53035
 576.72;10104.990;  -35.650;    0.000;10140.64024
 576.99;10057.700;  -36.450;    0.000;10094.15020
 577.27;10021.580;  -27.480;    0.000;10049.06008
 577.55;10041.930;  -21.740;    0.000;10063.66969
 577.83; 9945.960;  -27.910;    0.000;9973.86996
 578.11; 9903.310;  -39.940;    0.000;9943.24957
 578.38; 9863.110;  -31.370;    0.000;9894.48035
 578.66; 9845.280;  -41.950;    0.000;9887.23027
 578.94; 9824.100;  -30.900;    0.000;9854.99961
 579.22; 9765.010;  -31.660;    0.000;9796.66977
 579.50; 9759.670;  -15.330;    0.000;9774.99992
 579.77; 9732.370;  -36.810;    0.000;9769.18012
 580.05; 9683.960;  -29.770;    0.000;9713.72996
 580.33; 9605.820;  -40.660;    0.000;9646.48031
 580.61; 9591.800;  -26.940;    0.000;9618.73981
 580.88; 9599.940;  -32.860;    0.000;9632.80043
 581.16; 9496.330;  -27.910;    0.000;9524.24008
 581.44; 9471.820;  -27.700;    0.000;9499.52031
 581.72; 9433.270;  -32.140;    0.000;9465.40953
 581.99; 9378.090;  -30.970;    0.000;9409.05984
 582.27; 9325.990;  -33.160;    0.000;9359.15023
 582.55; 9289.460;  -39.520;    0.000;9328.97996
 582.83; 9257.210;  -24.610;    0.000;9281.81996
 583.10; 9239.960;  -35.980;    0.000;9275.93996
 583.38; 9170.370;  -34.240;    0.000;9204.61012
 583.66; 9140.980;  -27.940;    0.000;9168.92047
 583.94; 9105.440;  -30.520;    0.000;9135.96043
 584.21; 9035.350;  -39.870;    0.000;9075.21961
 584.49; 9013.920;  -38.450;    0.000;9052.36992
 584.77; 8952.600;  -46.110;    0.000;8998.70961
 585.05; 8924.970;  -30.740;    0.000;8955.70973
 585.32; 8881.900;  -45.880;    0.000;8927.78039
 585.60; 8811.050;  -33.420;    0.000;8844.46980
 585.88; 8786.490;  -33.880;    0.000;8820.37024
 586.16; 8705.630;  -31.230;    0.000;8736.85988
 586.43; 8695.210;  -24.760;    0.000;8719.96996
 586.71; 8662.770;  -23.950;    0.000;8686.71953
 586.99; 8596.560;  -40.780;    0.000;8637.33957
 587.26; 8542.110;  -34.250;    0.000;8576.36035
 587.54; 8524.780;  -31.250;    0.000;8556.03027
 587.82; 8491.890;  -24.780;    0.000;8516.66965
 588.10; 8431.060;  -38.030;    0.000;8469.08957
 588.37; 8409.270;  -25.200;    0.000;8434.46953
 588.65; 8290.510;  -42.610;    0.000;8333.11977
 588.93; 8256.580;  -27.880;    0.000;8284.46008
 589.20; 8288.170;  -34.530;    0.000;8322.69992
 589.48; 8196.510;  -23.660;    0.000;8220.16977
 589.76; 8172.690;  -21.600;    0.000;8194.28994
 590.03; 8070.420;  -37.140;    0.000;8107.55992
 590.31; 8057.840;  -37.740;    0.000;8095.57985
 590.59; 7998.940;  -19.850;    0.000;8018.78994
 590.86; 7969.140;  -35.440;    0.000;8004.58014
 591.14; 7897.720;  -32.470;    0.000;7930.19022
 591.42; 7847.600;  -42.520;    0.000;7890.12010
 591.70; 7795.390;  -28.630;    0.000;7824.02014
 591.97; 7760.320;  -41.090;    0.000;7801.40982
 592.25; 7763.950;  -31.770;    0.000;7795.72020
 592.53; 7692.840;  -34.330;    0.000;7727.16985
 592.80; 7626.040;  -27.170;    0.000;7653.21004
 593.08; 7610.910;  -36.980;    0.000;7647.89016
 593.36; 7523.160;  -29.710;    0.000;7552.87016
 593.63; 7512.190;  -31.670;    0.000;7543.85994
 593.91; 7444.890;  -37.820;    0.000;7482.71014
 594.18; 7390.130;  -29.310;    0.000;7419.43988
 594.46; 7340.990;  -32.730;    0.000;7373.72023
 594.74; 7287.120;  -39.980;    0.000;7327.10012
 595.01; 7231.320;  -41.290;    0.000;7272.60983
 595.29; 7201.940;  -42.620;    0.000;7244.55994
 595.57; 7172.660;  -26.370;    0.000;7199.03016
 595.84; 7122.330;  -44.010;    0.000;7166.34008
 596.12; 7093.430;  -26.910;    0.000;7120.34018
 596.40; 6970.930;  -47.870;    0.000;7018.80017
 596.67; 6955.790;  -30.050;    0.000;6985.84004
 596.95; 6920.200;  -32.450;    0.000;6952.65020
 597.22; 6858.540;  -36.470;    0.000;6895.01004
 597.50; 6810.700;  -30.000;    0.000;6840.70020
 597.78; 6798.330;  -26.450;    0.000;6824.78008
 598.05; 6700.460;  -38.050;    0.000;6738.50996
 598.33; 6715.770;  -35.310;    0.000;6751.08002
 598.61; 6629.750;  -40.030;    0.000;6669.78000
 598.88; 6594.260;  -34.500;    0.000;6628.75977
 599.16; 6539.200;  -33.800;    0.000;6573.00019
 599.43; 6487.740;  -34.760;    0.000;6522.50023
 599.71; 6455.650;  -33.630;    0.000;6489.27990
 599.99; 6396.980;  -39.260;    0.000;6436.23998
 600.26; 6332.810;  -35.270;    0.000;6368.08006
 600.54; 6291.100;  -23.060;    0.000;6314.16010
 600.81; 6248.030;  -22.730;    0.000;6270.75978
 601.09; 6224.810;  -31.880;    0.000;6256.69006
 601.36; 6182.070;  -41.720;    0.000;6223.78983
 601.64; 6138.780;  -26.930;    0.000;6165.70979
 601.92; 6090.190;  -40.110;    0.000;6130.29994
 602.19; 6009.010;  -33.850;    0.000;6042.85976
 602.47; 5978.630;  -42.910;    0.000;6021.53988
 602.74; 5970.920;  -30.200;    0.000;6001.11992
 603.02; 5937.690;  -37.710;    0.000;5975.39994
 603.29; 5858.370;  -31.120;    0.000;5889.49012
 603.57; 5816.910;  -46.120;    0.000;5863.03016
 603.85; 5785.310;  -37.100;    0.000;5822.41006
 604.12; 5773.040;  -30.010;    0.000;5803.05004
 604.40; 5709.450;  -42.650;    0.000;5752.10020
 604.67; 5674.620;  -33.630;    0.000;5708.25012
 604.95; 5626.260;  -37.310;    0.000;5663.56977
 605.22; 5608.410;  -40.580;    0.000;5648.99016
 605.50; 5581.330;  -29.990;    0.000;5611.32008
 605.77; 5511.250;  -34.720;    0.000;5545.97000
 606.05; 5480.680;  -31.660;    0.000;5512.34018
 606.33; 5438.830;  -32.560;    0.000;5471.39008
 606.60; 5425.090;  -34.370;    0.000;5459.45984
 606.88; 5394.850;  -37.980;    0.000;5432.83010
 607.15; 5345.900;  -26.270;    0.000;5372.16990
 607.43; 5321.650;  -39.250;    0.000;5360.89990
 607.70; 5291.790;  -18.560;    0.000;5310.35004
 607.98; 5228.180;  -49.000;    0.000;5277.18018
 608.25; 5248.900;  -34.350;    0.000;5283.24990
 608.53; 5167.270;  -49.930;    0.000;5217.20002
 608.80; 5178.570;  -33.950;    0.000;5212.51982
 609.08; 5113.700;  -48.850;    0.000;5162.55019
 609.35; 5089.960;  -35.970;    0.000;5125.92996
 609.63; 5067.470;  -47.350;    0.000;5114.82021
 609.90; 5025.380;  -35.810;    0.000;5061.18988
 610.18; 5015.770;  -33.780;    0.000;5049.55002
 610.45; 4942.780;  -37.870;    0.000;4980.64978
 610.73; 4944.230;  -41.280;    0.000;4985.50998
 611.00; 4909.060;  -22.200;    0.000;4931.26006
 611.28; 4856.720;  -42.300;    0.000;4899.02021
 611.55; 4841.250;  -43.860;    0.000;4885.11000
 611.83; 4775.110;  -51.020;    0.000;4826.12986
 612.10; 4754.370;  -43.340;    0.000;4797.71012
 612.38; 4779.460;  -42.020;    0.000;4821.47996
 612.65; 4733.160;  -35.390;    0.000;4768.55016
 612.93; 4687.410;  -49.670;    0.000;4737.08015
 613.20; 4686.390;  -40.010;    0.000;4726.40014
 613.48; 4615.820;  -50.070;    0.000;4665.88982
 613.75; 4622.500;  -39.000;    0.000;4661.50000
 614.03; 4608.060;  -33.860;    0.000;4641.92006
 614.30; 4572.450;  -48.420;    0.000;4620.87019
 614.57; 4539.220;  -48.760;    0.000;4587.98021
 614.85; 4514.190;  -33.970;    0.000;4548.15994
 615.12; 4496.400;  -45.710;    0.000;4542.10990
 615.40; 4465.230;  -47.900;    0.000;4513.12998
 615.67; 4441.080;  -47.350;    0.000;4488.43008
 615.95; 4437.100;  -35.100;    0.000;4472.20010
 616.22; 4399.170;  -46.180;    0.000;4445.34992
 616.50; 4359.070;  -41.480;    0.000;4400.54982
 616.77; 4347.610;  -43.960;    0.000;4391.56986
 617.05; 4308.450;  -21.360;    0.000;4329.81020
 617.32; 4250.880;  -43.180;    0.000;4294.05988
 617.59; 4241.520;  -33.460;    0.000;4274.98002
 617.87; 4185.890;  -54.150;    0.000;4240.04014
 618.14; 4137.850;  -35.260;    0.000;4173.11010
 618.42; 4095.430;  -47.110;    0.000;4142.53993
 618.69; 4057.710;  -43.470;    0.000;4101.17996
 618.97; 3994.760;  -47.040;    0.000;4041.80001
 619.24; 3968.950;  -36.430;    0.000;4005.37995
 619.51; 3913.400;  -36.430;    0.000;3949.82990
 619.79; 3876.750;  -37.530;    0.000;3914.28000
 620.06; 3821.890;  -41.100;    0.000;3862.98989
 620.34; 3711.570;  -42.490;    0.000;3754.06007
 620.61; 3668.720;  -39.810;    0.000;3708.52997
 620.88; 3645.570;  -42.270;    0.000;3687.84007
 621.16; 3652.150;  -43.080;    0.000;3695.22990
 621.43; 3703.470;  -35.920;    0.000;3739.38997
 621.71; 3729.250;  -35.190;    0.000;3764.44000
 621.98; 3647.680;  -35.890;    0.000;3683.56993
 622.25; 3602.820;  -43.810;    0.000;3646.63007
 622.53; 3622.230;  -33.350;    0.000;3655.57998
 622.80; 3562.870;  -46.030;    0.000;3608.90012
 623.08; 3562.820;  -41.160;    0.000;3603.98007
 623.35; 3543.370;  -47.690;    0.000;3591.06012
 623.62; 3509.610;  -44.660;    0.000;3554.27011
 623.90; 3518.200;  -42.660;    0.000;3560.85995
 624.17; 3469.330;  -28.880;    0.000;3498.21008
 624.44; 3461.230;  -38.740;    0.000;3499.96998
 624.72; 3441.700;  -34.060;    0.000;3475.75995
 624.99; 3412.170;  -49.930;    0.000;3462.09992
 625.26; 3440.040;  -49.640;    0.000;3489.68004
 625.54; 3448.750;  -33.530;    0.000;3482.28000
 625.81; 3478.690;  -44.770;    0.000;3523.45994
 626.09; 3484.520;  -49.480;    0.000;3534.00002
 626.36; 3436.450;  -44.100;    0.000;3480.54995
 626.63; 3432.830;  -41.510;    0.000;3474.34008
 626.91; 3443.660;  -47.370;    0.000;3491.02991
 627.18; 3423.220;  -38.040;    0.000;3461.25997
 627.45; 3426.330;  -37.530;    0.000;3463.86008
 627.73; 3422.920;  -44.610;    0.000;3467.52992
 628.00; 3404.950;  -37.550;    0.000;3442.49995
 628.27; 3389.630;  -36.200;    0.000;3425.82988
 628.55; 3387.600;  -42.700;    0.000;3430.30010
 628.82; 3368.890;  -53.070;    0.000;3421.95989
 629.09; 3343.000;  -41.330;    0.000;3384.33000
 629.37; 3357.840;  -53.690;    0.000;3411.53009
 629.64; 3340.920;  -37.610;    0.000;3378.52992
 629.91; 3331.660;  -55.250;    0.000;3386.90991
 630.18; 3313.440;  -39.470;    0.000;3352.90994
 630.46; 3312.920;  -41.710;    0.000;3354.62992
 630.73; 3277.620;  -35.240;    0.000;3312.86012
 631.00; 3283.760;  -42.180;    0.000;3325.94001
 631.28; 3247.970;  -48.540;    0.000;3296.50997
 631.55; 3242.250;  -44.940;    0.000;3287.19000
 631.82; 3232.360;  -34.080;    0.000;3266.44011
 632.10; 3218.080;  -41.710;    0.000;3259.79008
 632.37; 3202.560;  -41.490;    0.000;3244.05006
 632.64; 3183.740;  -37.410;    0.000;3221.14999
 632.91; 3195.700;  -31.710;    0.000;3227.40995
 633.19; 3150.650;  -44.670;    0.000;3195.31990
 633.46; 3149.020;  -48.740;    0.000;3197.76002
 633.73; 3135.880;  -47.490;    0.000;3183.36988
 634.01; 3129.670;  -40.410;    0.000;3170.07992
 634.28; 3115.360;  -52.520;    0.000;3167.88011
 634.55; 3125.300;  -28.350;    0.000;3153.65005
 634.82; 3125.780;  -47.550;    0.000;3173.33003
 635.10; 3100.330;  -38.050;    0.000;3138.38008
 635.37; 3110.760;  -52.120;    0.000;3162.88001
 635.64; 3079.050;  -44.700;    0.000;3123.75005
 635.91; 3086.180;  -59.310;    0.000;3145.48993
 636.19; 3067.420;  -40.580;    0.000;3107.99992
 636.46; 3086.340;  -43.850;    0.000;3130.19009
 636.73; 3084.480;  -36.090;    0.000;3120.56998
 637.00; 3081.840;  -46.460;    0.000;3128.30009
 637.28; 3109.910;  -43.610;    0.000;3153.51991
 637.55; 3081.610;  -37.690;    0.000;3119.30011
 637.82; 3045.520;  -41.660;    0.000;3087.18002
 638.09; 3004.770;  -42.000;    0.000;3046.77002
 638.37; 2958.710;  -47.010;    0.000;3005.71996
 638.64; 2928.340;  -50.120;    0.000;2978.46009
 638.91; 2920.000;  -40.580;    0.000;2960.58000
 639.18; 2921.850;  -47.270;    0.000;2969.12010
 639.46; 2876.860;  -42.930;    0.000;2919.79011
 639.73; 2898.960;  -42.730;    0.000;2941.68996
 640.00; 2875.820;  -44.600;    0.000;2920.42007
 640.27; 2843.480;  -49.850;    0.000;2893.32998
 640.54; 2819.120;  -37.760;    0.000;2856.88012
 640.82; 2797.750;  -43.030;    0.000;2840.78000
 641.09; 2774.110;  -40.550;    0.000;2814.66011
 641.36; 2761.960;  -52.060;    0.000;2814.01996
 641.63; 2732.570;  -39.770;    0.000;2772.34007
 641.91; 2702.670;  -47.290;    0.000;2749.95992
 642.18; 2653.240;  -43.100;    0.000;2696.33999
 642.45; 2635.670;  -60.380;    0.000;2696.04992
 642.72; 2617.420;  -45.200;    0.000;2662.61992
 642.99; 2595.960;  -32.230;    0.000;2628.18996
 643.26; 2576.730;  -39.200;    0.000;2615.92998
 643.54; 2553.430;  -42.510;    0.000;2595.93993
 643.81; 2557.220;  -48.280;    0.000;2605.49997
 644.08; 2513.420;  -46.440;    0.000;2559.85992
 644.35; 2504.480;  -43.440;    0.000;2547.91998
 644.62; 2468.140;  -60.750;    0.000;2528.88989
 644.90; 2473.830;  -37.720;    0.000;2511.55008
 645.17; 2450.540;  -50.870;    0.000;2501.41004
 645.44; 2426.380;  -40.710;    0.000;2467.08988
 645.71; 2400.940;  -54.220;    0.000;2455.15994
 645.98; 2386.890;  -46.590;    0.000;2433.47989
 646.25; 2392.340;  -56.450;    0.000;2448.79009
 646.53; 2360.600;  -49.790;    0.000;2410.39010
 646.80; 2348.210;  -52.340;    0.000;2400.54996
 647.07; 2340.090;  -52.900;    0.000;2392.99009
 647.34; 2323.640;  -42.670;    0.000;2366.30989
 647.61; 2321.360;  -38.320;    0.000;2359.68011
 647.88; 2292.220;  -32.630;    0.000;2324.84997
 648.15; 2253.460;  -45.180;    0.000;2298.63996
 648.43; 2263.900;  -51.280;    0.000;2315.17990
 648.70; 2237.410;  -44.950;    0.000;2282.35991
 648.97; 2220.580;  -50.060;    0.000;2270.64008
 649.24; 2214.700;  -37.760;    0.000;2252.45995
 649.51; 2193.550;  -59.320;    0.000;2252.87005
 649.78; 2181.380;  -49.050;    0.000;2230.42988
 650.05; 2195.970;  -38.830;    0.000;2234.79997
 650.32; 2210.050;    3.430;    0.000;2206.62005
 650.60; 2147.500;  -49.520;    0.000;2197.02000
 650.87; 2141.970;  -40.720;    0.000;2182.68997
 651.14; 2117.600;  -49.080;    0.000;2166.68010
 651.41; 2124.540;  -40.880;    0.000;2165.42004
 651.68; 2084.110;  -51.850;    0.000;2135.96011
 651.95; 2097.050;  -32.540;    0.000;2129.59005
 652.22; 2058.480;  -46.770;    0.000;2105.24998
 652.49; 2050.740;  -47.170;    0.000;2097.90999
 652.76; 2046.640;  -56.460;    0.000;2103.10001
 653.03; 2016.490;  -52.290;    0.000;2068.77999
 653.31; 2008.560;  -54.730;    0.000;2063.29006
 653.58; 1998.990;  -44.140;    0.000;2043.12999
 653.85; 1992.030;  -55.300;    0.000;2047.33003
 654.12; 1979.560;  -40.030;    0.000;2019.59006
 654.39; 1950.220;  -59.010;    0.000;2009.22997
 654.66; 1949.850;  -34.440;    0.000;1984.28997
 654.93; 1930.180;  -43.990;    0.000;1974.17006
 655.20; 1903.380;  -46.980;    0.000;1950.36000
 655.47; 1897.900;  -52.660;    0.000;1950.56002
 655.74; 1901.120;  -38.310;    0.000;1939.43000
 656.01; 1876.330;  -57.940;    0.000;1934.26995
 656.28; 1885.640;  -40.430;    0.000;1926.07001
 656.55; 1866.020;  -48.760;    0.000;1914.78002
 656.83; 1850.320;  -44.830;    0.000;1895.14995
 657.10; 1839.310;  -55.800;    0.000;1895.11006
 657.37; 1831.560;  -46.440;    0.000;1878.00006
 657.64; 1809.380;  -56.320;    0.000;1865.70000
 657.91; 1807.870;  -47.700;    0.000;1855.57000
 658.18; 1771.720;  -47.460;    0.000;1819.17997
 658.45; 1767.210;  -51.440;    0.000;1818.64996
 658.72; 1767.530;  -50.290;    0.000;1817.82003
 658.99; 1750.590;  -40.260;    0.000;1790.84996
 659.26; 1749.880;  -41.670;    0.000;1791.55000
 659.53; 1712.630;  -53.720;    0.000;1766.35001
 659.80; 1713.220;  -60.520;    0.000;1773.73997
 660.07; 1702.480;  -48.260;    0.000;1750.73998
 660.34; 1708.210;  -52.100;    0.000;1760.30996
 660.61; 1675.480;  -51.720;    0.000;1727.19998
 660.88; 1689.840;  -47.250;    0.000;1737.08997
 661.15; 1671.000;  -34.510;    0.000;1705.51000
 661.42; 1672.830;  -53.270;    0.000;1726.09996
 661.69; 1640.480;  -53.400;    0.000;1693.87998
 661.96; 1613.950;  -60.350;    0.000;1674.29995
 662.23; 1617.180;  -46.130;    0.000;1663.31005
 662.50; 1591.660;  -53.060;    0.000;1644.72004
 662.77; 1593.050;  -47.970;    0.000;1641.02005
 663.04; 1586.070;  -55.560;    0.000;1641.62995
 663.31; 1579.740;  -48.380;    0.000;1628.11999
 663.58; 1569.220;  -48.060;    0.000;1617.27997
 663.85; 1544.700;  -46.560;    0.000;1591.25995
 664.12; 1530.960;  -50.850;    0.000;1581.80996
 664.39; 1525.730;  -51.040;    0.000;1576.76998
 664.66; 1511.720;  -59.340;    0.000;1571.05997
 664.93; 1499.670;  -53.960;    0.000;1553.63004
 665.20; 1498.510;  -53.460;    0.000;1551.97001
 665.47; 1474.940;  -47.830;    0.000;1522.76994
 665.74; 1484.070;  -60.190;    0.000;1544.25994
 666.01; 1461.380;  -44.910;    0.000;1506.29000
 666.28; 1452.980;  -62.110;    0.000;1515.08998
 666.55; 1449.740;  -47.720;    0.000;1497.45999
 666.82; 1415.060;  -61.520;    0.000;1476.58006
 667.09; 1427.870;  -45.890;    0.000;1473.75999
 667.36; 1410.830;  -54.560;    0.000;1465.38996
 667.63; 1403.800;  -43.790;    0.000;1447.59005
 667.90; 1381.570;  -51.910;    0.000;1433.47995
 668.16; 1390.970;  -40.660;    0.000;1431.62997
 668.43; 1369.020;  -53.130;    0.000;1422.15002
 668.70; 1363.260;  -47.080;    0.000;1410.34001
 668.97; 1357.970;  -59.160;    0.000;1417.12997
 669.24; 1347.420;  -43.280;    0.000;1390.70004
 669.51; 1351.190;  -51.700;    0.000;1402.88994
 669.78; 1313.430;  -49.880;    0.000;1363.31005
 670.05; 1308.700;  -54.220;    0.000;1362.91995
 670.32; 1319.290;  -41.260;    0.000;1360.55004
 670.59; 1296.440;  -58.230;    0.000;1354.66994
 670.86; 1285.810;  -44.790;    0.000;1330.60006
 671.13; 1275.760;  -51.170;    0.000;1326.93001
 671.40; 1278.340;  -50.870;    0.000;1329.20996
 671.67; 1262.040;  -39.480;    0.000;1301.52004
 671.93; 1238.730;  -50.050;    0.000;1288.77998
 672.20; 1222.600;  -62.530;    0.000;1285.12997
 672.47; 1227.730;  -51.630;    0.000;1279.35998
 672.74; 1201.280;  -58.180;    0.000;1259.46003
 673.01; 1209.730;  -52.500;    0.000;1262.22998
 673.28; 1209.110;  -48.790;    0.000;1257.89999
 673.55; 1197.660;  -56.290;    0.000;1253.95004
 673.82; 1188.840;  -57.450;    0.000;1246.28997
 674.09; 1162.500;  -47.520;    0.000;1210.02000
 674.35; 1164.160;  -52.050;    0.000;1216.21003
 674.62; 1157.410;  -40.650;    0.000;1198.06004
 674.89; 1151.160;  -56.110;    0.000;1207.27003
 675.16; 1147.320;  -46.170;    0.000;1193.48994
 675.43; 1126.450;  -57.390;    0.000;1183.83995
 675.70; 1140.800;  -32.700;    0.000;1173.50005
 675.97; 1121.980;  -53.910;    0.000;1175.88998
 676.24; 1125.920;  -47.160;    0.000;1173.08004
 676.50; 1102.410;  -58.400;    0.000;1160.81004
 676.77; 1076.910;  -48.110;    0.000;1125.02003
 677.04; 1080.370;  -55.880;    0.000;1136.25000
 677.31; 1079.620;  -53.920;    0.000;1133.53999
 677.58; 1059.830;  -50.120;    0.000;1109.94995
 677.85; 1071.410;  -44.200;    0.000;1115.61003
 678.12; 1054.240;  -55.690;    0.000;1109.92999
 678.38; 1034.130;  -42.970;    0.000;1077.10001
 678.65; 1028.750;  -64.680;    0.000;1093.43000
 678.92; 1019.690;  -54.550;    0.000;1074.24000
 679.19; 1032.780;  -39.690;    0.000;1072.47003
 679.46; 1017.900;  -47.550;    0.000;1065.45002
 679.73; 1003.370;  -59.220;    0.000;1062.59000
 679.99;  989.090;  -50.410;    0.000;1039.50003
 680.26;  983.080;  -62.850;    0.000;1045.93002
 680.53;  973.730;  -49.460;    0.000;1023.18998
 680.80;  971.600;  -57.820;    0.000;1029.41998
 681.07;  962.940;  -44.180;    0.000;1007.12000
 681.33;  958.860;  -51.070;    0.000;1009.92999
 681.60;  938.920;  -48.710;    0.000;987.62998
 681.87;  942.360;  -62.990;    0.000;1005.34999
 682.14;  938.710;  -46.370;    0.000;985.08002
 682.41;  915.330;  -55.150;    0.000;970.48002
 682.67;  924.190;  -43.000;    0.000;967.19000
 682.94;  895.290;  -68.110;    0.000;963.39998
 683.21;  905.210;  -55.460;    0.000;960.67002
 683.48;  909.880;  -57.760;    0.000;967.64000
 683.75;  891.580;  -47.900;    0.000;939.48002
 684.01;  884.860;  -55.520;    0.000;940.37999
 684.28;  875.400;  -55.430;    0.000;930.83002
 684.55;  871.940;  -49.130;    0.000;921.07000
 684.82;  859.430;  -58.800;    0.000;918.22999
 685.09;  846.030;  -52.990;    0.000;899.02003
 685.35;  849.990;  -48.550;    0.000;898.53999
 685.62;  844.180;  -54.740;    0.000;898.91999
 685.89;  837.410;  -44.100;    0.000;881.50997
 686.16;  816.940;  -63.070;    0.000;880.01000
 686.42;  814.940;  -46.900;    0.000;861.84000
 686.69;  831.590;  -44.640;    0.000;876.23003
 686.96;  796.460;  -61.770;    0.000;858.23002
 687.23;  803.430;  -43.540;    0.000;846.96999
 687.49;  796.900;  -35.390;    0.000;832.29002
 687.76;  773.220;  -62.140;    0.000;835.35997
 688.03;  787.670;  -50.100;    0.000;837.76998
 688.30;  758.870;  -64.450;    0.000;823.31999
 688.56;  764.850;  -52.870;    0.000;817.71997
 688.83;  755.720;  -60.550;    0.000;816.26997
 689.10;  750.660;  -53.890;    0.000;804.54997
 689.37;  738.790;  -70.030;    0.000;808.81998
 689.63;  736.750;  -48.550;    0.000;785.30000
 689.90;  742.550;  -53.230;    0.000;795.77999
 690.17;  732.980;  -49.050;    0.000;782.02998
 690.44;  715.780;  -58.840;    0.000;774.62003
 690.70;  703.690;  -52.720;    0.000;756.41000
 690.97;  708.230;  -53.770;    0.000;761.99998
 691.24;  713.710;  -47.860;    0.000;761.57002
 691.50;  687.170;  -59.530;    0.000;746.69998
 691.77;  680.480;  -56.310;    0.000;736.78998
 692.04;  668.290;  -59.430;    0.000;727.71998
 692.30;  669.760;  -57.620;    0.000;727.38001
 692.57;  661.420;  -60.930;    0.000;722.34998
 692.84;  659.020;  -56.380;    0.000;715.40002
 693.11;  651.450;  -67.750;    0.000;719.20001
 693.37;  649.430;  -50.830;    0.000;700.25999
 693.64;  635.300;  -63.140;    0.000;698.43999
 693.91;  645.320;  -51.900;    0.000;697.22001
 694.17;  637.230;  -47.910;    0.000;685.13998
 694.44;  621.850;  -47.070;    0.000;668.91998
 694.71;  609.590;  -61.340;    0.000;670.93003
 694.97;  606.410;  -52.260;    0.000;658.66997
 695.24;  595.140;  -63.910;    0.000;659.05001
 695.51;  587.470;  -62.980;    0.000;650.44997
 695.77;  580.890;  -59.670;    0.000;640.56001
 696.04;  583.910;  -52.380;    0.000;636.28997
 696.31;  579.670;  -66.480;    0.000;646.14999
 696.57;  576.700;  -38.310;    0.000;615.01001
 696.84;  552.490;  -52.850;    0.000;605.33999
 697.11;  555.490;  -54.240;    0.000;609.72999
 697.37;  558.180;  -51.920;    0.000;610.09999
 697.64;  544.750;  -53.060;    0.000;597.81000
 697.91;  527.380;  -60.220;    0.000;587.60001
 698.17;  526.030;  -54.270;    0.000;580.30003
 698.44;  532.580;  -63.030;    0.000;595.61002
 698.71;  522.950;  -49.550;    0.000;572.50001
 698.97;  493.390;  -54.580;    0.000;547.97002
 699.24;  502.650;  -45.040;    0.000;547.68999
 699.50;  485.760;  -64.050;    0.000;549.81001
 699.77;  484.370;  -49.010;    0.000;533.37999
 700.04;  466.760;  -64.650;    0.000;531.41001
 700.30;  474.770;  -61.870;    0.000;536.63999
 700.57;  462.310;  -63.250;    0.000;525.56000
 700.84;  460.960;  -41.730;    0.000;502.68999
 701.10;  457.630;  -62.570;    0.000;520.20000
 701.37;  460.940;  -60.320;    0.000;521.26000
 701.63;  436.680;  -59.440;    0.000;496.11999
 701.90;  444.030;  -53.830;    0.000;497.86000
 702.17;  447.940;  -49.470;    0.000;497.41000
 702.43;  427.950;  -55.120;    0.000;483.07001
 702.70;  428.820;  -53.740;    0.000;482.56001
 702.96;  412.760;  -60.640;    0.000;473.40001
 703.23;  394.420;  -59.120;    0.000;453.54001
 703.50;  386.900;  -56.130;    0.000;443.02999
 703.76;  380.450;  -52.510;    0.000;432.96001
 704.03;  386.310;  -42.210;    0.000;428.52000
 704.29;  373.770;  -51.680;    0.000;425.44999
 704.56;  362.290;  -59.410;    0.000;421.70001
 704.82;  359.600;  -60.620;    0.000;420.22001
 705.09;  362.990;  -50.430;    0.000;413.41999
 705.36;  350.750;  -62.970;    0.000;413.72000
 705.62;  358.780;  -33.310;    0.000;392.09000
 705.89;  323.190;  -59.100;    0.000;382.29000
 706.15;  326.690;  -48.880;    0.000;375.57000
 706.42;  328.500;  -57.690;    0.000;386.19000
 706.68;  315.840;  -56.700;    0.000;372.54000
 706.95;  317.020;  -57.630;    0.000;374.64999
 707.21;  306.830;  -58.650;    0.000;365.47999
 707.48;  306.460;  -61.920;    0.000;368.37999
 707.75;  299.980;  -50.800;    0.000;350.78001
 708.01;  291.660;  -61.080;    0.000;352.74001
 708.28;  298.250;  -51.820;    0.000;350.07000
 708.54;  282.230;  -63.220;    0.000;345.45001
 708.81;  294.680;  -44.090;    0.000;338.76999
 709.07;  268.650;  -62.050;    0.000;330.69999
 709.34;  260.220;  -61.410;    0.000;321.63000
 709.60;  252.970;  -68.660;    0.000;321.63000
 709.87;  269.490;  -48.490;    0.000;317.97999
 710.13;  242.810;  -66.420;    0.000;309.23000
 710.40;  245.340;  -64.680;    0.000;310.02000
 710.66;  246.990;  -62.120;    0.000;309.11000
 710.93;  238.380;  -55.610;    0.000;293.99001
 711.19;  233.180;  -63.730;    0.000;296.90999
 711.46;  245.460;  -48.890;    0.000;294.35001
 711.72;  227.400;  -58.100;    0.000;285.49999
 711.99;  228.640;  -47.670;    0.000;276.31000
 712.25;  225.820;  -61.830;    0.000;287.65001
 712.52;  226.950;  -40.700;    0.000;267.65000
 712.78;  220.430;  -56.040;    0.000;276.46999
 713.05;  215.290;  -54.940;    0.000;270.22999
 713.31;  213.100;  -58.190;    0.000;271.29000
 713.58;  209.600;  -51.770;    0.000;261.37001
 713.84;  206.670;  -61.840;    0.000;268.51000
 714.11;  207.010;  -54.940;    0.000;261.94999
 714.37;  206.590;  -57.910;    0.000;264.50000
 714.64;  208.520;  -56.410;    0.000;264.93000
 714.90;  196.980;  -55.060;    0.000;252.04000
 715.17;  193.190;  -59.790;    0.000;252.98000
 715.43;  193.150;  -60.320;    0.000;253.46999
 715.70;  197.620;  -53.640;    0.000;251.25999
 715.96;  187.990;  -60.380;    0.000;248.37001
 716.22;  189.110;  -56.780;    0.000;245.89000
 716.49;  181.040;  -68.920;    0.000;249.95999
 716.75;  177.170;  -64.590;    0.000;241.75999
 717.02;  189.200;  -56.200;    0.000;245.40000
 717.28;  186.270;  -59.350;    0.000;245.62000
 717.55;  188.640;  -69.660;    0.000;258.30000
 717.81;  184.860;  -55.520;    0.000;240.38000
 718.08;  179.860;  -60.370;    0.000;240.23000
 718.34;  180.950;  -59.980;    0.000;240.93000
 718.60;  181.090;  -56.160;    0.000;237.25000
 718.87;  177.650;  -53.350;    0.000;230.99999
 719.13;  185.650;  -62.460;    0.000;248.10999
 719.40;  178.970;  -51.850;    0.000;230.82000
 719.66;  172.720;  -64.270;    0.000;236.99000
 719.93;  166.150;  -47.770;    0.000;213.91999
 720.19;  169.370;  -70.590;    0.000;239.95999
 720.45;  175.990;  -58.110;    0.000;234.10001
 720.72;  175.270;  -60.550;    0.000;235.82000
 720.98;  176.320;  -56.440;    0.000;232.76001
 721.25;  164.330;  -72.700;    0.000;237.03000
 721.51;  160.360;  -61.040;    0.000;221.40000
 721.77;  170.200;  -62.760;    0.000;232.96000
 722.04;  177.400;  -46.700;    0.000;224.09999
 722.30;  172.220;  -58.310;    0.000;230.53000
 722.57;  171.460;  -52.890;    0.000;224.35001
 722.83;  166.310;  -62.730;    0.000;229.04000
 723.09;  160.790;  -56.910;    0.000;217.69999
 723.36;  161.270;  -59.400;    0.000;220.67001
 723.62;  170.320;  -51.840;    0.000;222.16001
 723.88;  164.730;  -59.890;    0.000;224.62000
 724.15;  172.010;  -49.500;    0.000;221.50999
 724.41;  158.310;  -65.630;    0.000;223.93999
 724.68;  169.570;  -59.360;    0.000;228.93001
 724.94;  174.360;  -48.690;    0.000;223.05000
 725.20;  164.940;  -56.210;    0.000;221.15000
 725.47;  159.850;  -62.730;    0.000;222.58001
 725.73;  154.680;  -64.430;    0.000;219.10999
 725.99;  153.020;  -71.790;    0.000;224.81001
 726.26;  159.590;  -50.060;    0.000;209.65000
 726.52;  156.080;  -63.590;    0.000;219.67000
 726.78;  157.590;  -52.290;    0.000;209.88000
 727.05;  160.980;  -61.380;    0.000;222.36000
 727.31;  154.690;  -52.170;    0.000;206.86000
 727.57;  144.100;  -63.730;    0.000;207.83001
 727.84;  162.710;  -53.340;    0.000;216.05001
 728.10;  153.700;  -60.120;    0.000;213.82000
 728.36;  157.820;  -53.710;    0.000;211.53001
 728.63;  147.550;  -62.820;    0.000;210.37000
 728.89;  146.430;  -60.280;    0.000;206.70999
 729.15;  140.250;  -65.040;    0.000;205.29000
 729.42;  146.370;  -60.470;    0.000;206.84000
 729.68;  146.340;  -54.970;    0.000;201.31000
 729.94;  136.900;  -68.100;    0.000;204.99999
 730.21;  148.050;  -64.640;    0.000;212.69000
 730.47;  147.380;  -63.530;    0.000;210.91000
 730.73;  138.390;  -66.260;    0.000;204.65000
 731.00;  138.490;  -57.360;    0.000;195.85001
 731.26;  140.020;  -57.540;    0.000;197.56001
 731.52;  146.500;  -58.280;    0.000;204.78000
 731.78;  129.540;  -66.450;    0.000;195.98999
 732.05;  131.600;  -65.530;    0.000;197.13000
 732.31;  128.140;  -59.070;    0.000;187.21000
 732.57;  136.630;  -54.620;    0.000;191.25000
 732.84;  126.070;  -70.510;    0.000;196.58000
 733.10;  125.650;  -57.600;    0.000;183.25000
 733.36;  127.150;  -70.050;    0.000;197.20000
 733.62;  129.050;  -62.500;    0.000;191.55000
 733.89;  117.250;  -59.180;    0.000;176.43000
 734.15;  124.120;  -61.340;    0.000;185.46000
 734.41;  129.360;  -61.790;    0.000;191.15000
 734.67;  133.790;  -50.600;    0.000;184.38999
 734.94;  116.010;  -63.880;    0.000;179.89000
 735.20;  122.560;  -57.270;    0.000;179.83000
 735.46;  127.490;  -68.040;    0.000;195.53000
 735.73;  118.910;  -54.400;    0.000;173.31001
 735.99;  118.720;  -71.180;    0.000;189.90000
 736.25;  117.620;  -55.920;    0.000;173.54000
 736.51;  119.350;  -61.210;    0.000;180.56000
 736.77;  116.360;  -54.920;    0.000;171.28000
 737.04;  111.840;  -62.400;    0.000;174.24000
 737.30;   99.130;  -58.680;    0.000;157.81000
 737.56;  107.850;  -58.620;    0.000;166.47000
 737.82;  105.060;  -58.750;    0.000;163.81000
 738.09;  103.900;  -70.360;    0.000;174.26000
 738.35;  103.990;  -63.970;    0.000;167.96000
 738.61;  113.870;  -61.870;    0.000;175.74000
 738.87;  109.290;  -52.450;    0.000;161.74000
 739.14;  105.340;  -61.560;    0.000;166.90000
 739.40;   95.440;  -64.850;    0.000;160.29000
 739.66;  101.060;  -68.810;    0.000;169.87000
 739.92;   92.250;  -63.470;    0.000;155.72000
 740.18;  104.950;  -64.080;    0.000;169.03000
 740.45;   90.320;  -61.060;    0.000;151.38000
 740.71;   98.070;  -53.970;    0.000;152.04000
 740.97;   95.140;  -55.520;    0.000;150.66000
 741.23;   90.680;  -74.870;    0.000;165.55000
 741.49;   90.220;  -59.120;    0.000;149.34000
 741.76;   80.080;  -76.640;    0.000;156.72000
 742.02;   87.330;  -68.540;    0.000;155.87000
 742.28;   90.060;  -68.520;    0.000;158.57999
 742.54;   83.240;  -57.000;    0.000;140.24000
 742.80;   81.280;  -70.310;    0.000;151.59000
 743.06;   93.940;  -54.290;    0.000;148.23000
 743.33;   90.890;  -60.930;    0.000;151.82000
 743.59;   81.180;  -62.190;    0.000;143.37000
 743.85;   74.630;  -73.310;    0.000;147.93999
 744.11;   81.160;  -63.690;    0.000;144.85000
 744.37;   74.330;  -58.170;    0.000;132.50000
 744.63;   69.790;  -65.230;    0.000;135.02000
 744.90;   62.930;  -72.800;    0.000;135.73000
 745.16;   71.590;  -57.920;    0.000;129.50999
 745.42;   75.630;  -62.790;    0.000;138.42000
 745.68;   71.210;  -55.010;    0.000;126.22000
 745.94;   79.210;  -55.100;    0.000;134.31000
 746.20;   64.520;  -54.310;    0.000;118.83000
 746.46;   72.080;  -60.150;    0.000;132.23000
 746.72;   76.190;  -51.640;    0.000;127.83000
 746.99;   57.680;  -60.120;    0.000;117.80000
 747.25;   71.430;  -53.010;    0.000;124.44000
 747.51;   60.180;  -65.470;    0.000;125.65000
 747.77;   64.190;  -60.410;    0.000;124.60000
 748.03;   61.280;  -67.950;    0.000;129.23000
 748.29;   56.920;  -58.140;    0.000;115.06000
 748.55;   68.570;  -70.260;    0.000;138.83000
 748.81;   57.020;  -63.530;    0.000;120.55000
 749.08;   65.070;  -67.880;    0.000;132.95000
 749.34;   54.960;  -63.460;    0.000;118.42000
 749.60;   54.010;  -60.810;    0.000;114.82000
 749.86;   56.930;  -53.480;    0.000;110.41000
 750.12;   44.750;  -69.350;    0.000;114.10000
 750.38;   56.240;  -65.040;    0.000;121.28000
 750.64;   44.850;  -75.360;    0.000;120.21000
 750.90;   51.960;  -57.730;    0.000;109.69000
 751.16;   42.880;  -72.650;    0.000;115.53000
 751.42;   41.820;  -66.050;    0.000;107.87000
 751.68;   48.360;  -55.770;    0.000;104.13000
 751.95;   31.870;  -68.120;    0.000;99.99000
 752.21;   40.210;  -73.710;    0.000;113.92000
 752.47;   32.060;  -65.780;    0.000;97.84000
 752.73;   29.480;  -68.460;    0.000;97.94000
 752.99;   28.250;  -65.620;    0.000;93.87000
 753.25;   35.030;  -71.920;    0.000;106.95000
 753.51;   30.530;  -65.730;    0.000;96.26000
 753.77;   22.690;  -65.570;    0.000;88.26000
 754.03;   30.400;  -62.250;    0.000;92.65000
 754.29;   28.820;  -73.500;    0.000;102.32000
 754.55;   29.160;  -62.200;    0.000;91.36000
 754.81;   23.870;  -67.770;    0.000;91.64000
 755.07;   25.870;  -63.760;    0.000;89.63000
 755.33;   19.730;  -72.470;    0.000;92.20000
 755.59;   16.040;  -62.720;    0.000;78.76000
 755.85;   21.490;  -72.300;    0.000;93.79000
 756.11;   25.810;  -63.710;    0.000;89.52000
 756.37;   23.080;  -65.050;    0.000;88.13000
 756.63;   32.090;  -46.260;    0.000;78.35000
 756.89;   12.480;  -68.760;    0.000;81.24000
 757.15;   16.850;  -63.070;    0.000;79.92000
 757.41;   35.480;  -60.190;    0.000;95.67000
 757.68;   18.870;  -60.550;    0.000;79.42000
 757.94;   26.890;  -62.430;    0.000;89.32000
 758.20;   35.080;  -50.770;    0.000;85.85000
 758.46;   16.390;  -72.870;    0.000;89.26000
 758.72;   15.700;  -60.630;    0.000;76.33000
 758.98;   14.430;  -67.190;    0.000;81.62000
 759.24;    9.550;  -60.950;    0.000;70.50000
 759.50;   12.720;  -65.080;    0.000;77.80000
 759.76;   25.890;  -52.950;    0.000;78.84000
 760.02;    9.570;  -68.640;    0.000;78.21000
 760.27;   11.190;  -66.730;    0.000;77.92000
 760.53;   11.650;  -63.330;    0.000;74.98000
 760.79;   15.510;  -55.120;    0.000;70.63000
 761.05;   10.550;  -65.560;    0.000;76.11000
 761.31;   20.330;  -50.350;    0.000;70.68000
 761.57;   19.180;  -60.250;    0.000;79.43000
 761.83;    4.380;  -64.180;    0.000;68.56000
 762.09;   -3.180;  -69.040;    0.000;65.86000
 762.35;   11.220;  -66.860;    0.000;78.08000
 762.61;   -0.770;  -67.680;    0.000;66.91000
 762.87;   10.670;  -58.700;    0.000;69.37000
 763.13;   -0.770;  -71.060;    0.000;70.29000
 763.39;   20.510;  -47.730;    0.000;68.24000
 763.65;   -5.300;  -71.990;    0.000;66.69000
 763.91;    1.540;  -68.860;    0.000;70.40000
 764.17;    8.100;  -60.390;    0.000;68.49000
 764.43;    5.270;  -62.800;    0.000;68.07000
 764.69;    1.770;  -70.830;    0.000;72.60000
 764.95;    3.840;  -57.460;    0.000;61.30000
 765.21;    2.140;  -75.860;    0.000;78.00000
 765.47;    1.220;  -58.260;    0.000;59.48000
 765.73;    5.100;  -64.620;    0.000;69.72000
 765.98;    5.170;  -50.970;    0.000;56.14000
 766.24;   -9.320;  -70.810;    0.000;61.49000
 766.50;   -4.360;  -70.380;    0.000;66.02000
 766.76;   -0.420;  -65.780;    0.000;65.36000
 767.02;   -4.000;  -70.800;    0.000;66.80000
 767.28;   -5.030;  -68.300;    0.000;63.27000
 767.54;   -9.570;  -62.740;    0.000;53.17000
 767.80;   -4.830;  -64.940;    0.000;60.11000
 768.06;    3.160;  -54.110;    0.000;57.27000
 768.32;    2.110;  -65.490;    0.000;67.60000
 768.58;   -7.250;  -66.120;    0.000;58.87000
 768.83;   -8.010;  -64.670;    0.000;56.66000
 769.09;   -6.500;  -63.170;    0.000;56.67000
 769.35;   -6.350;  -65.700;    0.000;59.35000
 769.61;   -4.390;  -57.700;    0.000;53.31000
 769.87;   -5.630;  -67.850;    0.000;62.22000
 770.13;   -3.190;  -57.810;    0.000;54.62000
 770.39;  -21.110;  -80.360;    0.000;59.25000
 770.65;   -5.120;  -65.130;    0.000;60.01000
 770.90;  -16.390;  -68.230;    0.000;51.84000
 771.16;  -15.790;  -68.730;    0.000;52.94000
 771.42;   -7.700;  -66.270;    0.000;58.57000
 771.68;  -14.310;  -66.190;    0.000;51.88000
 771.94;   -7.100;  -65.460;    0.000;58.36000
 772.20;  -12.680;  -69.220;    0.000;56.54000
 772.46;  -21.670;  -75.740;    0.000;54.07000
 772.71;   -9.480;  -60.950;    0.000;51.47000
 772.97;  -10.030;  -60.710;    0.000;50.68000
 773.23;  -15.350;  -62.140;    0.000;46.79000
 773.49;   -0.430;  -62.530;    0.000;62.10000
 773.75;  -18.730;  -61.650;    0.000;42.92000
 774.01;  -20.380;  -75.240;    0.000;54.86000
 774.26;  -24.120;  -71.900;    0.000;47.78000
 774.52;   -5.790;  -61.130;    0.000;55.34000
 774.78;  -12.950;  -67.460;    0.000;54.51000
 775.04;  -12.640;  -50.810;    0.000;38.17000
 775.30;  -13.340;  -66.290;    0.000;52.95000
 775.56;  -18.110;  -73.310;    0.000;55.20000
 775.81;  -12.320;  -66.090;    0.000;53.77000
 776.07;  -24.420;  -75.370;    0.000;50.95000
 776.33;  -20.110;  -68.460;    0.000;48.35000
 776.59;  -16.040;  -66.250;    0.000;50.21000
 776.85;  -27.380;  -65.230;    0.000;37.85000
 777.10;   -6.540;  -66.530;    0.000;59.99000
 777.36;  -18.560;  -76.320;    0.000;57.76000
 777.62;   -8.650;  -71.140;    0.000;62.49000
 777.88;  -12.900;  -67.550;    0.000;54.65000
 778.14;  -23.600;  -71.280;    0.000;47.68000
 778.39;  -21.860;  -59.350;    0.000;37.49000
 778.65;  -22.470;  -76.080;    0.000;53.61000
 778.91;  -31.080;  -69.460;    0.000;38.38000
 779.17;  -26.790;  -65.910;    0.000;39.12000
 779.42;  -22.980;  -70.000;    0.000;47.02000
 779.68;  -27.790;  -72.550;    0.000;44.76000
 779.94;  -21.110;  -61.510;    0.000;40.40000
 780.20;  -31.220;  -68.870;    0.000;37.65000
 780.46;  -31.050;  -64.180;    0.000;33.13000
 780.71;  -14.020;  -62.960;    0.000;48.94000
 780.97;  -21.250;  -64.720;    0.000;43.47000
 781.23;  -24.320;  -78.300;    0.000;53.98000
 781.49;  -24.300;  -56.640;    0.000;32.34000
 781.74;  -21.060;  -74.730;    0.000;53.67000
 782.00;  -31.320;  -75.150;    0.000;43.83000
 782.26;  -21.900;  -68.030;    0.000;46.13000
 782.52;  -30.500;  -62.660;    0.000;32.16000
 782.77;  -27.370;  -68.100;    0.000;40.73000
 783.03;  -32.240;  -69.130;    0.000;36.89000
 783.29;  -35.570;  -71.240;    0.000;35.67000
 783.54;  -28.320;  -62.780;    0.000;34.46000
 783.80;  -20.740;  -68.050;    0.000;47.31000
 784.06;  -24.430;  -63.550;    0.000;39.12000
 784.32;  -30.330;  -72.520;    0.000;42.19000
 784.57;   -5.080;  -47.820;    0.000;42.74000
 784.83;  -41.090;  -76.230;    0.000;35.14000
 785.09;  -33.610;  -76.220;    0.000;42.61000
 785.34;  -31.870;  -72.440;    0.000;40.57000
 785.60;  -25.180;  -59.580;    0.000;34.40000
 785.86;  -35.900;  -71.820;    0.000;35.92000
 786.12;  -21.360;  -61.570;    0.000;40.21000
 786.37;  -21.970;  -65.600;    0.000;43.63000
 786.63;  -39.830;  -71.170;    0.000;31.34000
 786.89;  -25.790;  -68.790;    0.000;43.00000
 787.14;  -28.720;  -54.860;    0.000;26.14000
 787.40;  -35.110;  -71.540;    0.000;36.43000
 787.66;  -28.460;  -65.770;    0.000;37.31000
 787.91;  -14.440;  -52.860;    0.000;38.42000
 788.17;  -36.060;  -65.710;    0.000;29.65000
 788.43;  -43.410;  -73.180;    0.000;29.77000
 788.68;  -35.700;  -71.660;    0.000;35.96000
 788.94;  -32.750;  -74.750;    0.000;42.00000
 789.20;  -29.250;  -64.840;    0.000;35.59000
 789.45;  -39.860;  -74.230;    0.000;34.37000
 789.71;  -38.160;  -67.010;    0.000;28.85000
 789.97;  -31.470;  -63.030;    0.000;31.56000
 790.22;  -32.120;  -65.710;    0.000;33.59000
 790.48;  -41.720;  -74.810;    0.000;33.09000
 790.74;  -33.560;  -63.640;    0.000;30.08000
 790.99;  -34.670;  -72.490;    0.000;37.82000
 791.25;  -41.410;  -64.710;    0.000;23.30000
 791.51;  -38.470;  -73.530;    0.000;35.06000
 791.76;  -28.450;  -59.650;    0.000;31.20000
 792.02;  -37.990;  -74.710;    0.000;36.72000
 792.27;  -29.810;  -54.830;    0.000;25.02000
 792.53;  -40.910;  -68.030;    0.000;27.12000
 792.79;  -43.630;  -66.160;    0.000;22.53000
 793.04;  -37.980;  -68.920;    0.000;30.94000
 793.30;  -40.590;  -70.820;    0.000;30.23000
 793.56;  -35.960;  -75.870;    0.000;39.91000
 793.81;  -28.610;  -50.310;    0.000;21.70000
 794.07;  -40.450;  -79.000;    0.000;38.55000
 794.32;  -31.620;  -65.900;    0.000;34.28000
 794.58;  -38.710;  -77.010;    0.000;38.30000
 794.84;  -41.700;  -60.880;    0.000;19.18000
 795.09;  -38.120;  -69.020;    0.000;30.90000
 795.35;  -32.850;  -61.980;    0.000;29.13000
 795.60;  -39.420;  -70.560;    0.000;31.14000
 795.86;  -40.320;  -63.860;    0.000;23.54000
 796.12;  -53.040;  -78.510;    0.000;25.47000
 796.37;  -42.950;  -68.490;    0.000;25.54000
 796.63;  -37.670;  -69.590;    0.000;31.92000
 796.88;  -54.990;  -65.560;    0.000;10.57000
 797.14;  -34.410;  -70.280;    0.000;35.87000
 797.39;  -34.020;  -65.640;    0.000;31.62000
 797.65;  -46.940;  -72.970;    0.000;26.03000
 797.91;  -43.560;  -73.160;    0.000;29.60000
 798.16;  -50.860;  -74.870;    0.000;24.01000
 798.42;  -45.100;  -70.790;    0.000;25.69000
 798.67;  -41.310;  -79.900;    0.000;38.59000
 798.93;  -44.500;  -66.230;    0.000;21.73000
 799.18;  -48.170;  -75.680;    0.000;27.51000
 799.44;  -44.610;  -66.210;    0.000;21.60000
 799.69;  -42.420;  -73.250;    0.000;30.83000
 799.95;  -49.260;  -73.750;    0.000;24.49000
 800.21;  -47.300;  -76.850;    0.000;29.55000
 800.46;  -29.550;  -51.900;    0.000;22.35000
 800.72;  -48.220;  -71.510;    0.000;23.29000
 800.97;  -45.980;  -72.510;    0.000;26.53000
 801.23;  -45.740;  -80.470;    0.000;34.73000
 801.48;  -52.680;  -76.540;    0.000;23.86000
 801.74;  -55.530;  -74.340;    0.000;18.81000
 801.99;  -39.170;  -63.730;    0.000;24.56000
 802.25;  -47.390;  -70.040;    0.000;22.65000
 802.50;  -48.250;  -65.610;    0.000;17.36000
 802.76;  -36.020;  -72.120;    0.000;36.10000
 803.01;  -53.010;  -74.290;    0.000;21.28000
 803.27;  -43.870;  -73.240;    0.000;29.37000
 803.52;  -39.070;  -60.520;    0.000;21.45000
 803.78;  -39.900;  -66.200;    0.000;26.30000
 804.03;  -42.980;  -59.220;    0.000;16.24000
 804.29;  -55.930;  -80.530;    0.000;24.60000
 804.54;  -46.680;  -66.360;    0.000;19.68000
 804.80;  -49.170;  -75.680;    0.000;26.51000
 805.05;  -53.360;  -69.490;    0.000;16.13000
 805.31;  -38.640;  -66.970;    0.000;28.33000
 805.56;  -43.210;  -58.470;    0.000;15.26000
 805.82;  -55.210;  -79.550;    0.000;24.34000
 806.07;  -37.470;  -62.310;    0.000;24.84000
 806.33;  -44.380;  -76.230;    0.000;31.85000
 806.58;  -53.760;  -74.560;    0.000;20.80000
 806.84;  -46.450;  -69.680;    0.000;23.23000
 807.09;  -49.580;  -67.630;    0.000;18.05000
 807.34;  -51.090;  -76.660;    0.000;25.57000
 807.60;  -45.150;  -58.680;    0.000;13.53000
 807.85;  -43.970;  -73.670;    0.000;29.70000
 808.11;  -47.240;  -69.550;    0.000;22.31000
 808.36;  -48.830;  -70.980;    0.000;22.15000
 808.62;  -49.060;  -71.470;    0.000;22.41000
 808.87;  -52.320;  -74.120;    0.000;21.80000
 809.13;  -56.590;  -74.600;    0.000;18.01000
 809.38;  -34.390;  -66.100;    0.000;31.71000
 809.63;  -54.710;  -67.340;    0.000;12.63000
 809.89;  -40.180;  -70.460;    0.000;30.28000
 810.14;  -52.140;  -68.440;    0.000;16.30000
 810.40;  -48.790;  -76.650;    0.000;27.86000
 810.65;  -49.890;  -67.160;    0.000;17.27000
 810.91;  -56.080;  -74.900;    0.000;18.82000
 811.16;  -41.380;  -63.330;    0.000;21.95000
 811.41;  -41.670;  -72.490;    0.000;30.82000
 811.67;  -46.990;  -74.880;    0.000;27.89000
 811.92;  -45.870;  -68.170;    0.000;22.30000
 812.18;  -52.830;  -67.550;    0.000;14.72000
 812.43;  -55.500;  -76.000;    0.000;20.50000
 812.68;  -39.840;  -66.340;    0.000;26.50000
 812.94;  -55.010;  -71.130;    0.000;16.12000
 813.19;  -54.960;  -71.760;    0.000;16.80000
 813.45;  -31.190;  -50.730;    0.000;19.54000
 813.70;  -44.610;  -72.270;    0.000;27.66000
 813.95;  -50.700;  -74.870;    0.000;24.17000
 814.21;  -40.850;  -61.840;    0.000;20.99000
 814.46;  -55.760;  -74.680;    0.000;18.92000
 814.71;  -60.040;  -74.920;    0.000;14.88000
 814.97;  -53.490;  -79.920;    0.000;26.43000
 815.22;  -58.650;  -71.060;    0.000;12.41000
 815.48;  -53.570;  -77.050;    0.000;23.48000
 815.73;  -42.770;  -64.440;    0.000;21.67000
 815.98;  -54.520;  -78.160;    0.000;23.64000
 816.24;  -52.350;  -70.740;    0.000;18.39000
 816.49;  -48.600;  -70.330;    0.000;21.73000
 816.74;  -49.510;  -68.280;    0.000;18.77000
 817.00;  -37.120;  -60.660;    0.000;23.54000
 817.25;  -47.290;  -70.740;    0.000;23.45000
 817.50;  -55.810;  -73.190;    0.000;17.38000
 817.76;  -60.540;  -71.160;    0.000;10.62000
 818.01;  -59.550;  -80.910;    0.000;21.36000
 818.26;  -53.970;  -69.950;    0.000;15.98000
 818.52;  -54.940;  -74.150;    0.000;19.21000
 818.77;  -52.500;  -73.060;    0.000;20.56000
 819.02;   55.130;   29.560;    0.000;25.57000
 819.28;  -54.960;  -64.620;    0.000; 9.66000
 819.53;  -60.360;  -79.640;    0.000;19.28000
 819.78;  -49.000;  -63.410;    0.000;14.41000
 820.04;  -65.130;  -80.400;    0.000;15.27000
 820.29;  -63.160;  -69.270;    0.000; 6.11000
 820.54;  -46.800;  -72.870;    0.000;26.07000
 820.79;  -49.770;  -63.880;    0.000;14.11000
 821.05;  -61.070;  -78.920;    0.000;17.85000
 821.30;  -44.540;  -57.000;    0.000;12.46000
 821.55;  -52.030;  -67.530;    0.000;15.50000
 821.81;  -54.740;  -65.110;    0.000;10.37000
 822.06;  -52.190;  -69.700;    0.000;17.51000
 822.31;  -40.850;  -54.340;    0.000;13.49000
 822.56;  -58.910;  -77.970;    0.000;19.06000
 822.82;  -57.230;  -69.810;    0.000;12.58000
 823.07;  -64.640;  -89.380;    0.000;24.74000
 823.32;  -59.880;  -75.860;    0.000;15.98000
 823.58;  -56.700;  -70.420;    0.000;13.72000
 823.83;  -55.680;  -70.980;    0.000;15.30000
 824.08;  -59.300;  -78.660;    0.000;19.36000
 824.33;  -64.750;  -75.510;    0.000;10.76000
 824.59;  -63.880;  -83.240;    0.000;19.36000
 824.84;  -57.940;  -69.990;    0.000;12.05000
 825.09;  -59.920;  -83.730;    0.000;23.81001
 825.34;  -57.770;  -74.630;    0.000;16.86000
 825.60;  -63.650;  -84.950;    0.000;21.30000
 825.85;  -63.760;  -74.770;    0.000;11.01000
 826.10;  -71.600;  -85.230;    0.000;13.63000
 826.35;  -59.140;  -69.940;    0.000;10.80000
 826.61;  -62.530;  -80.400;    0.000;17.87000
 826.86;  -65.160;  -79.490;    0.000;14.32999
 827.11;  -63.160;  -86.280;    0.000;23.12000
 827.36;  -62.970;  -71.910;    0.000; 8.94000
 827.61;  -67.930;  -84.850;    0.000;16.92000
 827.87;  -57.040;  -71.570;    0.000;14.53000
 828.12;  -65.730;  -78.830;    0.000;13.10000
 828.37;  -52.520;  -68.330;    0.000;15.81000
 828.62;  -65.230;  -77.270;    0.000;12.03999
 828.88;  -50.230;  -60.210;    0.000; 9.98000
 829.13;  -53.870;  -70.740;    0.000;16.87000
 829.38;  -62.900;  -69.280;    0.000; 6.38000
 829.63;  -64.540;  -83.630;    0.000;19.09000
 829.88;  -61.510;  -69.950;    0.000; 8.44000
 830.14;  -60.080;  -81.910;    0.000;21.83000
 830.39;  -50.200;  -58.230;    0.000; 8.03000
 830.64;  -70.510;  -82.670;    0.000;12.16000
 830.89;  -53.230;  -62.930;    0.000; 9.70000
 831.14;  -64.650;  -71.790;    0.000; 7.14000
 831.39;  -72.520;  -73.460;    0.000; 0.94000
 831.65;  -61.850;  -85.810;    0.000;23.96000
 831.90;  -65.430;  -75.250;    0.000; 9.82000
 832.15;  -65.930;  -75.760;    0.000; 9.83000
 832.40;  -55.140;  -68.560;    0.000;13.42000
 832.65;  -61.420;  -76.110;    0.000;14.69000
 832.90;  -66.820;  -74.690;    0.000; 7.87000
 833.16;  -64.650;  -72.190;    0.000; 7.54000
 833.41;  -63.300;  -74.650;    0.000;11.35000
 833.66;  -66.660;  -75.930;    0.000; 9.27000
 833.91;  -57.830;  -67.900;    0.000;10.07000
 834.16;  -64.270;  -86.950;    0.000;22.68000
 834.41;  -69.740;  -77.320;    0.000; 7.58000
 834.66;  -67.010;  -80.900;    0.000;13.89000
 834.92;  -64.390;  -78.390;    0.000;14.00000
 835.17;  -72.990;  -83.210;    0.000;10.22000
 835.42;  -65.260;  -71.510;    0.000; 6.25000
 835.67;  -63.320;  -72.580;    0.000; 9.26000
 835.92;  -66.000;  -66.140;    0.000; 0.14000
 836.17;  -75.020;  -85.970;    0.000;10.95000
 836.42;  -62.090;  -76.440;    0.000;14.35000
 836.67;  -67.530;  -84.830;    0.000;17.30000
 836.93;  -66.470;  -73.590;    0.000; 7.12000
 837.18;  -59.820;  -72.250;    0.000;12.43000
 837.43;  -65.920;  -78.260;    0.000;12.34000
 837.68;  -65.050;  -82.050;    0.000;17.00000
 837.93;  -69.790;  -76.650;    0.000; 6.86000
 838.18;  -74.450;  -83.090;    0.000; 8.64000
 838.43;  -67.010;  -77.150;    0.000;10.14000
 838.68;  -72.950;  -79.940;    0.000; 6.99001
 838.93;  -68.140;  -79.860;    0.000;11.72000
 839.18;  -72.960;  -78.450;    0.000; 5.49000
 839.43;  -58.320;  -61.670;    0.000; 3.35000
 839.69;  -73.050;  -86.230;    0.000;13.18000
 839.94;  -72.380;  -73.790;    0.000; 1.41000
 840.19;  -65.280;  -77.230;    0.000;11.95000
 840.44;  -64.780;  -72.120;    0.000; 7.34000
 840.69;  -62.710;  -81.760;    0.000;19.05000
 840.94;  -63.190;  -66.470;    0.000; 3.28000
 841.19;  -52.650;  -64.420;    0.000;11.77000
 841.44;  -62.430;  -68.610;    0.000; 6.18000
 841.69;  -58.040;  -64.030;    0.000; 5.99000
 841.94;  -71.310;  -75.480;    0.000; 4.17001
 842.19;  -73.130;  -83.640;    0.000;10.51000
 842.44;  -67.410;  -85.160;    0.000;17.75000
 842.69;  -63.630;  -77.660;    0.000;14.03000
 842.94;  -64.930;  -78.190;    0.000;13.26000
 843.19;  -74.380;  -78.290;    0.000; 3.91000
 843.44;  -72.410;  -75.980;    0.000; 3.57000
 843.69;  -74.630;  -86.680;    0.000;12.05000
 843.94;  -34.360;  -39.320;    0.000; 4.96000
 844.19;  -66.620;  -86.460;    0.000;19.84000
 844.44;  -57.430;  -55.430;    0.000;-2.00000
 844.69;  -75.470;  -79.810;    0.000; 4.34000
 844.95;  -68.190;  -73.690;    0.000; 5.50000
 845.20;  -71.090;  -89.580;    0.000;18.49001
 845.45;  -58.020;  -62.840;    0.000; 4.82000
 845.70;  -72.640;  -79.910;    0.000; 7.27000
 845.95;  -75.050;  -67.470;    0.000;-7.58000
 846.20;  -61.170;  -81.520;    0.000;20.35000
 846.45;  -71.750;  -76.240;    0.000; 4.49000
 846.70;  -65.050;  -83.210;    0.000;18.16000
 846.95;  -63.840;  -72.270;    0.000; 8.43000
 847.20;  -75.070;  -81.890;    0.000; 6.82000
 847.44;  -46.780;  -55.120;    0.000; 8.34000
 847.69;  -76.640;  -84.720;    0.000; 8.08000
 847.94;  -51.090;  -67.830;    0.000;16.74000
 848.19;  -71.620;  -79.830;    0.000; 8.21000
 848.44;  -59.580;  -67.870;    0.000; 8.29000
 848.69;  -66.930;  -78.940;    0.000;12.01000
 848.94;  -62.520;  -68.220;    0.000; 5.70000
 849.19;  -72.300;  -80.140;    0.000; 7.84000
 849.44;  -67.600;  -72.650;    0.000; 5.05000
 849.69;  -65.910;  -71.590;    0.000; 5.67999
 849.94;  -71.260;  -76.930;    0.000; 5.67000
 850.19;  -70.270;  -73.360;    0.000; 3.09000
 850.44;  -64.490;  -66.290;    0.000; 1.80000
 850.69;  -68.200;  -82.280;    0.000;14.08000
 850.94;  -69.010;  -74.510;    0.000; 5.50000
 851.19;  -71.310;  -79.970;    0.000; 8.66000
 851.44;  -67.980;  -74.230;    0.000; 6.25000
 851.69;  -76.570;  -88.970;    0.000;12.40000
 851.94;  -64.170;  -72.250;    0.000; 8.08000
 852.19;  -67.160;  -76.110;    0.000; 8.95000
 852.44;  -66.590;  -71.950;    0.000; 5.36000
 852.68;  -71.820;  -80.960;    0.000; 9.14000
 852.93;  -68.250;  -68.910;    0.000; 0.66000
 853.18;  -78.720;  -81.380;    0.000; 2.66000
 853.43;  -70.560;  -78.500;    0.000; 7.94000
 853.68;  -72.080;  -81.760;    0.000; 9.68000
 853.93;  -61.600;  -64.570;    0.000; 2.97000
 854.18;  -62.220;  -68.640;    0.000; 6.42000
 854.43;  -66.440;  -71.570;    0.000; 5.13000
 854.68;  -73.500;  -81.760;    0.000; 8.26000
 854.93;  -59.050;  -62.170;    0.000; 3.12000
 855.18;  -66.510;  -77.640;    0.000;11.13000
 855.42;  -58.340;  -66.050;    0.000; 7.71000
 855.67;  -76.010;  -78.320;    0.000; 2.31000
 855.92;  -75.720;  -82.080;    0.000; 6.36000
 856.17;  -65.520;  -75.620;    0.000;10.10001
 856.42;  -67.280;  -75.370;    0.000; 8.09000
 856.67;  -68.460;  -83.310;    0.000;14.85000
 856.92;  -64.920;  -76.990;    0.000;12.07000
 857.17;  -72.920;  -85.010;    0.000;12.09000
 857.41;  -65.900;  -78.320;    0.000;12.42000
 857.66;  -70.240;  -73.210;    0.000; 2.97000
 857.91;  -71.160;  -66.900;    0.000;-4.26000
 858.16;  -68.650;  -79.660;    0.000;11.01000
 858.41;  -71.890;  -73.780;    0.000; 1.89000
 858.66;  -63.870;  -75.720;    0.000;11.85000
 858.91;  -68.460;  -68.300;    0.000;-0.16000
 859.15;  -76.910;  -87.480;    0.000;10.57000
 859.40;  -55.820;  -62.810;    0.000; 6.99000
 859.65;  -78.540;  -77.170;    0.000;-1.37000
 859.90;  -77.500;  -73.530;    0.000;-3.97000
 860.15;  -67.500;  -77.320;    0.000; 9.82000
 860.40;  -63.350;  -61.790;    0.000;-1.56000
 860.64;  -70.610;  -74.900;    0.000; 4.29000
 860.89;  -73.780;  -74.710;    0.000; 0.93000
 861.14;  -75.800;  -82.280;    0.000; 6.48000
 861.39;  -70.510;  -66.620;    0.000;-3.89000
 861.64;  -77.180;  -83.440;    0.000; 6.26000
 861.88;  -61.550;  -63.350;    0.000; 1.80000
 862.13;  -75.720;  -79.620;    0.000; 3.90000
 862.38;  -68.700;  -72.850;    0.000; 4.15000
 862.63;  -74.360;  -90.030;    0.000;15.67000
 862.88;  -68.440;  -78.150;    0.000; 9.71000
 863.12;  -68.800;  -78.270;    0.000; 9.46999
 863.37;  -67.400;  -70.270;    0.000; 2.87000
 863.62;  -76.390;  -80.030;    0.000; 3.64000
 863.87;  -69.850;  -77.710;    0.000; 7.86000
 864.12;  -74.510;  -81.170;    0.000; 6.66000
 864.36;  -67.810;  -74.740;    0.000; 6.93000
 864.61;  -70.220;  -80.430;    0.000;10.21000
 864.86;  -71.250;  -75.370;    0.000; 4.12000
 865.11;  -66.580;  -80.000;    0.000;13.42000
 865.35;  -69.250;  -69.330;    0.000; 0.08000
 865.60;  -66.460;  -80.180;    0.000;13.72000
 865.85;  -62.250;  -69.460;    0.000; 7.21000
 866.10;  -72.810;  -78.520;    0.000; 5.71000
 866.34;  -61.700;  -70.970;    0.000; 9.27000
 866.59;  -63.510;  -72.940;    0.000; 9.43000
 866.84;  -68.360;  -80.580;    0.000;12.22000
 867.09;  -69.040;  -73.660;    0.000; 4.62000
 867.33;  -73.430;  -80.890;    0.000; 7.46000
 867.58;  -67.430;  -79.090;    0.000;11.66000
 867.83;  -78.540;  -76.030;    0.000;-2.51000
 868.08;  -70.110;  -75.930;    0.000; 5.82000
 868.32;  -70.840;  -77.890;    0.000; 7.05000
 868.57;  -75.080;  -80.570;    0.000; 5.49000
 868.82;  -64.360;  -70.280;    0.000; 5.92000
 869.07;  -77.310;  -88.570;    0.000;11.26000
 869.31;  -63.070;  -71.860;    0.000; 8.79000
 869.56;  -76.530;  -85.510;    0.000; 8.98000
 869.81;  -67.160;  -69.110;    0.000; 1.95000
 870.05;  -76.550;  -88.690;    0.000;12.14000
 870.30;  -67.780;  -71.000;    0.000; 3.22000
 870.55;  -65.050;  -73.990;    0.000; 8.93999
 870.80;  -62.270;  -67.800;    0.000; 5.53000
 871.04;  -69.870;  -74.740;    0.000; 4.87000
 871.29;  -69.250;  -71.980;    0.000; 2.73000
 871.54;  -69.200;  -81.420;    0.000;12.22000
 871.78;  -74.340;  -80.770;    0.000; 6.43000
 872.03;  -70.540;  -80.330;    0.000; 9.79000
 872.28;  -66.610;  -69.600;    0.000; 2.99000
 872.52;  -76.880;  -82.020;    0.000; 5.14000
 872.77;  -66.960;  -71.450;    0.000; 4.49000
 873.02;  -77.030;  -84.180;    0.000; 7.15000
 873.26;  -76.440;  -76.170;    0.000;-0.27000
 873.51;  -65.900;  -72.470;    0.000; 6.57000
 873.76;  -68.670;  -73.320;    0.000; 4.65000
 874.00;  -56.800;  -73.990;    0.000;17.19000
 874.25;  -75.670;  -81.590;    0.000; 5.92000
 874.50;  -77.510;  -83.150;    0.000; 5.64000
 874.74;  -74.070;  -73.370;    0.000;-0.70000
 874.99;  -71.490;  -84.660;    0.000;13.17001
 875.24;  -54.410;  -56.740;    0.000; 2.33000
 875.48;  -68.200;  -83.860;    0.000;15.66000
 875.73;  -64.870;  -76.130;    0.000;11.25999
 875.98;  -71.610;  -87.110;    0.000;15.50000
 876.22;  -66.480;  -67.050;    0.000; 0.57000
 876.47;  -65.290;  -73.650;    0.000; 8.36000
 876.71;  -63.960;  -72.930;    0.000; 8.97000
 876.96;  -60.970;  -71.230;    0.000;10.26000
 877.21;  -74.890;  -72.970;    0.000;-1.92000
 877.45;  -71.930;  -90.180;    0.000;18.25000
 877.70;  -65.990;  -75.560;    0.000; 9.57000
 877.95;  -68.360;  -77.820;    0.000; 9.46000
 878.19;  -55.180;  -61.360;    0.000; 6.18000
 878.44;  -65.420;  -81.190;    0.000;15.77000
 878.68;  -45.820;  -57.170;    0.000;11.35000
 878.93;  -65.740;  -78.570;    0.000;12.83000
 879.18;  -57.280;  -62.160;    0.000; 4.88000
 879.42;  -55.680;  -79.490;    0.000;23.81000
 879.67;  -72.430;  -77.840;    0.000; 5.41000
 879.91;  -67.280;  -69.200;    0.000; 1.92000
 880.16;  -59.810;  -68.380;    0.000; 8.57000
 880.40;  -64.400;  -76.600;    0.000;12.20000
 880.65;  -63.800;  -68.110;    0.000; 4.31000
 880.90;  -60.170;  -70.920;    0.000;10.75000
 881.14;  -66.160;  -63.690;    0.000;-2.47001
 881.39;  -76.600;  -79.520;    0.000; 2.92000
 881.63;  -64.460;  -68.090;    0.000; 3.63000
 881.88;  -65.500;  -73.090;    0.000; 7.59000
 882.12;  -65.170;  -68.080;    0.000; 2.91000
 882.37;  -67.810;  -77.030;    0.000; 9.22000
 882.62;  -73.020;  -77.360;    0.000; 4.34000
 882.86;  -70.970;  -78.920;    0.000; 7.95000
 883.11;  -73.380;  -70.390;    0.000;-2.99000
 883.35;  -60.630;  -74.500;    0.000;13.87000
 883.60;  -50.190;  -66.560;    0.000;16.37000
 883.84;  -65.490;  -73.180;    0.000; 7.69000
 884.09;  -61.540;  -70.450;    0.000; 8.91000
 884.33;  -62.460;  -77.520;    0.000;15.06000
 884.58;  -70.520;  -68.190;    0.000;-2.32999
 884.82;  -71.220;  -79.030;    0.000; 7.81000
 885.07;  -61.850;  -71.510;    0.000; 9.66000
 885.31;  -61.020;  -74.710;    0.000;13.69000
 885.56;  -65.550;  -64.690;    0.000;-0.86000
 885.80;  -71.970;  -83.130;    0.000;11.16000
 886.05;  -65.500;  -80.190;    0.000;14.69000
 886.29;  -57.060;  -74.270;    0.000;17.21000
 886.54;  -67.960;  -72.290;    0.000; 4.33000
 886.78;  -56.540;  -72.100;    0.000;15.56000
 887.03;  -53.290;  -62.750;    0.000; 9.46000
 887.27;  -50.300;  -62.270;    0.000;11.97000
 887.52;  -61.250;  -68.600;    0.000; 7.35000
 887.76;  -61.270;  -70.110;    0.000; 8.84000
 888.01;  -61.460;  -72.830;    0.000;11.37000
 888.25;  -59.840;  -76.670;    0.000;16.83000
 888.50;  -52.270;  -65.300;    0.000;13.03000
 888.74;  -56.490;  -73.030;    0.000;16.54000
 888.99;  -66.040;  -68.560;    0.000; 2.52000
 889.23;  -63.210;  -74.740;    0.000;11.53000
 889.48;  -64.330;  -67.330;    0.000; 3.00000
 889.72;  -58.310;  -65.430;    0.000; 7.12000
 889.97;  -54.410;  -65.610;    0.000;11.20000
 890.21;  -61.240;  -69.450;    0.000; 8.21000
 890.46;  -54.510;  -61.290;    0.000; 6.78000
 890.70;  -66.860;  -79.650;    0.000;12.79000
 890.94;  -51.410;  -61.400;    0.000; 9.99000
 891.19;  -60.980;  -69.150;    0.000; 8.17000
 891.43;  -51.420;  -57.360;    0.000; 5.94000
 891.68;  -48.470;  -55.550;    0.000; 7.08000
 891.92;  -57.930;  -60.700;    0.000; 2.77000
 892.17;  -66.700;  -66.860;    0.000; 0.16000
 892.41;  -47.190;  -59.720;    0.000;12.53000
 892.66;  -59.800;  -76.190;    0.000;16.39000
 892.90;  -37.590;  -40.820;    0.000; 3.23000
 893.14;  -55.920;  -75.130;    0.000;19.21000
 893.39;  -49.820;  -60.740;    0.000;10.92000
 893.63;  -65.950;  -77.900;    0.000;11.95000
 893.88;  -56.080;  -69.930;    0.000;13.85000
 894.12;  -61.230;  -70.570;    0.000; 9.34000
 894.36;  -49.280;  -57.010;    0.000; 7.73000
 894.61;  -52.980;  -65.570;    0.000;12.59000
 894.85;  -53.020;  -57.860;    0.000; 4.84000
 895.10;  -46.410;  -63.260;    0.000;16.85000
 895.34;  -52.780;  -66.190;    0.000;13.41000
 895.58;  -54.790;  -69.510;    0.000;14.72000
 895.83;  -51.700;  -58.440;    0.000; 6.74000
 896.07;  -49.030;  -67.190;    0.000;18.16000
 896.32;  -52.870;  -56.170;    0.000; 3.30000
 896.56;  -51.690;  -71.090;    0.000;19.40000
 896.80;  -52.700;  -60.750;    0.000; 8.05000
 897.05;  -53.100;  -71.180;    0.000;18.08000
 897.29;  -45.290;  -50.870;    0.000; 5.58000
 897.53;  -51.560;  -67.890;    0.000;16.33000
 897.78;  -49.840;  -59.750;    0.000; 9.91000
 898.02;  -38.390;  -54.440;    0.000;16.05000
 898.26;  -50.430;  -60.460;    0.000;10.03000
 898.51;  -48.270;  -69.080;    0.000;20.81000
 898.75;  -40.040;  -54.110;    0.000;14.07000
 898.99;  -51.940;  -62.590;    0.000;10.65000
 899.24;  -44.800;  -50.380;    0.000; 5.58000
 899.48;  -40.110;  -65.060;    0.000;24.95000
 899.73;  -47.230;  -51.990;    0.000; 4.76000
 899.97;  -36.020;  -46.710;    0.000;10.69000
 900.21;  -33.470;  -46.190;    0.000;12.72000
 900.46;  -29.010;  -42.660;    0.000;13.65000
 900.70;  -21.280;  -32.140;    0.000;10.86000
 900.94;  -42.230;  -52.880;    0.000;10.65000
 901.18;  -34.450;  -32.620;    0.000;-1.83000
 901.43;  -30.670;  -49.310;    0.000;18.64000
 901.67;  -28.260;  -40.040;    0.000;11.78000
 901.91;  -26.450;  -38.500;    0.000;12.05000
 902.16;   -9.670;  -26.680;    0.000;17.01000
 902.40;  -15.690;  -25.580;    0.000; 9.89000
 902.64;  -23.620;  -27.800;    0.000; 4.18000
 902.89;  -22.320;  -30.210;    0.000; 7.89000
 903.13;   -4.940;  -14.870;    0.000; 9.93000
 903.37;   -4.300;  -27.280;    0.000;22.98000
 903.61;    5.410;    0.170;    0.000; 5.24000
 903.86;    1.870;  -13.960;    0.000;15.83000
 904.10;   15.110;    7.550;    0.000; 7.56000
 904.34;   16.470;    7.360;    0.000; 9.11000
 904.59;   25.470;   19.820;    0.000; 5.65000
 904.83;   38.950;   28.120;    0.000;10.83000
 905.07;   57.310;   43.760;    0.000;13.55000
 905.31;   61.780;   52.600;    0.000; 9.18000
 905.56;   78.240;   74.450;    0.000; 3.79000
 905.80;   95.760;   83.880;    0.000;11.88000

