
Integration time [ms]:  10.000
Averaging Nr. [scans]: 100
Smoothing Nr. [pixels]: 0
Data measured with spectrometer [name]: 1307077U2
Wave   ;Sample   ;Dark     ;Reference;Scope Corrected for Dark
[nm]   ;[counts] ;[counts] ;[counts] 

 350.80;    1.310;    4.030;    0.000;-2.72000
 351.10;    4.590;   -4.180;    0.000; 8.77000
 351.39;    2.100;    2.470;    0.000;-0.37000
 351.69;   -2.780;   -5.160;    0.000; 2.38000
 351.99;   -0.050;    6.180;    0.000;-6.23000
 352.28;   -4.200;  -10.540;    0.000; 6.34000
 352.58;   -1.200;    5.710;    0.000;-6.91000
 352.88;  -10.810;    5.210;    0.000;-16.02000
 353.17;    7.070;   14.010;    0.000;-6.94000
 353.47;   -1.330;   -9.550;    0.000; 8.22000
 353.76;    8.120;    8.350;    0.000;-0.23000
 354.06;    4.860;   -1.640;    0.000; 6.50000
 354.36;    2.170;    3.130;    0.000;-0.96000
 354.65;    8.740;    2.490;    0.000; 6.25000
 354.95;   -2.550;   -4.840;    0.000; 2.29000
 355.24;   -5.200;   -6.230;    0.000; 1.03000
 355.54;   10.220;    5.960;    0.000; 4.26000
 355.84;    3.000;   -2.430;    0.000; 5.43000
 356.13;   19.730;   14.640;    0.000; 5.09000
 356.43;   -2.300;  -16.650;    0.000;14.35000
 356.72;    3.780;   -2.860;    0.000; 6.64000
 357.02;   -1.180;   -4.950;    0.000; 3.77000
 357.31;   11.710;   15.180;    0.000;-3.47000
 357.61;   16.570;    0.860;    0.000;15.71000
 357.91;   -0.820;   -0.030;    0.000;-0.79000
 358.20;   -5.450;   -6.640;    0.000; 1.19000
 358.50;   -1.140;   -1.800;    0.000; 0.66000
 358.79;   -4.220;   -6.380;    0.000; 2.16000
 359.09;    9.000;    7.630;    0.000; 1.37000
 359.38;   -2.780;   -4.280;    0.000; 1.50000
 359.68;  -11.910;   -3.990;    0.000;-7.92000
 359.98;    3.630;   -9.890;    0.000;13.52000
 360.27;    4.990;    3.120;    0.000; 1.87000
 360.57;   -1.770;   -9.860;    0.000; 8.09000
 360.86;    4.000;    4.120;    0.000;-0.12000
 361.16;   -5.060;   -9.770;    0.000; 4.71000
 361.45;    1.990;   -2.580;    0.000; 4.57000
 361.75;   -1.290;   -7.950;    0.000; 6.66000
 362.04;   22.700;   21.750;    0.000; 0.95000
 362.34;    2.510;  -10.000;    0.000;12.51000
 362.64;   -1.830;    2.910;    0.000;-4.74000
 362.93;   -7.180;   -9.640;    0.000; 2.46000
 363.23;    0.760;   -0.950;    0.000; 1.71000
 363.52;   -8.830;   -9.960;    0.000; 1.13000
 363.82;    1.210;   -1.210;    0.000; 2.42000
 364.11;    0.870;   -0.330;    0.000; 1.20000
 364.41;   -5.440;   -7.080;    0.000; 1.64000
 364.70;   -1.860;   -9.350;    0.000; 7.49000
 365.00;    8.990;    2.780;    0.000; 6.21000
 365.29;   -5.120;   -8.860;    0.000; 3.74000
 365.59;   -3.330;   -0.230;    0.000;-3.10000
 365.88;   -9.320;  -13.770;    0.000; 4.45000
 366.18;    0.010;   -0.050;    0.000; 0.06000
 366.47;   -4.070;   -8.130;    0.000; 4.06000
 366.77;    2.590;    1.200;    0.000; 1.39000
 367.06;   -1.240;   -5.020;    0.000; 3.78000
 367.36;    7.690;    8.050;    0.000;-0.36000
 367.65;    4.750;   -3.440;    0.000; 8.19000
 367.95;    1.680;   -3.460;    0.000; 5.14000
 368.24;   -3.650;   -6.160;    0.000; 2.51000
 368.54;   -6.880;   -1.860;    0.000;-5.02000
 368.83;    8.660;    4.430;    0.000; 4.23000
 369.13;    4.520;    3.080;    0.000; 1.44000
 369.42;    0.700;   -7.200;    0.000; 7.90000
 369.72;    4.890;    1.890;    0.000; 3.00000
 370.01;    1.400;   -8.200;    0.000; 9.60000
 370.31;    8.150;    5.490;    0.000; 2.66000
 370.60;    9.610;    5.190;    0.000; 4.42000
 370.90;    5.190;    2.280;    0.000; 2.91000
 371.19;   -3.210;  -14.890;    0.000;11.68000
 371.49;   -7.040;   -5.010;    0.000;-2.03000
 371.78;   -3.080;  -15.390;    0.000;12.31000
 372.08;    4.890;   -0.720;    0.000; 5.61000
 372.37;   -2.170;   -7.980;    0.000; 5.81000
 372.67;    2.150;    7.150;    0.000;-5.00000
 372.96;   -1.460;   -8.630;    0.000; 7.17000
 373.26;    0.230;   -6.050;    0.000; 6.28000
 373.55;    2.130;  -10.400;    0.000;12.53000
 373.85;   -4.360;   -8.440;    0.000; 4.08000
 374.14;   -1.580;   -7.130;    0.000; 5.55000
 374.43;   -4.380;    6.000;    0.000;-10.38000
 374.73;   -4.160;   -8.200;    0.000; 4.04000
 375.02;    7.610;    6.040;    0.000; 1.57000
 375.32;   -4.620;   -8.280;    0.000; 3.66000
 375.61;   -0.250;   -4.320;    0.000; 4.07000
 375.91;   -4.380;  -10.610;    0.000; 6.23000
 376.20;  -10.290;  -11.900;    0.000; 1.61000
 376.50;   -0.320;   -8.930;    0.000; 8.61000
 376.79;   -7.930;  -11.570;    0.000; 3.64000
 377.08;  -15.180;  -17.270;    0.000; 2.09000
 377.38;   -8.330;    3.140;    0.000;-11.47000
 377.67;   -1.320;   -4.850;    0.000; 3.53000
 377.97;   -4.550;   -6.580;    0.000; 2.03000
 378.26;   -6.070;  -11.160;    0.000; 5.09000
 378.56;   -8.000;  -10.070;    0.000; 2.07000
 378.85;    3.750;   -2.180;    0.000; 5.93000
 379.14;   -2.990;   -4.480;    0.000; 1.49000
 379.44;  -11.850;  -12.520;    0.000; 0.67000
 379.73;    2.000;   -1.390;    0.000; 3.39000
 380.03;   -1.860;    1.420;    0.000;-3.28000
 380.32;   -1.220;   -7.470;    0.000; 6.25000
 380.62;  -11.430;  -18.470;    0.000; 7.04000
 380.91;    4.090;    0.800;    0.000; 3.29000
 381.20;   -5.880;  -15.290;    0.000; 9.41000
 381.50;    4.450;   -1.950;    0.000; 6.40000
 381.79;   -4.700;  -15.050;    0.000;10.35000
 382.09;   -2.870;    1.220;    0.000;-4.09000
 382.38;   -2.050;   -8.980;    0.000; 6.93000
 382.67;   -1.230;   -6.760;    0.000; 5.53000
 382.97;   -3.510;   -7.720;    0.000; 4.21000
 383.26;   -2.350;    1.020;    0.000;-3.37000
 383.56;   -2.150;  -10.020;    0.000; 7.87000
 383.85;   -4.130;   -6.070;    0.000; 1.94000
 384.14;    3.350;  -14.150;    0.000;17.50000
 384.44;   -6.150;   -0.890;    0.000;-5.26000
 384.73;   -5.300;   -7.150;    0.000; 1.85000
 385.02;    4.220;   -2.920;    0.000; 7.14000
 385.32;   -1.820;   -3.830;    0.000; 2.01000
 385.61;  -15.380;  -13.580;    0.000;-1.80000
 385.91;    2.650;   -9.020;    0.000;11.67000
 386.20;   -7.390;  -14.970;    0.000; 7.58000
 386.49;  -10.870;  -15.310;    0.000; 4.44000
 386.79;   -2.970;   -6.270;    0.000; 3.30000
 387.08;   -3.970;  -10.690;    0.000; 6.72000
 387.37;    2.790;   -4.540;    0.000; 7.33000
 387.67;   -4.360;  -13.490;    0.000; 9.13000
 387.96;   -5.260;   -7.140;    0.000; 1.88000
 388.25;   -2.950;  -13.000;    0.000;10.05000
 388.55;   -7.370;  -11.590;    0.000; 4.22000
 388.84;   -4.640;  -13.480;    0.000; 8.84000
 389.14;    3.250;   -4.870;    0.000; 8.12000
 389.43;   -7.440;   -7.270;    0.000;-0.17000
 389.72;   -9.140;   -3.600;    0.000;-5.54000
 390.02;  -18.760;  -15.150;    0.000;-3.61000
 390.31;    0.160;   -3.970;    0.000; 4.13000
 390.60;   -6.920;   -9.800;    0.000; 2.88000
 390.90;   -2.480;   -1.730;    0.000;-0.75000
 391.19;   -8.270;  -13.590;    0.000; 5.32000
 391.48;   -7.210;   -4.990;    0.000;-2.22000
 391.78;   -6.430;   -6.390;    0.000;-0.04000
 392.07;   36.480;   36.750;    0.000;-0.27000
 392.36;   -0.170;  -11.230;    0.000;11.06000
 392.66;   -6.150;   -8.300;    0.000; 2.15000
 392.95;   -2.910;  -19.820;    0.000;16.91000
 393.24;  -17.080;  -11.730;    0.000;-5.35000
 393.53;   -7.300;  -15.730;    0.000; 8.43000
 393.83;   -8.900;  -10.950;    0.000; 2.05000
 394.12;   -8.650;  -16.390;    0.000; 7.74000
 394.41;   -8.670;   -7.450;    0.000;-1.22000
 394.71;   -1.160;  -12.950;    0.000;11.79000
 395.00;   -6.650;   -7.620;    0.000; 0.97000
 395.29;    1.380;   -8.310;    0.000; 9.69000
 395.59;   -7.060;  -13.230;    0.000; 6.17000
 395.88;  -12.930;   -9.550;    0.000;-3.38000
 396.17;   -7.460;  -10.600;    0.000; 3.14000
 396.46;    3.990;   -2.150;    0.000; 6.14000
 396.76;   -4.280;   -5.400;    0.000; 1.12000
 397.05;    8.500;    1.250;    0.000; 7.25000
 397.34;  -10.720;  -12.160;    0.000; 1.44000
 397.64;   -8.590;  -11.990;    0.000; 3.40000
 397.93;  -11.910;  -10.290;    0.000;-1.62000
 398.22;  -14.910;  -20.930;    0.000; 6.02000
 398.51;   -3.550;   -7.580;    0.000; 4.03000
 398.81;  -15.140;  -17.770;    0.000; 2.63000
 399.10;   -5.700;   -1.830;    0.000;-3.87000
 399.39;   -4.390;  -18.860;    0.000;14.47000
 399.69;   -3.190;   -9.380;    0.000; 6.19000
 399.98;   -1.930;  -11.540;    0.000; 9.61000
 400.27;  -15.210;  -15.330;    0.000; 0.12000
 400.56;  -19.630;  -12.910;    0.000;-6.72000
 400.86;   -3.430;  -10.400;    0.000; 6.97000
 401.15;   -5.660;   -6.510;    0.000; 0.85000
 401.44;   -7.500;  -10.610;    0.000; 3.11000
 401.73;    0.190;   -7.690;    0.000; 7.88000
 402.03;   -4.920;   -4.040;    0.000;-0.88000
 402.32;  -13.820;  -19.160;    0.000; 5.34000
 402.61;   -6.300;   -1.730;    0.000;-4.57000
 402.90;  -14.250;  -16.990;    0.000; 2.74000
 403.20;    0.550;   -2.910;    0.000; 3.46000
 403.49;   -7.560;   -9.760;    0.000; 2.20000
 403.78;   -7.650;  -11.610;    0.000; 3.96000
 404.07;  -12.750;  -22.560;    0.000; 9.81000
 404.37;   -5.370;  -12.400;    0.000; 7.03000
 404.66;   -6.230;  -17.920;    0.000;11.69000
 404.95;   -3.500;   -3.130;    0.000;-0.37000
 405.24;   -7.730;  -14.390;    0.000; 6.66000
 405.53;   -8.230;   -6.780;    0.000;-1.45000
 405.83;    0.860;  -12.330;    0.000;13.19000
 406.12;   -9.590;  -19.690;    0.000;10.10000
 406.41;    2.530;   -3.820;    0.000; 6.35000
 406.70;   -8.900;   -6.390;    0.000;-2.51000
 407.00;   -3.080;  -17.760;    0.000;14.68000
 407.29;   -5.220;   -5.640;    0.000; 0.42000
 407.58;  -10.690;  -18.150;    0.000; 7.46000
 407.87;  -14.810;  -10.380;    0.000;-4.43000
 408.16;  -12.160;  -17.260;    0.000; 5.10000
 408.46;   -6.600;  -12.130;    0.000; 5.53000
 408.75;   -4.700;  -15.780;    0.000;11.08000
 409.04;   -3.810;   -1.600;    0.000;-2.21000
 409.33;   -5.070;  -13.340;    0.000; 8.27000
 409.62;   -0.190;   -2.450;    0.000; 2.26000
 409.92;   -3.240;   -6.880;    0.000; 3.64000
 410.21;  -11.260;  -15.900;    0.000; 4.64000
 410.50;  -10.340;  -20.780;    0.000;10.44000
 410.79;   -0.410;   -5.100;    0.000; 4.69000
 411.08;   -7.120;  -13.180;    0.000; 6.06000
 411.37;  -16.970;   -8.590;    0.000;-8.38000
 411.67;   -6.980;  -14.900;    0.000; 7.92000
 411.96;   -7.420;  -12.600;    0.000; 5.18000
 412.25;  -10.400;  -17.930;    0.000; 7.53000
 412.54;   -7.440;  -12.620;    0.000; 5.18000
 412.83;  -10.740;  -16.690;    0.000; 5.95000
 413.13;  -12.000;   -9.100;    0.000;-2.90000
 413.42;  -11.470;  -21.200;    0.000; 9.73000
 413.71;   -2.330;   -1.600;    0.000;-0.73000
 414.00;  -12.490;  -26.150;    0.000;13.66000
 414.29;    2.810;   -3.360;    0.000; 6.17000
 414.58;  -18.200;  -19.610;    0.000; 1.41000
 414.87;   -4.050;  -12.000;    0.000; 7.95000
 415.17;  -16.010;  -17.230;    0.000; 1.22000
 415.46;   -9.750;   -8.680;    0.000;-1.07000
 415.75;   -7.990;   -6.700;    0.000;-1.29000
 416.04;   -2.730;  -10.910;    0.000; 8.18000
 416.33;   -7.070;  -11.250;    0.000; 4.18000
 416.62;   -5.410;  -15.020;    0.000; 9.61000
 416.91;   -9.330;  -12.540;    0.000; 3.21000
 417.21;  -12.070;  -13.820;    0.000; 1.75000
 417.50;  -13.880;  -22.670;    0.000; 8.79000
 417.79;  -14.230;  -14.150;    0.000;-0.08000
 418.08;   -7.810;  -22.610;    0.000;14.80000
 418.37;  -12.520;   -8.440;    0.000;-4.08000
 418.66;  -15.550;  -12.690;    0.000;-2.86000
 418.95;    0.960;   -4.060;    0.000; 5.02000
 419.24;   -9.020;  -16.540;    0.000; 7.52000
 419.54;   -2.460;   -4.710;    0.000; 2.25000
 419.83;  -11.150;  -17.210;    0.000; 6.06000
 420.12;  -12.670;   -9.330;    0.000;-3.34000
 420.41;    2.490;   -1.720;    0.000; 4.21000
 420.70;  -10.720;  -12.920;    0.000; 2.20000
 420.99;   -5.110;  -13.160;    0.000; 8.05000
 421.28;  -12.320;   -9.530;    0.000;-2.79000
 421.57;   -7.000;  -19.200;    0.000;12.20000
 421.86;   12.270;   -0.530;    0.000;12.80000
 422.16;   -2.500;  -11.590;    0.000; 9.09000
 422.45;   -8.000;  -15.740;    0.000; 7.74000
 422.74;   -7.980;  -14.600;    0.000; 6.62000
 423.03;   -5.960;   -1.000;    0.000;-4.96000
 423.32;  -16.240;  -19.120;    0.000; 2.88000
 423.61;    6.100;   -1.410;    0.000; 7.51000
 423.90;   -5.190;  -14.280;    0.000; 9.09000
 424.19;   20.400;   17.330;    0.000; 3.07000
 424.48;  -12.360;  -13.500;    0.000; 1.14000
 424.77;   -6.180;   -7.810;    0.000; 1.63000
 425.06;   -7.260;  -11.550;    0.000; 4.29000
 425.35;   -0.070;   -2.890;    0.000; 2.82000
 425.65;  -13.080;  -19.130;    0.000; 6.05000
 425.94;   -7.830;  -14.880;    0.000; 7.05000
 426.23;   -9.270;  -24.160;    0.000;14.89000
 426.52;  -11.650;  -15.130;    0.000; 3.48000
 426.81;    2.290;   -2.380;    0.000; 4.67000
 427.10;  -13.310;  -14.170;    0.000; 0.86000
 427.39;   -9.660;  -18.300;    0.000; 8.64000
 427.68;  -13.290;   -9.370;    0.000;-3.92000
 427.97;   -7.200;  -14.330;    0.000; 7.13000
 428.26;  -10.080;  -19.050;    0.000; 8.97000
 428.55;    7.440;   -8.910;    0.000;16.35000
 428.84;   -0.400;   -4.380;    0.000; 3.98000
 429.13;   -8.690;  -14.120;    0.000; 5.43000
 429.42;   -3.480;   -1.830;    0.000;-1.65000
 429.71;   -3.520;  -11.710;    0.000; 8.19000
 430.00;  -10.980;  -13.910;    0.000; 2.93000
 430.29;  -17.870;  -25.330;    0.000; 7.46000
 430.58;   -9.120;  -14.890;    0.000; 5.77000
 430.87;  -11.860;  -16.420;    0.000; 4.56000
 431.16;  -14.510;  -20.530;    0.000; 6.02000
 431.46;   -6.660;  -12.910;    0.000; 6.25000
 431.75;  -17.830;  -19.130;    0.000; 1.30000
 432.04;   -5.160;   -8.890;    0.000; 3.73000
 432.33;   -6.550;  -20.210;    0.000;13.66000
 432.62;   -7.500;   -9.300;    0.000; 1.80000
 432.91;  -10.090;  -13.020;    0.000; 2.93000
 433.20;   -9.060;  -18.270;    0.000; 9.21000
 433.49;   -7.020;  -14.130;    0.000; 7.11000
 433.78;  -21.210;  -23.820;    0.000; 2.61000
 434.07;   -8.060;  -16.610;    0.000; 8.55000
 434.36;  -14.050;  -16.950;    0.000; 2.90000
 434.65;  -18.480;  -27.030;    0.000; 8.55000
 434.94;   -9.250;  -19.310;    0.000;10.06000
 435.23;   -0.640;   -5.090;    0.000; 4.45000
 435.52;   -9.910;  -13.640;    0.000; 3.73000
 435.81;   -9.040;   -6.560;    0.000;-2.48000
 436.10;   -7.440;  -18.360;    0.000;10.92000
 436.39;   -0.150;   -1.810;    0.000; 1.66000
 436.68;   -2.170;  -11.450;    0.000; 9.28000
 436.97;  -11.120;  -11.940;    0.000; 0.82000
 437.26;   -7.220;  -15.160;    0.000; 7.94000
 437.55;   -7.740;   -9.340;    0.000; 1.60000
 437.83;  -16.520;  -24.130;    0.000; 7.61000
 438.12;  -14.570;  -18.050;    0.000; 3.48000
 438.41;   -9.870;  -16.450;    0.000; 6.58000
 438.70;    2.530;    5.100;    0.000;-2.57000
 438.99;   -1.410;   -6.560;    0.000; 5.15000
 439.28;   -0.750;  -16.310;    0.000;15.56000
 439.57;  -13.530;  -26.570;    0.000;13.04000
 439.86;   -5.660;  -22.850;    0.000;17.19000
 440.15;   -3.220;  -18.290;    0.000;15.07000
 440.44;  -10.920;  -10.400;    0.000;-0.52000
 440.73;   -7.710;  -18.710;    0.000;11.00000
 441.02;   -6.450;  -12.870;    0.000; 6.42000
 441.31;   -2.530;  -12.510;    0.000; 9.98000
 441.60;   -5.110;   -5.700;    0.000; 0.59000
 441.89;  -24.230;  -20.000;    0.000;-4.23000
 442.18;   -7.810;  -17.290;    0.000; 9.48000
 442.47;  -16.780;  -23.560;    0.000; 6.78000
 442.76;   -7.860;  -22.050;    0.000;14.19000
 443.05;   -2.130;  -10.700;    0.000; 8.57000
 443.34;  -15.460;  -15.160;    0.000;-0.30000
 443.63;  -16.230;  -23.400;    0.000; 7.17000
 443.91;   -5.110;  -12.690;    0.000; 7.58000
 444.20;  -10.100;  -20.000;    0.000; 9.90000
 444.49;  -19.530;  -19.950;    0.000; 0.42000
 444.78;   -8.370;  -18.340;    0.000; 9.97000
 445.07;   -1.270;   -5.870;    0.000; 4.60000
 445.36;  -16.420;  -26.980;    0.000;10.56000
 445.65;   -9.880;  -13.340;    0.000; 3.46000
 445.94;  -17.260;  -18.160;    0.000; 0.90000
 446.23;   -4.730;  -10.830;    0.000; 6.10000
 446.52;   -7.290;  -19.630;    0.000;12.34000
 446.81;   -2.610;   -3.250;    0.000; 0.64000
 447.10;   -9.410;  -16.850;    0.000; 7.44000
 447.38;  -13.510;   -9.000;    0.000;-4.51000
 447.67;   -5.310;  -16.460;    0.000;11.15000
 447.96;  -10.120;  -15.930;    0.000; 5.81000
 448.25;   -6.940;  -11.520;    0.000; 4.58000
 448.54;  -12.420;  -14.940;    0.000; 2.52000
 448.83;  -11.070;  -23.010;    0.000;11.94000
 449.12;  -10.330;  -12.830;    0.000; 2.50000
 449.41;   -7.900;  -21.820;    0.000;13.92000
 449.70;   -6.760;  -15.120;    0.000; 8.36000
 449.98;  -15.650;  -24.820;    0.000; 9.17000
 450.27;   -2.660;  -10.730;    0.000; 8.07000
 450.56;  -14.560;  -32.070;    0.000;17.51000
 450.85;   -6.000;  -17.010;    0.000;11.01000
 451.14;  -20.540;  -19.960;    0.000;-0.58000
 451.43;  -12.250;  -22.330;    0.000;10.08000
 451.72;  -19.970;  -25.220;    0.000; 5.25000
 452.01;   -0.510;   -8.480;    0.000; 7.97000
 452.29;  -17.610;  -25.040;    0.000; 7.43000
 452.58;  -13.750;  -19.810;    0.000; 6.06000
 452.87;  -17.630;  -25.340;    0.000; 7.71000
 453.16;  -10.870;  -19.590;    0.000; 8.72000
 453.45;   -7.820;  -18.650;    0.000;10.83000
 453.74;   -4.160;  -12.950;    0.000; 8.79000
 454.03;  -10.640;  -24.100;    0.000;13.46000
 454.31;  -16.410;  -16.240;    0.000;-0.17000
 454.60;  -17.390;  -19.330;    0.000; 1.94000
 454.89;    0.070;  -11.120;    0.000;11.19000
 455.18;  -12.130;  -27.130;    0.000;15.00000
 455.47;  -13.030;  -21.170;    0.000; 8.14000
 455.76;  -16.000;  -24.610;    0.000; 8.61000
 456.04;   -5.370;  -11.030;    0.000; 5.66000
 456.33;  -14.780;  -18.760;    0.000; 3.98000
 456.62;   -7.080;  -19.610;    0.000;12.53000
 456.91;  -18.500;  -28.380;    0.000; 9.88000
 457.20;    3.450;   -5.630;    0.000; 9.08000
 457.49;   -5.840;  -27.200;    0.000;21.36000
 457.77;  -18.830;  -17.300;    0.000;-1.53000
 458.06;   -4.530;  -18.500;    0.000;13.97000
 458.35;   -9.370;  -17.400;    0.000; 8.03000
 458.64;  -14.060;  -24.560;    0.000;10.50000
 458.93;  -10.240;  -18.030;    0.000; 7.79000
 459.21;  -15.360;  -24.490;    0.000; 9.13000
 459.50;   -9.780;  -10.930;    0.000; 1.15000
 459.79;  -14.330;  -29.690;    0.000;15.36000
 460.08;   -9.050;  -20.110;    0.000;11.06000
 460.37;  -17.230;  -20.120;    0.000; 2.89000
 460.65;   -6.010;  -13.690;    0.000; 7.68000
 460.94;  -14.610;  -23.190;    0.000; 8.58000
 461.23;   -5.750;  -21.260;    0.000;15.51000
 461.52;   -0.620;   -7.100;    0.000; 6.48000
 461.81;   -8.180;  -22.900;    0.000;14.72000
 462.09;   -7.850;  -18.640;    0.000;10.79000
 462.38;  -18.700;  -21.600;    0.000; 2.90000
 462.67;  -20.150;  -27.600;    0.000; 7.45000
 462.96;  -17.440;  -18.400;    0.000; 0.96000
 463.24;  -14.790;  -21.500;    0.000; 6.71000
 463.53;   -5.810;  -11.730;    0.000; 5.92000
 463.82;  -15.020;  -24.760;    0.000; 9.74000
 464.11;  -16.830;  -21.340;    0.000; 4.51000
 464.40;   -7.340;  -28.780;    0.000;21.44000
 464.68;  -13.290;  -25.400;    0.000;12.11000
 464.97;   -9.610;  -22.490;    0.000;12.88000
 465.26;   -4.730;  -12.310;    0.000; 7.58000
 465.55;  -14.750;  -25.340;    0.000;10.59000
 465.83;   -9.420;  -16.630;    0.000; 7.21000
 466.12;  -17.810;  -27.950;    0.000;10.14000
 466.41;  -10.570;  -13.760;    0.000; 3.19000
 466.70;  -17.990;  -27.320;    0.000; 9.33000
 466.98;  -11.600;  -19.100;    0.000; 7.50000
 467.27;   -9.860;  -15.890;    0.000; 6.03000
 467.56;    3.780;   -3.140;    0.000; 6.92000
 467.85;   -3.990;  -21.160;    0.000;17.17000
 468.13;  -18.510;  -10.210;    0.000;-8.30000
 468.42;  -13.020;  -21.810;    0.000; 8.79000
 468.71;   -6.280;  -21.960;    0.000;15.68000
 468.99;   -4.850;  -23.670;    0.000;18.82000
 469.28;  -10.930;  -23.740;    0.000;12.81000
 469.57;  -21.910;  -24.310;    0.000; 2.40000
 469.86;  -11.900;  -17.130;    0.000; 5.23000
 470.14;  -16.780;  -27.390;    0.000;10.61000
 470.43;   -6.820;   -3.080;    0.000;-3.74000
 470.72;  -19.770;  -30.520;    0.000;10.75000
 471.00;  -17.910;  -27.340;    0.000; 9.43000
 471.29;    3.560;  -16.820;    0.000;20.38000
 471.58;    0.610;   -1.770;    0.000; 2.38000
 471.87;  -10.020;  -23.530;    0.000;13.51000
 472.15;  -15.990;  -20.140;    0.000; 4.15000
 472.44;    1.340;  -10.790;    0.000;12.13000
 472.73;  -12.400;  -24.380;    0.000;11.98000
 473.01;  -11.150;  -31.480;    0.000;20.33000
 473.30;   -7.850;  -18.050;    0.000;10.20000
 473.59;  -10.210;  -21.600;    0.000;11.39000
 473.87;   -9.650;  -20.000;    0.000;10.35000
 474.16;  -10.610;  -31.170;    0.000;20.56000
 474.45;   -7.310;  -20.640;    0.000;13.33000
 474.74;  -15.620;  -32.260;    0.000;16.64000
 475.02;   -5.430;  -12.660;    0.000; 7.23000
 475.31;   -7.160;  -19.370;    0.000;12.21000
 475.60;    1.810;  -16.310;    0.000;18.12000
 475.88;   -4.470;  -28.060;    0.000;23.59000
 476.17;    2.430;   -7.100;    0.000; 9.53000
 476.46;  -13.110;  -25.100;    0.000;11.99000
 476.74;  -11.390;  -16.590;    0.000; 5.20000
 477.03;  -11.750;  -32.260;    0.000;20.51000
 477.32;   -5.230;   -9.990;    0.000; 4.76000
 477.60;   -5.180;  -25.170;    0.000;19.99000
 477.89;    1.480;  -14.410;    0.000;15.89000
 478.18;   -1.990;  -24.840;    0.000;22.85000
 478.46;   -4.330;  -12.980;    0.000; 8.65000
 478.75;  -14.550;  -26.450;    0.000;11.90000
 479.03;   -8.800;  -18.610;    0.000; 9.81000
 479.32;   -1.100;  -18.010;    0.000;16.91000
 479.61;   -4.990;  -17.740;    0.000;12.75000
 479.89;   -6.550;  -32.470;    0.000;25.92000
 480.18;   -1.360;  -19.180;    0.000;17.82000
 480.47;   -4.340;  -19.530;    0.000;15.19000
 480.75;   -2.200;  -21.460;    0.000;19.26000
 481.04;    1.490;  -21.890;    0.000;23.38000
 481.33;    5.940;  -19.190;    0.000;25.13000
 481.61;    3.910;  -26.000;    0.000;29.91000
 481.90;   -4.210;  -24.330;    0.000;20.12000
 482.18;    9.000;  -12.870;    0.000;21.87000
 482.47;   12.670;   -9.230;    0.000;21.90000
 482.76;    4.640;  -27.380;    0.000;32.02000
 483.04;   17.420;  -19.970;    0.000;37.39000
 483.33;    8.980;  -36.330;    0.000;45.31000
 483.61;   18.920;  -21.150;    0.000;40.07000
 483.90;   20.330;  -27.790;    0.000;48.12000
 484.19;   19.190;  -28.550;    0.000;47.74000
 484.47;   32.180;  -29.920;    0.000;62.10000
 484.76;   32.390;  -26.270;    0.000;58.66000
 485.05;   36.990;  -21.290;    0.000;58.28000
 485.33;   42.650;  -21.790;    0.000;64.44000
 485.62;   40.790;  -30.440;    0.000;71.23000
 485.90;   57.260;  -21.610;    0.000;78.87000
 486.19;   57.030;  -28.210;    0.000;85.24000
 486.47;   82.320;   -4.970;    0.000;87.29000
 486.76;   70.150;  -33.520;    0.000;103.67000
 487.05;  103.130;  -17.370;    0.000;120.50000
 487.33;   95.730;  -27.740;    0.000;123.47000
 487.62;  107.700;  -25.220;    0.000;132.92000
 487.90;  112.690;  -24.810;    0.000;137.50000
 488.19;  138.040;  -10.100;    0.000;148.13999
 488.47;  163.100;  -22.810;    0.000;185.91001
 488.76;  161.660;  -18.670;    0.000;180.33000
 489.05;  179.650;  -15.140;    0.000;194.78999
 489.33;  194.920;  -21.140;    0.000;216.06000
 489.62;  207.670;  -24.230;    0.000;231.90000
 489.90;  219.580;  -27.030;    0.000;246.61000
 490.19;  237.770;  -30.750;    0.000;268.52000
 490.47;  267.910;  -22.180;    0.000;290.09000
 490.76;  286.600;  -22.340;    0.000;308.94001
 491.05;  311.340;  -12.260;    0.000;323.60000
 491.33;  322.660;  -22.510;    0.000;345.17000
 491.62;  351.210;  -21.570;    0.000;372.77999
 491.90;  367.760;  -26.480;    0.000;394.24001
 492.19;  396.630;  -26.160;    0.000;422.79000
 492.47;  425.160;  -30.670;    0.000;455.83000
 492.76;  461.170;  -23.690;    0.000;484.86001
 493.04;  491.590;  -20.900;    0.000;512.49000
 493.33;  514.440;  -27.540;    0.000;541.98000
 493.61;  553.010;  -29.360;    0.000;582.37001
 493.90;  596.770;  -15.540;    0.000;612.31002
 494.18;  621.940;  -20.750;    0.000;642.69000
 494.47;  667.010;  -30.060;    0.000;697.07001
 494.75;  680.280;  -29.080;    0.000;709.36003
 495.04;  731.670;  -18.440;    0.000;750.10998
 495.32;  774.430;  -33.110;    0.000;807.53999
 495.61;  813.680;  -28.570;    0.000;842.24999
 495.89;  847.090;  -37.530;    0.000;884.62003
 496.18;  910.970;  -23.250;    0.000;934.21997
 496.46;  942.270;  -23.180;    0.000;965.45002
 496.75; 1001.720;  -21.450;    0.000;1023.16997
 497.03; 1037.980;  -28.260;    0.000;1066.23998
 497.32; 1102.470;  -24.590;    0.000;1127.05997
 497.60; 1131.110;  -31.160;    0.000;1162.26999
 497.89; 1199.050;  -20.470;    0.000;1219.52005
 498.17; 1256.300;  -31.270;    0.000;1287.57005
 498.46; 1312.570;  -22.930;    0.000;1335.49995
 498.74; 1365.150;  -23.650;    0.000;1388.80002
 499.03; 1420.210;  -20.030;    0.000;1440.23996
 499.31; 1484.960;  -31.270;    0.000;1516.22996
 499.60; 1545.300;  -18.610;    0.000;1563.91005
 499.88; 1621.820;  -10.980;    0.000;1632.79995
 500.17; 1659.260;  -24.320;    0.000;1683.58001
 500.45; 1726.920;  -35.700;    0.000;1762.62004
 500.74; 1788.000;  -22.620;    0.000;1810.62000
 501.02; 1844.270;  -33.630;    0.000;1877.90002
 501.31; 1907.050;  -17.610;    0.000;1924.66005
 501.59; 1997.060;  -29.560;    0.000;2026.62006
 501.88; 2055.760;  -13.950;    0.000;2069.71001
 502.16; 2116.400;  -34.760;    0.000;2151.15990
 502.45; 2194.800;  -16.300;    0.000;2211.10005
 502.73; 2249.730;  -30.760;    0.000;2280.48998
 503.01; 2341.370;  -24.340;    0.000;2365.71012
 503.30; 2380.630;  -37.940;    0.000;2418.56988
 503.58; 2458.080;  -23.090;    0.000;2481.17008
 503.87; 2542.530;  -21.060;    0.000;2563.59003
 504.15; 2600.310;  -30.190;    0.000;2630.50006
 504.44; 2678.630;  -27.590;    0.000;2706.21988
 504.72; 2778.680;  -10.570;    0.000;2789.24993
 505.00; 2824.660;  -34.250;    0.000;2858.90991
 505.29; 2925.470;   -9.520;    0.000;2934.98997
 505.57; 2958.330;  -29.130;    0.000;2987.46008
 505.86; 3047.890;  -27.820;    0.000;3075.70989
 506.14; 3145.690;  -35.780;    0.000;3181.46994
 506.43; 3220.600;  -12.910;    0.000;3233.51010
 506.71; 3267.400;  -34.180;    0.000;3301.57990
 506.99; 3355.380;  -30.960;    0.000;3386.33988
 507.28; 3457.470;  -19.100;    0.000;3476.56997
 507.56; 3500.550;  -24.830;    0.000;3525.38005
 507.85; 3571.800;  -37.590;    0.000;3609.39005
 508.13; 3632.650;  -19.100;    0.000;3651.74990
 508.41; 3742.390;  -12.480;    0.000;3754.86989
 508.70; 3808.660;  -25.360;    0.000;3834.01991
 508.98; 3884.710;  -28.380;    0.000;3913.08996
 509.27; 3949.090;  -20.760;    0.000;3969.85009
 509.55; 4064.830;  -24.450;    0.000;4089.28008
 509.83; 4103.610;  -25.210;    0.000;4128.81986
 510.12; 4199.860;  -32.590;    0.000;4232.44986
 510.40; 4279.620;  -21.830;    0.000;4301.45012
 510.69; 4344.610;  -24.150;    0.000;4368.75986
 510.97; 4414.790;  -16.710;    0.000;4431.50004
 511.25; 4487.110;  -35.350;    0.000;4522.45986
 511.54; 4550.480;  -25.090;    0.000;4575.56998
 511.82; 4624.210;  -17.590;    0.000;4641.79996
 512.11; 4712.550;  -22.350;    0.000;4734.89981
 512.39; 4779.680;  -32.070;    0.000;4811.75018
 512.67; 4838.850;  -25.880;    0.000;4864.73010
 512.96; 4935.470;  -28.850;    0.000;4964.32022
 513.24; 4954.290;  -17.400;    0.000;4971.69004
 513.52; 5055.990;  -26.700;    0.000;5082.69024
 513.81; 5115.170;  -12.470;    0.000;5127.63992
 514.09; 5135.020;  -39.120;    0.000;5174.14002
 514.37; 5218.580;  -27.600;    0.000;5246.18008
 514.66; 5284.340;  -17.040;    0.000;5301.37984
 514.94; 5375.740;  -21.390;    0.000;5397.13023
 515.22; 5400.880;  -27.790;    0.000;5428.66988
 515.51; 5509.140;  -29.040;    0.000;5538.18014
 515.79; 5568.790;  -28.800;    0.000;5597.59004
 516.07; 5625.400;  -17.270;    0.000;5642.66990
 516.36; 5696.870;  -41.720;    0.000;5738.59012
 516.64; 5752.050;  -19.320;    0.000;5771.36980
 516.92; 5851.920;  -31.610;    0.000;5883.52992
 517.21; 5892.630;  -33.320;    0.000;5925.94988
 517.49; 6032.130;  -31.350;    0.000;6063.47988
 517.77; 6122.350;  -19.740;    0.000;6142.09010
 518.06; 6168.340;  -30.270;    0.000;6198.60984
 518.34; 6193.660;  -12.260;    0.000;6205.92016
 518.62; 6281.900;  -21.610;    0.000;6303.50990
 518.91; 6348.200;  -12.930;    0.000;6361.13020
 519.19; 6412.340;  -34.590;    0.000;6446.92984
 519.47; 6470.630;  -20.490;    0.000;6491.11988
 519.76; 6521.560;  -21.550;    0.000;6543.11006
 520.04; 6613.700;  -14.340;    0.000;6628.04020
 520.32; 6667.850;  -23.830;    0.000;6691.68010
 520.61; 6734.410;   -5.440;    0.000;6739.85016
 520.89; 6773.010;  -37.640;    0.000;6810.64977
 521.17; 6841.660;  -26.850;    0.000;6868.51016
 521.45; 6883.900;  -23.640;    0.000;6907.53990
 521.74; 6972.340;  -17.740;    0.000;6990.07984
 522.02; 7015.970;  -26.720;    0.000;7042.69021
 522.30; 7066.920;  -14.940;    0.000;7081.85992
 522.59; 7143.990;  -21.350;    0.000;7165.34023
 522.87; 7167.720;  -32.120;    0.000;7199.84021
 523.15; 7247.920;  -18.770;    0.000;7266.68992
 523.43; 7278.260;  -28.200;    0.000;7306.45977
 523.72; 7318.180;  -31.700;    0.000;7349.88018
 524.00; 7400.530;  -22.390;    0.000;7422.91978
 524.28; 7446.830;  -27.040;    0.000;7473.87008
 524.57; 7501.210;  -20.090;    0.000;7521.29996
 524.85; 7533.050;  -34.840;    0.000;7567.88980
 525.13; 7627.300;  -17.120;    0.000;7644.41981
 525.41; 7649.620;  -19.600;    0.000;7669.22012
 525.70; 7679.170;  -20.520;    0.000;7699.68992
 525.98; 7744.520;  -37.750;    0.000;7782.27002
 526.26; 7845.040;  -23.650;    0.000;7868.69004
 526.54; 7824.240;  -26.170;    0.000;7850.41023
 526.83; 7912.030;  -28.490;    0.000;7940.51978
 527.11; 7974.310;  -27.630;    0.000;8001.94006
 527.39; 8029.050;  -17.980;    0.000;8047.02980
 527.67; 8053.590;  -25.250;    0.000;8078.83984
 527.96; 8102.270;  -18.240;    0.000;8120.51002
 528.24; 8164.130;  -32.040;    0.000;8196.16988
 528.52; 8236.800;  -22.060;    0.000;8258.85980
 528.80; 8261.590;  -16.360;    0.000;8277.94984
 529.08; 8321.670;  -24.400;    0.000;8346.06992
 529.37; 8368.520;  -29.260;    0.000;8397.77953
 529.65; 8435.330;  -13.830;    0.000;8449.16008
 529.93; 8481.260;  -22.430;    0.000;8503.68977
 530.21; 8512.030;  -21.460;    0.000;8533.49027
 530.50; 8556.370;  -30.250;    0.000;8586.62012
 530.78; 8596.010;  -14.630;    0.000;8610.63977
 531.06; 8624.100;  -20.080;    0.000;8644.17961
 531.34; 8695.730;  -25.820;    0.000;8721.55047
 531.62; 8734.390;  -31.660;    0.000;8766.04965
 531.91; 8794.940;  -15.940;    0.000;8810.88043
 532.19; 8830.460;  -25.720;    0.000;8856.17996
 532.47; 8859.520;  -18.110;    0.000;8877.62953
 532.75; 8912.810;  -21.440;    0.000;8934.24957
 533.03; 8965.450;  -17.220;    0.000;8982.67019
 533.32; 8992.210;  -17.810;    0.000;9010.01996
 533.60; 9002.850;   -9.970;    0.000;9012.81961
 533.88; 9081.140;  -15.710;    0.000;9096.84965
 534.16; 9102.160;  -18.090;    0.000;9120.25016
 534.44; 9171.400;  -10.590;    0.000;9181.99039
 534.72; 9206.290;  -23.730;    0.000;9230.02004
 535.01; 9197.740;  -27.150;    0.000;9224.89023
 535.29; 9299.040;  -21.960;    0.000;9321.00004
 535.57; 9278.380;  -23.210;    0.000;9301.58988
 535.85; 9351.440;  -13.690;    0.000;9365.13043
 536.13; 9384.530;  -28.500;    0.000;9413.03027
 536.42; 9411.170;  -21.980;    0.000;9433.14992
 536.70; 9466.760;  -24.950;    0.000;9491.70977
 536.98; 9523.890;  -20.220;    0.000;9544.10965
 537.26; 9523.830;  -29.690;    0.000;9553.52008
 537.54; 9591.000;  -20.250;    0.000;9611.25000
 537.82; 9605.780;  -25.520;    0.000;9631.30027
 538.10; 9639.480;  -26.660;    0.000;9666.14047
 538.39; 9652.890;  -21.750;    0.000;9674.63965
 538.67; 9698.110;  -22.250;    0.000;9720.36035
 538.95; 9764.050;  -30.330;    0.000;9794.37980
 539.23; 9767.530;  -19.740;    0.000;9787.27027
 539.51; 9796.390;  -23.770;    0.000;9820.15965
 539.79; 9836.760;  -24.990;    0.000;9861.74977
 540.07; 9858.230;  -36.040;    0.000;9894.27047
 540.36; 9889.750;  -32.000;    0.000;9921.75000
 540.64; 9956.990;  -27.990;    0.000;9984.98023
 540.92; 9943.790;  -16.720;    0.000;9960.51004
 541.20;10000.380;  -22.670;    0.000;10023.04988
 541.48;10027.480;   -5.030;    0.000;10032.51047
 541.76;10074.270;  -30.870;    0.000;10105.13953
 542.04;10099.880;  -20.340;    0.000;10120.21988
 542.32;10123.850;  -29.390;    0.000;10153.23961
 542.61;10137.070;  -19.070;    0.000;10156.14031
 542.89;10166.620;  -13.970;    0.000;10180.59012
 543.17;10197.960;  -18.380;    0.000;10216.33996
 543.45;10244.380;  -27.300;    0.000;10271.67988
 543.73;10280.960;  -30.880;    0.000;10311.83996
 544.01;10307.250;  -28.330;    0.000;10335.58000
 544.29;10318.270;  -23.230;    0.000;10341.49953
 544.57;10326.870;  -30.670;    0.000;10357.54012
 544.85;10347.350;  -31.850;    0.000;10379.19961
 545.13;10388.250;  -29.720;    0.000;10417.97000
 545.42;10396.840;  -22.510;    0.000;10419.34984
 545.70;10482.240;  -25.810;    0.000;10508.05023
 545.98;10484.070;  -29.460;    0.000;10513.53031
 546.26;10455.420;  -23.710;    0.000;10479.12992
 546.54;10497.300;  -27.350;    0.000;10524.64981
 546.82;10503.370;  -27.350;    0.000;10530.72012
 547.10;10521.300;  -28.060;    0.000;10549.35980
 547.38;10532.830;  -26.980;    0.000;10559.81008
 547.66;10600.970;  -20.600;    0.000;10621.56973
 547.94;10586.580;  -26.620;    0.000;10613.20008
 548.22;10584.900;  -18.210;    0.000;10603.11039
 548.50;10594.370;  -33.930;    0.000;10628.30012
 548.78;10628.040;  -19.160;    0.000;10647.20004
 549.06;10631.460;  -26.480;    0.000;10657.93996
 549.34;10651.930;  -26.050;    0.000;10677.97969
 549.63;10658.710;  -22.420;    0.000;10681.12996
 549.91;10678.760;  -20.450;    0.000;10699.20977
 550.19;10737.630;  -20.960;    0.000;10758.58988
 550.47;10699.490;  -23.490;    0.000;10722.98023
 550.75;10713.930;  -35.020;    0.000;10748.94969
 551.03;10732.220;  -20.560;    0.000;10752.77973
 551.31;10772.440;  -24.020;    0.000;10796.46043
 551.59;10778.890;  -16.240;    0.000;10795.12965
 551.87;10769.950;  -23.530;    0.000;10793.48020
 552.15;10791.020;  -28.140;    0.000;10819.15953
 552.43;10787.960;  -14.870;    0.000;10802.82996
 552.71;10819.720;  -21.280;    0.000;10840.99973
 552.99;10823.240;  -21.520;    0.000;10844.76023
 553.27;10835.460;  -25.870;    0.000;10861.32996
 553.55;10835.630;  -23.860;    0.000;10859.48988
 553.83;10863.920;  -19.210;    0.000;10883.12992
 554.11;10909.340;  -21.190;    0.000;10930.52984
 554.39;10926.330;  -17.150;    0.000;10943.48008
 554.67;10934.000;  -26.640;    0.000;10960.64000
 554.95;10928.900;    3.920;    0.000;10924.98039
 555.23;10877.700;  -11.960;    0.000;10889.66020
 555.51;10879.360;  -21.900;    0.000;10901.26035
 555.79;10910.570;  -23.970;    0.000;10934.54031
 556.07;10905.620;  -19.910;    0.000;10925.53012
 556.35;10891.380;  -18.640;    0.000;10910.01988
 556.63;10910.900;  -12.070;    0.000;10922.97039
 556.91;10915.490;   -1.640;    0.000;10917.13023
 557.19;10909.950;  -13.940;    0.000;10923.89019
 557.47;10866.450;  -13.060;    0.000;10879.51020
 557.75;10910.400;  -15.340;    0.000;10925.74039
 558.03;10918.030;  -13.480;    0.000;10931.51027
 558.31;10908.420;  -19.320;    0.000;10927.73992
 558.59;10950.410;  -31.280;    0.000;10981.69016
 558.87;10942.850;  -13.310;    0.000;10956.15961
 559.15;10918.580;  -29.070;    0.000;10947.65008
 559.43;10950.240;  -25.000;    0.000;10975.24023
 559.71;10958.630;  -21.670;    0.000;10980.29988
 559.99;10902.360;  -21.350;    0.000;10923.71035
 560.27;10911.040;  -24.410;    0.000;10935.45004
 560.55;10950.180;  -16.770;    0.000;10966.94969
 560.82;10951.900;  -40.520;    0.000;10992.42039
 561.10;10905.980;  -21.030;    0.000;10927.01047
 561.38;10906.650;  -31.620;    0.000;10938.27039
 561.66;10900.780;  -19.200;    0.000;10919.98027
 561.94;10898.830;  -32.500;    0.000;10931.33008
 562.22;10891.240;  -18.950;    0.000;10910.19024
 562.50;10872.440;  -22.930;    0.000;10895.37043
 562.78;10898.830;  -21.880;    0.000;10920.71008
 563.06;10839.870;  -25.020;    0.000;10864.89012
 563.34;10829.410;  -23.340;    0.000;10852.75016
 563.62;10822.350;  -28.600;    0.000;10850.94961
 563.90;10792.710;  -24.780;    0.000;10817.48996
 564.18;10803.080;  -23.890;    0.000;10826.97008
 564.46;10773.390;  -31.800;    0.000;10805.18965
 564.74;10752.270;  -36.810;    0.000;10789.07953
 565.01;10781.500;  -18.650;    0.000;10800.15000
 565.29;10778.340;  -31.200;    0.000;10809.53984
 565.57;10703.670;  -24.140;    0.000;10727.80992
 565.85;10718.080;  -30.170;    0.000;10748.25008
 566.13;10662.740;  -25.400;    0.000;10688.14023
 566.41;10648.180;  -20.760;    0.000;10668.93969
 566.69;10653.250;  -20.180;    0.000;10673.43000
 566.97;10625.940;  -29.100;    0.000;10655.04043
 567.25;10635.520;  -23.320;    0.000;10658.83953
 567.53;10624.790;  -37.960;    0.000;10662.75004
 567.80;10635.800;  -17.520;    0.000;10653.31981
 568.08;10578.830;  -24.640;    0.000;10603.47008
 568.36;10562.890;  -31.890;    0.000;10594.77965
 568.64;10512.480;  -36.700;    0.000;10549.18047
 568.92;10526.260;  -19.060;    0.000;10545.31977
 569.20;10483.070;  -33.620;    0.000;10516.69031
 569.48;10482.950;  -28.970;    0.000;10511.92019
 569.76;10445.240;  -38.390;    0.000;10483.63023
 570.03;10409.120;  -30.740;    0.000;10439.86012
 570.31;10370.850;  -26.680;    0.000;10397.52961
 570.59;10395.960;  -30.140;    0.000;10426.09996
 570.87;10311.060;  -36.880;    0.000;10347.93957
 571.15;10310.660;  -34.680;    0.000;10345.34016
 571.43;10329.510;  -25.070;    0.000;10354.57977
 571.71;10280.020;  -27.830;    0.000;10307.84953
 571.98;10226.620;  -36.950;    0.000;10263.57012
 572.26;10242.600;  -31.860;    0.000;10274.45961
 572.54;10226.670;  -30.510;    0.000;10257.17992
 572.82;10181.150;  -26.230;    0.000;10207.38039
 573.10;10126.780;  -29.670;    0.000;10156.45027
 573.38;10161.380;  -24.500;    0.000;10185.87988
 573.66;10129.400;  -37.870;    0.000;10167.27039
 573.93;10049.940;  -25.520;    0.000;10075.46043
 574.21;10065.930;  -44.710;    0.000;10110.63969
 574.49; 9987.180;  -29.650;    0.000;10016.82969
 574.77; 9959.120;  -29.070;    0.000;9988.19012
 575.05; 9975.890;  -17.380;    0.000;9993.26965
 575.33; 9923.120;  -34.780;    0.000;9957.90012
 575.60; 9861.870;  -27.030;    0.000;9888.90012
 575.88; 9860.720;  -27.440;    0.000;9888.15973
 576.16; 9810.750;  -28.700;    0.000;9839.45000
 576.44; 9818.660;  -26.920;    0.000;9845.58016
 576.72; 9728.880;  -35.650;    0.000;9764.52988
 576.99; 9711.640;  -36.450;    0.000;9748.08965
 577.27; 9680.410;  -27.480;    0.000;9707.89016
 577.55; 9669.430;  -21.740;    0.000;9691.16969
 577.83; 9608.700;  -27.910;    0.000;9636.61020
 578.11; 9581.280;  -39.940;    0.000;9621.22027
 578.38; 9541.070;  -31.370;    0.000;9572.44031
 578.66; 9518.290;  -41.950;    0.000;9560.24004
 578.94; 9498.670;  -30.900;    0.000;9529.56992
 579.22; 9489.460;  -31.660;    0.000;9521.11996
 579.50; 9455.670;  -15.330;    0.000;9470.99992
 579.77; 9420.450;  -36.810;    0.000;9457.26020
 580.05; 9350.160;  -29.770;    0.000;9379.93016
 580.33; 9312.630;  -40.660;    0.000;9353.28988
 580.61; 9291.540;  -26.940;    0.000;9318.48004
 580.88; 9216.960;  -32.860;    0.000;9249.81996
 581.16; 9198.960;  -27.910;    0.000;9226.86996
 581.44; 9193.040;  -27.700;    0.000;9220.74004
 581.72; 9107.150;  -32.140;    0.000;9139.29039
 581.99; 9098.990;  -30.970;    0.000;9129.96023
 582.27; 9059.090;  -33.160;    0.000;9092.24984
 582.55; 9022.390;  -39.520;    0.000;9061.90965
 582.83; 8958.780;  -24.610;    0.000;8983.39027
 583.10; 8914.130;  -35.980;    0.000;8950.10988
 583.38; 8894.450;  -34.240;    0.000;8928.69020
 583.66; 8863.530;  -27.940;    0.000;8891.47027
 583.94; 8800.100;  -30.520;    0.000;8830.61961
 584.21; 8726.830;  -39.870;    0.000;8766.70008
 584.49; 8754.320;  -38.450;    0.000;8792.77031
 584.77; 8661.670;  -46.110;    0.000;8707.77992
 585.05; 8617.530;  -30.740;    0.000;8648.27027
 585.32; 8604.990;  -45.880;    0.000;8650.87024
 585.60; 8538.460;  -33.420;    0.000;8571.87996
 585.88; 8515.100;  -33.880;    0.000;8548.97961
 586.16; 8466.980;  -31.230;    0.000;8498.21047
 586.43; 8447.360;  -24.760;    0.000;8472.12035
 586.71; 8416.450;  -23.950;    0.000;8440.40020
 586.99; 8328.260;  -40.780;    0.000;8369.03976
 587.26; 8313.650;  -34.250;    0.000;8347.90039
 587.54; 8225.860;  -31.250;    0.000;8257.11035
 587.82; 8170.550;  -24.780;    0.000;8195.32981
 588.10; 8154.790;  -38.030;    0.000;8192.82004
 588.37; 8099.410;  -25.200;    0.000;8124.61016
 588.65; 8073.220;  -42.610;    0.000;8115.83022
 588.93; 8058.290;  -27.880;    0.000;8086.17004
 589.20; 7977.100;  -34.530;    0.000;8011.63010
 589.48; 7950.180;  -23.660;    0.000;7973.84018
 589.76; 7871.090;  -21.600;    0.000;7892.68984
 590.03; 7886.610;  -37.140;    0.000;7923.74986
 590.31; 7832.400;  -37.740;    0.000;7870.13990
 590.59; 7768.610;  -19.850;    0.000;7788.45986
 590.86; 7717.070;  -35.440;    0.000;7752.50982
 591.14; 7685.320;  -32.470;    0.000;7717.78983
 591.42; 7628.930;  -42.520;    0.000;7671.45018
 591.70; 7568.350;  -28.630;    0.000;7596.98010
 591.97; 7538.930;  -41.090;    0.000;7580.02018
 592.25; 7538.290;  -31.770;    0.000;7570.06004
 592.53; 7476.980;  -34.330;    0.000;7511.30998
 592.80; 7408.430;  -27.170;    0.000;7435.60018
 593.08; 7380.100;  -36.980;    0.000;7417.08010
 593.36; 7316.630;  -29.710;    0.000;7346.33988
 593.63; 7284.190;  -31.670;    0.000;7315.85994
 593.91; 7237.610;  -37.820;    0.000;7275.42986
 594.18; 7186.960;  -29.310;    0.000;7216.26996
 594.46; 7136.550;  -32.730;    0.000;7169.27980
 594.74; 7089.470;  -39.980;    0.000;7129.45021
 595.01; 7026.980;  -41.290;    0.000;7068.26998
 595.29; 7009.730;  -42.620;    0.000;7052.34998
 595.57; 6972.640;  -26.370;    0.000;6999.01014
 595.84; 6899.120;  -44.010;    0.000;6943.13012
 596.12; 6878.090;  -26.910;    0.000;6904.99984
 596.40; 6797.420;  -47.870;    0.000;6845.28992
 596.67; 6792.700;  -30.050;    0.000;6822.75019
 596.95; 6759.200;  -32.450;    0.000;6791.65020
 597.22; 6679.920;  -36.470;    0.000;6716.38992
 597.50; 6641.360;  -30.000;    0.000;6671.35986
 597.78; 6566.660;  -26.450;    0.000;6593.11016
 598.05; 6534.510;  -38.050;    0.000;6572.55976
 598.33; 6503.520;  -35.310;    0.000;6538.83002
 598.61; 6444.970;  -40.030;    0.000;6485.00021
 598.88; 6410.560;  -34.500;    0.000;6445.06006
 599.16; 6366.790;  -33.800;    0.000;6400.59004
 599.43; 6339.330;  -34.760;    0.000;6374.09008
 599.71; 6285.780;  -33.630;    0.000;6319.40979
 599.99; 6226.390;  -39.260;    0.000;6265.65014
 600.26; 6169.510;  -35.270;    0.000;6204.77977
 600.54; 6135.560;  -23.060;    0.000;6158.62006
 600.81; 6085.760;  -22.730;    0.000;6108.48977
 601.09; 6045.400;  -31.880;    0.000;6077.27990
 601.36; 6003.920;  -41.720;    0.000;6045.63992
 601.64; 6016.710;  -26.930;    0.000;6043.63996
 601.92; 5936.360;  -40.110;    0.000;5976.46986
 602.19; 5869.800;  -33.850;    0.000;5903.64980
 602.47; 5860.140;  -42.910;    0.000;5903.05014
 602.74; 5809.880;  -30.200;    0.000;5840.07988
 603.02; 5769.370;  -37.710;    0.000;5807.08012
 603.29; 5730.180;  -31.120;    0.000;5761.30018
 603.57; 5692.380;  -46.120;    0.000;5738.49988
 603.85; 5656.040;  -37.100;    0.000;5693.14004
 604.12; 5637.230;  -30.010;    0.000;5667.23998
 604.40; 5569.360;  -42.650;    0.000;5612.00986
 604.67; 5549.390;  -33.630;    0.000;5583.02014
 604.95; 5497.510;  -37.310;    0.000;5534.81977
 605.22; 5462.790;  -40.580;    0.000;5503.37004
 605.50; 5414.420;  -29.990;    0.000;5444.40992
 605.77; 5383.520;  -34.720;    0.000;5418.24002
 606.05; 5379.260;  -31.660;    0.000;5410.91977
 606.33; 5343.000;  -32.560;    0.000;5375.56000
 606.60; 5272.360;  -34.370;    0.000;5306.72986
 606.88; 5263.710;  -37.980;    0.000;5301.68996
 607.15; 5222.010;  -26.270;    0.000;5248.27977
 607.43; 5201.040;  -39.250;    0.000;5240.29004
 607.70; 5167.090;  -18.560;    0.000;5185.64984
 607.98; 5117.120;  -49.000;    0.000;5166.12012
 608.25; 5093.300;  -34.350;    0.000;5127.64980
 608.53; 5003.270;  -49.930;    0.000;5053.20002
 608.80; 4973.440;  -33.950;    0.000;5007.38994
 609.08; 4970.770;  -48.850;    0.000;5019.62002
 609.35; 4962.020;  -35.970;    0.000;4997.99002
 609.63; 4918.940;  -47.350;    0.000;4966.28994
 609.90; 4913.290;  -35.810;    0.000;4949.10004
 610.18; 4867.650;  -33.780;    0.000;4901.42990
 610.45; 4819.320;  -37.870;    0.000;4857.18982
 610.73; 4836.610;  -41.280;    0.000;4877.88986
 611.00; 4805.560;  -22.200;    0.000;4827.76006
 611.28; 4761.950;  -42.300;    0.000;4804.25019
 611.55; 4716.030;  -43.860;    0.000;4759.88979
 611.83; 4702.570;  -51.020;    0.000;4753.58982
 612.10; 4667.190;  -43.340;    0.000;4710.52994
 612.38; 4637.820;  -42.020;    0.000;4679.83982
 612.65; 4617.120;  -35.390;    0.000;4652.51012
 612.93; 4582.750;  -49.670;    0.000;4632.42000
 613.20; 4580.330;  -40.010;    0.000;4620.34008
 613.48; 4543.680;  -50.070;    0.000;4593.75018
 613.75; 4491.880;  -39.000;    0.000;4530.87988
 614.03; 4484.890;  -33.860;    0.000;4518.75014
 614.30; 4457.320;  -48.420;    0.000;4505.73982
 614.57; 4437.600;  -48.760;    0.000;4486.36010
 614.85; 4411.140;  -33.970;    0.000;4445.11014
 615.12; 4403.390;  -45.710;    0.000;4449.10014
 615.40; 4368.210;  -47.900;    0.000;4416.10996
 615.67; 4319.820;  -47.350;    0.000;4367.16982
 615.95; 4318.140;  -35.100;    0.000;4353.24014
 616.22; 4303.330;  -46.180;    0.000;4349.51008
 616.50; 4288.240;  -41.480;    0.000;4329.72023
 616.77; 4230.000;  -43.960;    0.000;4273.96000
 617.05; 4207.270;  -21.360;    0.000;4228.63002
 617.32; 4158.210;  -43.180;    0.000;4201.38996
 617.59; 4158.960;  -33.460;    0.000;4192.41996
 617.87; 4080.670;  -54.150;    0.000;4134.81992
 618.14; 4053.880;  -35.260;    0.000;4089.13988
 618.42; 4011.170;  -47.110;    0.000;4058.27992
 618.69; 3976.110;  -43.470;    0.000;4019.58011
 618.97; 3935.020;  -47.040;    0.000;3982.06002
 619.24; 3881.990;  -36.430;    0.000;3918.41999
 619.51; 3821.200;  -36.430;    0.000;3857.62995
 619.79; 3788.450;  -37.530;    0.000;3825.97995
 620.06; 3691.940;  -41.100;    0.000;3733.03994
 620.34; 3629.020;  -42.490;    0.000;3671.51002
 620.61; 3578.800;  -39.810;    0.000;3618.61005
 620.88; 3542.090;  -42.270;    0.000;3584.36009
 621.16; 3612.070;  -43.080;    0.000;3655.15007
 621.43; 3617.770;  -35.920;    0.000;3653.69002
 621.71; 3622.120;  -35.190;    0.000;3657.31012
 621.98; 3573.170;  -35.890;    0.000;3609.05992
 622.25; 3533.360;  -43.810;    0.000;3577.17011
 622.53; 3531.660;  -33.350;    0.000;3565.00991
 622.80; 3493.620;  -46.030;    0.000;3539.65012
 623.08; 3473.800;  -41.160;    0.000;3514.96005
 623.35; 3463.170;  -47.690;    0.000;3510.85992
 623.62; 3425.100;  -44.660;    0.000;3469.76010
 623.90; 3414.500;  -42.660;    0.000;3457.16000
 624.17; 3403.430;  -28.880;    0.000;3432.30993
 624.44; 3393.050;  -38.740;    0.000;3431.79005
 624.72; 3373.400;  -34.060;    0.000;3407.45990
 624.99; 3360.620;  -49.930;    0.000;3410.55012
 625.26; 3370.080;  -49.640;    0.000;3419.72008
 625.54; 3397.730;  -33.530;    0.000;3431.25998
 625.81; 3411.710;  -44.770;    0.000;3456.47996
 626.09; 3402.550;  -49.480;    0.000;3452.03005
 626.36; 3387.900;  -44.100;    0.000;3431.99990
 626.63; 3381.710;  -41.510;    0.000;3423.21996
 626.91; 3363.370;  -47.370;    0.000;3410.74012
 627.18; 3371.250;  -38.040;    0.000;3409.29000
 627.45; 3358.750;  -37.530;    0.000;3396.28000
 627.73; 3332.050;  -44.610;    0.000;3376.66005
 628.00; 3334.820;  -37.550;    0.000;3372.37007
 628.27; 3326.010;  -36.200;    0.000;3362.21001
 628.55; 3325.840;  -42.700;    0.000;3368.54009
 628.82; 3282.730;  -53.070;    0.000;3335.79998
 629.09; 3306.340;  -41.330;    0.000;3347.67009
 629.37; 3274.310;  -53.690;    0.000;3328.00006
 629.64; 3254.320;  -37.610;    0.000;3291.93007
 629.91; 3243.760;  -55.250;    0.000;3299.01001
 630.18; 3229.680;  -39.470;    0.000;3269.14993
 630.46; 3223.570;  -41.710;    0.000;3265.28007
 630.73; 3239.800;  -35.240;    0.000;3275.04005
 631.00; 3197.810;  -42.180;    0.000;3239.99006
 631.28; 3175.430;  -48.540;    0.000;3223.96993
 631.55; 3182.410;  -44.940;    0.000;3227.34991
 631.82; 3181.070;  -34.080;    0.000;3215.15007
 632.10; 3138.670;  -41.710;    0.000;3180.37992
 632.37; 3139.850;  -41.490;    0.000;3181.34010
 632.64; 3119.160;  -37.410;    0.000;3156.56991
 632.91; 3120.020;  -31.710;    0.000;3151.73002
 633.19; 3114.030;  -44.670;    0.000;3158.70003
 633.46; 3097.160;  -48.740;    0.000;3145.89991
 633.73; 3075.640;  -47.490;    0.000;3123.12989
 634.01; 3080.370;  -40.410;    0.000;3120.78012
 634.28; 3074.380;  -52.520;    0.000;3126.89988
 634.55; 3088.650;  -28.350;    0.000;3116.99990
 634.82; 3074.830;  -47.550;    0.000;3122.38008
 635.10; 3054.350;  -38.050;    0.000;3092.40010
 635.37; 3027.330;  -52.120;    0.000;3079.45008
 635.64; 3053.490;  -44.700;    0.000;3098.18999
 635.91; 3019.380;  -59.310;    0.000;3078.68988
 636.19; 3036.830;  -40.580;    0.000;3077.41008
 636.46; 3031.090;  -43.850;    0.000;3074.94009
 636.73; 3042.180;  -36.090;    0.000;3078.26993
 637.00; 3038.390;  -46.460;    0.000;3084.84989
 637.28; 3035.140;  -43.610;    0.000;3078.74989
 637.55; 3048.550;  -37.690;    0.000;3086.24005
 637.82; 3003.020;  -41.660;    0.000;3044.68002
 638.09; 2937.460;  -42.000;    0.000;2979.45996
 638.37; 2905.400;  -47.010;    0.000;2952.40990
 638.64; 2893.230;  -50.120;    0.000;2943.34998
 638.91; 2900.330;  -40.580;    0.000;2940.91008
 639.18; 2869.820;  -47.270;    0.000;2917.09007
 639.46; 2853.540;  -42.930;    0.000;2896.47004
 639.73; 2824.360;  -42.730;    0.000;2867.09011
 640.00; 2797.440;  -44.600;    0.000;2842.03994
 640.27; 2793.620;  -49.850;    0.000;2843.47012
 640.54; 2784.510;  -37.760;    0.000;2822.27001
 640.82; 2753.400;  -43.030;    0.000;2796.42990
 641.09; 2732.550;  -40.550;    0.000;2773.10005
 641.36; 2730.360;  -52.060;    0.000;2782.42011
 641.63; 2687.820;  -39.770;    0.000;2727.59007
 641.91; 2654.930;  -47.290;    0.000;2702.21993
 642.18; 2631.160;  -43.100;    0.000;2674.25991
 642.45; 2608.320;  -60.380;    0.000;2668.70007
 642.72; 2565.920;  -45.200;    0.000;2611.11992
 642.99; 2572.840;  -32.230;    0.000;2605.07009
 643.26; 2540.790;  -39.200;    0.000;2579.99004
 643.54; 2510.470;  -42.510;    0.000;2552.97997
 643.81; 2497.890;  -48.280;    0.000;2546.16989
 644.08; 2473.360;  -46.440;    0.000;2519.80011
 644.35; 2460.770;  -43.440;    0.000;2504.21002
 644.62; 2417.210;  -60.750;    0.000;2477.95996
 644.90; 2430.950;  -37.720;    0.000;2468.66995
 645.17; 2411.540;  -50.870;    0.000;2462.41004
 645.44; 2370.370;  -40.710;    0.000;2411.08012
 645.71; 2378.170;  -54.220;    0.000;2432.38992
 645.98; 2351.060;  -46.590;    0.000;2397.65006
 646.25; 2346.800;  -56.450;    0.000;2403.25005
 646.53; 2321.210;  -49.790;    0.000;2370.99996
 646.80; 2310.120;  -52.340;    0.000;2362.46012
 647.07; 2299.630;  -52.900;    0.000;2352.52988
 647.34; 2276.170;  -42.670;    0.000;2318.83992
 647.61; 2268.020;  -38.320;    0.000;2306.34002
 647.88; 2271.960;  -32.630;    0.000;2304.58996
 648.15; 2246.060;  -45.180;    0.000;2291.24006
 648.43; 2228.400;  -51.280;    0.000;2279.67990
 648.70; 2207.030;  -44.950;    0.000;2251.98003
 648.97; 2196.420;  -50.060;    0.000;2246.47992
 649.24; 2180.590;  -37.760;    0.000;2218.35009
 649.51; 2162.610;  -59.320;    0.000;2221.93011
 649.78; 2158.410;  -49.050;    0.000;2207.45991
 650.05; 2157.650;  -38.830;    0.000;2196.47990
 650.32; 2182.960;    3.430;    0.000;2179.52996
 650.60; 2120.200;  -49.520;    0.000;2169.71995
 650.87; 2111.350;  -40.720;    0.000;2152.07010
 651.14; 2074.670;  -49.080;    0.000;2123.74992
 651.41; 2082.600;  -40.880;    0.000;2123.48010
 651.68; 2064.020;  -51.850;    0.000;2115.87002
 651.95; 2049.180;  -32.540;    0.000;2081.71993
 652.22; 2019.030;  -46.770;    0.000;2065.80003
 652.49; 2007.640;  -47.170;    0.000;2054.81001
 652.76; 2005.480;  -56.460;    0.000;2061.93998
 653.03; 2004.710;  -52.290;    0.000;2056.99996
 653.31; 1964.020;  -54.730;    0.000;2018.75002
 653.58; 1975.800;  -44.140;    0.000;2019.94005
 653.85; 1960.050;  -55.300;    0.000;2015.35005
 654.12; 1950.250;  -40.030;    0.000;1990.28000
 654.39; 1940.180;  -59.010;    0.000;1999.19005
 654.66; 1922.430;  -34.440;    0.000;1956.87005
 654.93; 1928.640;  -43.990;    0.000;1972.63002
 655.20; 1888.310;  -46.980;    0.000;1935.29006
 655.47; 1880.240;  -52.660;    0.000;1932.89999
 655.74; 1867.410;  -38.310;    0.000;1905.72004
 656.01; 1842.840;  -57.940;    0.000;1900.77996
 656.28; 1858.730;  -40.430;    0.000;1899.15998
 656.55; 1840.810;  -48.760;    0.000;1889.57006
 656.83; 1823.460;  -44.830;    0.000;1868.28996
 657.10; 1815.590;  -55.800;    0.000;1871.38997
 657.37; 1793.720;  -46.440;    0.000;1840.15997
 657.64; 1791.270;  -56.320;    0.000;1847.59002
 657.91; 1762.350;  -47.700;    0.000;1810.04998
 658.18; 1778.630;  -47.460;    0.000;1826.09000
 658.45; 1729.380;  -51.440;    0.000;1780.82000
 658.72; 1743.400;  -50.290;    0.000;1793.69003
 658.99; 1738.600;  -40.260;    0.000;1778.85997
 659.26; 1726.080;  -41.670;    0.000;1767.74995
 659.53; 1712.560;  -53.720;    0.000;1766.28006
 659.80; 1698.820;  -60.520;    0.000;1759.33995
 660.07; 1679.470;  -48.260;    0.000;1727.72997
 660.34; 1679.140;  -52.100;    0.000;1731.24001
 660.61; 1666.100;  -51.720;    0.000;1717.81998
 660.88; 1665.630;  -47.250;    0.000;1712.88000
 661.15; 1642.290;  -34.510;    0.000;1676.80004
 661.42; 1610.550;  -53.270;    0.000;1663.82005
 661.69; 1625.330;  -53.400;    0.000;1678.72996
 661.96; 1606.030;  -60.350;    0.000;1666.38003
 662.23; 1593.730;  -46.130;    0.000;1639.85998
 662.50; 1577.240;  -53.060;    0.000;1630.29999
 662.77; 1563.580;  -47.970;    0.000;1611.54996
 663.04; 1571.820;  -55.560;    0.000;1627.37995
 663.31; 1558.650;  -48.380;    0.000;1607.03003
 663.58; 1538.530;  -48.060;    0.000;1586.59003
 663.85; 1534.300;  -46.560;    0.000;1580.86005
 664.12; 1521.730;  -50.850;    0.000;1572.57998
 664.39; 1513.090;  -51.040;    0.000;1564.12997
 664.66; 1495.590;  -59.340;    0.000;1554.92997
 664.93; 1478.190;  -53.960;    0.000;1532.14994
 665.20; 1470.540;  -53.460;    0.000;1524.00004
 665.47; 1468.180;  -47.830;    0.000;1516.01006
 665.74; 1453.220;  -60.190;    0.000;1513.40997
 666.01; 1446.250;  -44.910;    0.000;1491.16000
 666.28; 1434.840;  -62.110;    0.000;1496.94997
 666.55; 1424.800;  -47.720;    0.000;1472.52005
 666.82; 1409.500;  -61.520;    0.000;1471.02000
 667.09; 1414.330;  -45.890;    0.000;1460.21996
 667.36; 1389.770;  -54.560;    0.000;1444.33002
 667.63; 1375.440;  -43.790;    0.000;1419.22994
 667.90; 1371.960;  -51.910;    0.000;1423.86996
 668.16; 1366.880;  -40.660;    0.000;1407.54000
 668.43; 1340.930;  -53.130;    0.000;1394.06005
 668.70; 1343.930;  -47.080;    0.000;1391.01006
 668.97; 1329.130;  -59.160;    0.000;1388.29000
 669.24; 1328.330;  -43.280;    0.000;1371.60995
 669.51; 1317.770;  -51.700;    0.000;1369.47002
 669.78; 1308.640;  -49.880;    0.000;1358.52002
 670.05; 1296.100;  -54.220;    0.000;1350.31998
 670.32; 1300.300;  -41.260;    0.000;1341.56005
 670.59; 1270.090;  -58.230;    0.000;1328.31997
 670.86; 1266.640;  -44.790;    0.000;1311.43002
 671.13; 1278.270;  -51.170;    0.000;1329.44002
 671.40; 1251.970;  -50.870;    0.000;1302.83997
 671.67; 1240.610;  -39.480;    0.000;1280.08998
 671.93; 1250.090;  -50.050;    0.000;1300.13997
 672.20; 1225.620;  -62.530;    0.000;1288.14999
 672.47; 1227.960;  -51.630;    0.000;1279.58996
 672.74; 1194.450;  -58.180;    0.000;1252.62995
 673.01; 1201.570;  -52.500;    0.000;1254.06995
 673.28; 1189.970;  -48.790;    0.000;1238.75997
 673.55; 1188.820;  -56.290;    0.000;1245.10995
 673.82; 1167.910;  -57.450;    0.000;1225.36003
 674.09; 1169.110;  -47.520;    0.000;1216.62999
 674.35; 1168.190;  -52.050;    0.000;1220.23994
 674.62; 1156.510;  -40.650;    0.000;1197.16001
 674.89; 1133.150;  -56.110;    0.000;1189.26003
 675.16; 1125.740;  -46.170;    0.000;1171.90999
 675.43; 1109.480;  -57.390;    0.000;1166.86998
 675.70; 1119.450;  -32.700;    0.000;1152.14995
 675.97; 1096.870;  -53.910;    0.000;1150.77999
 676.24; 1110.610;  -47.160;    0.000;1157.76999
 676.50; 1088.670;  -58.400;    0.000;1147.07005
 676.77; 1075.200;  -48.110;    0.000;1123.30995
 677.04; 1068.450;  -55.880;    0.000;1124.32995
 677.31; 1065.960;  -53.920;    0.000;1119.87996
 677.58; 1046.130;  -50.120;    0.000;1096.25000
 677.85; 1044.360;  -44.200;    0.000;1088.55999
 678.12; 1050.050;  -55.690;    0.000;1105.74005
 678.38; 1040.730;  -42.970;    0.000;1083.69998
 678.65; 1011.120;  -64.680;    0.000;1075.80000
 678.92; 1016.950;  -54.550;    0.000;1071.50001
 679.19; 1027.770;  -39.690;    0.000;1067.46002
 679.46; 1017.730;  -47.550;    0.000;1065.27998
 679.73;  976.420;  -59.220;    0.000;1035.63998
 679.99;  995.160;  -50.410;    0.000;1045.56997
 680.26;  982.770;  -62.850;    0.000;1045.62002
 680.53;  973.120;  -49.460;    0.000;1022.57999
 680.80;  964.800;  -57.820;    0.000;1022.61999
 681.07;  961.190;  -44.180;    0.000;1005.37000
 681.33;  949.270;  -51.070;    0.000;1000.34002
 681.60;  936.740;  -48.710;    0.000;985.44999
 681.87;  924.730;  -62.990;    0.000;987.71998
 682.14;  929.910;  -46.370;    0.000;976.27997
 682.41;  904.300;  -55.150;    0.000;959.44999
 682.67;  922.010;  -43.000;    0.000;965.01001
 682.94;  883.840;  -68.110;    0.000;951.95003
 683.21;  883.210;  -55.460;    0.000;938.67002
 683.48;  880.210;  -57.760;    0.000;937.97002
 683.75;  881.190;  -47.900;    0.000;929.09000
 684.01;  865.730;  -55.520;    0.000;921.24998
 684.28;  860.120;  -55.430;    0.000;915.55000
 684.55;  851.280;  -49.130;    0.000;900.41003
 684.82;  851.240;  -58.800;    0.000;910.03999
 685.09;  838.040;  -52.990;    0.000;891.02998
 685.35;  844.910;  -48.550;    0.000;893.45997
 685.62;  826.290;  -54.740;    0.000;881.02998
 685.89;  842.430;  -44.100;    0.000;886.52999
 686.16;  805.520;  -63.070;    0.000;868.59002
 686.42;  810.300;  -46.900;    0.000;857.19999
 686.69;  814.320;  -44.640;    0.000;858.96001
 686.96;  797.620;  -61.770;    0.000;859.39000
 687.23;  801.530;  -43.540;    0.000;845.07003
 687.49;  794.880;  -35.390;    0.000;830.27000
 687.76;  769.560;  -62.140;    0.000;831.70000
 688.03;  767.080;  -50.100;    0.000;817.18002
 688.30;  765.680;  -64.450;    0.000;830.12999
 688.56;  755.860;  -52.870;    0.000;808.72998
 688.83;  748.730;  -60.550;    0.000;809.27998
 689.10;  741.410;  -53.890;    0.000;795.29997
 689.37;  732.380;  -70.030;    0.000;802.41000
 689.63;  729.050;  -48.550;    0.000;777.59999
 689.90;  718.620;  -53.230;    0.000;771.84999
 690.17;  719.210;  -49.050;    0.000;768.26002
 690.44;  724.850;  -58.840;    0.000;783.68998
 690.70;  707.090;  -52.720;    0.000;759.81003
 690.97;  693.580;  -53.770;    0.000;747.35002
 691.24;  693.290;  -47.860;    0.000;741.14998
 691.50;  680.150;  -59.530;    0.000;739.68002
 691.77;  684.950;  -56.310;    0.000;741.26001
 692.04;  672.670;  -59.430;    0.000;732.09998
 692.30;  655.190;  -57.620;    0.000;712.81000
 692.57;  666.030;  -60.930;    0.000;726.96003
 692.84;  642.580;  -56.380;    0.000;698.96002
 693.11;  648.890;  -67.750;    0.000;716.64001
 693.37;  647.980;  -50.830;    0.000;698.80998
 693.64;  622.340;  -63.140;    0.000;685.48003
 693.91;  625.610;  -51.900;    0.000;677.50999
 694.17;  624.280;  -47.910;    0.000;672.19003
 694.44;  620.520;  -47.070;    0.000;667.59002
 694.71;  602.870;  -61.340;    0.000;664.21000
 694.97;  605.450;  -52.260;    0.000;657.71001
 695.24;  589.860;  -63.910;    0.000;653.76999
 695.51;  580.980;  -62.980;    0.000;643.95998
 695.77;  578.150;  -59.670;    0.000;637.82002
 696.04;  561.730;  -52.380;    0.000;614.10998
 696.31;  561.840;  -66.480;    0.000;628.32003
 696.57;  567.690;  -38.310;    0.000;606.00000
 696.84;  554.310;  -52.850;    0.000;607.16000
 697.11;  546.980;  -54.240;    0.000;601.21998
 697.37;  550.840;  -51.920;    0.000;602.76003
 697.64;  537.310;  -53.060;    0.000;590.37000
 697.91;  530.800;  -60.220;    0.000;591.01999
 698.17;  506.660;  -54.270;    0.000;560.93000
 698.44;  520.720;  -63.030;    0.000;583.74997
 698.71;  503.470;  -49.550;    0.000;553.02000
 698.97;  494.540;  -54.580;    0.000;549.12001
 699.24;  504.850;  -45.040;    0.000;549.89001
 699.50;  477.420;  -64.050;    0.000;541.47002
 699.77;  480.320;  -49.010;    0.000;529.33001
 700.04;  476.300;  -64.650;    0.000;540.94999
 700.30;  460.640;  -61.870;    0.000;522.51001
 700.57;  461.000;  -63.250;    0.000;524.25000
 700.84;  462.910;  -41.730;    0.000;504.64000
 701.10;  451.560;  -62.570;    0.000;514.13000
 701.37;  445.910;  -60.320;    0.000;506.23000
 701.63;  429.080;  -59.440;    0.000;488.51999
 701.90;  439.070;  -53.830;    0.000;492.90001
 702.17;  447.820;  -49.470;    0.000;497.29001
 702.43;  406.160;  -55.120;    0.000;461.28000
 702.70;  425.960;  -53.740;    0.000;479.69999
 702.96;  401.640;  -60.640;    0.000;462.28001
 703.23;  387.910;  -59.120;    0.000;447.03000
 703.50;  385.100;  -56.130;    0.000;441.23001
 703.76;  382.760;  -52.510;    0.000;435.27001
 704.03;  377.260;  -42.210;    0.000;419.47001
 704.29;  374.410;  -51.680;    0.000;426.09000
 704.56;  372.790;  -59.410;    0.000;432.20001
 704.82;  358.160;  -60.620;    0.000;418.78000
 705.09;  355.450;  -50.430;    0.000;405.88001
 705.36;  344.070;  -62.970;    0.000;407.04001
 705.62;  367.160;  -33.310;    0.000;400.47001
 705.89;  327.930;  -59.100;    0.000;387.02999
 706.15;  329.720;  -48.880;    0.000;378.60000
 706.42;  330.300;  -57.690;    0.000;387.98999
 706.68;  317.630;  -56.700;    0.000;374.33001
 706.95;  312.700;  -57.630;    0.000;370.33001
 707.21;  303.810;  -58.650;    0.000;362.46000
 707.48;  297.130;  -61.920;    0.000;359.05000
 707.75;  297.270;  -50.800;    0.000;348.06999
 708.01;  280.910;  -61.080;    0.000;341.99001
 708.28;  297.720;  -51.820;    0.000;349.54000
 708.54;  280.010;  -63.220;    0.000;343.23001
 708.81;  275.380;  -44.090;    0.000;319.47001
 709.07;  259.390;  -62.050;    0.000;321.44001
 709.34;  258.640;  -61.410;    0.000;320.05001
 709.60;  250.800;  -68.660;    0.000;319.46001
 709.87;  266.250;  -48.490;    0.000;314.74000
 710.13;  241.050;  -66.420;    0.000;307.47000
 710.40;  243.790;  -64.680;    0.000;308.46999
 710.66;  241.980;  -62.120;    0.000;304.09999
 710.93;  240.240;  -55.610;    0.000;295.85001
 711.19;  241.800;  -63.730;    0.000;305.53000
 711.46;  241.300;  -48.890;    0.000;290.19000
 711.72;  226.600;  -58.100;    0.000;284.70000
 711.99;  234.650;  -47.670;    0.000;282.31999
 712.25;  222.640;  -61.830;    0.000;284.47000
 712.52;  233.880;  -40.700;    0.000;274.58001
 712.78;  221.760;  -56.040;    0.000;277.80000
 713.05;  210.170;  -54.940;    0.000;265.11000
 713.31;  206.260;  -58.190;    0.000;264.44999
 713.58;  213.270;  -51.770;    0.000;265.04000
 713.84;  203.580;  -61.840;    0.000;265.42000
 714.11;  201.230;  -54.940;    0.000;256.16999
 714.37;  204.900;  -57.910;    0.000;262.80999
 714.64;  188.970;  -56.410;    0.000;245.38000
 714.90;  191.570;  -55.060;    0.000;246.63001
 715.17;  186.170;  -59.790;    0.000;245.96000
 715.43;  192.760;  -60.320;    0.000;253.07999
 715.70;  193.100;  -53.640;    0.000;246.74001
 715.96;  182.010;  -60.380;    0.000;242.39000
 716.22;  193.350;  -56.780;    0.000;250.13000
 716.49;  183.170;  -68.920;    0.000;252.09000
 716.75;  185.190;  -64.590;    0.000;249.78000
 717.02;  180.190;  -56.200;    0.000;236.39000
 717.28;  171.300;  -59.350;    0.000;230.65000
 717.55;  172.860;  -69.660;    0.000;242.52000
 717.81;  184.910;  -55.520;    0.000;240.43000
 718.08;  168.760;  -60.370;    0.000;229.12999
 718.34;  171.360;  -59.980;    0.000;231.34000
 718.60;  176.790;  -56.160;    0.000;232.94999
 718.87;  174.950;  -53.350;    0.000;228.30000
 719.13;  178.660;  -62.460;    0.000;241.12000
 719.40;  174.130;  -51.850;    0.000;225.98000
 719.66;  171.150;  -64.270;    0.000;235.41999
 719.93;  173.590;  -47.770;    0.000;221.36000
 720.19;  163.810;  -70.590;    0.000;234.39999
 720.45;  174.450;  -58.110;    0.000;232.56000
 720.72;  166.340;  -60.550;    0.000;226.89000
 720.98;  181.890;  -56.440;    0.000;238.33000
 721.25;  165.890;  -72.700;    0.000;238.59000
 721.51;  164.370;  -61.040;    0.000;225.41000
 721.77;  163.220;  -62.760;    0.000;225.98000
 722.04;  178.530;  -46.700;    0.000;225.23000
 722.30;  166.850;  -58.310;    0.000;225.16001
 722.57;  160.740;  -52.890;    0.000;213.63000
 722.83;  161.160;  -62.730;    0.000;223.89000
 723.09;  161.770;  -56.910;    0.000;218.68000
 723.36;  159.610;  -59.400;    0.000;219.01000
 723.62;  163.400;  -51.840;    0.000;215.23999
 723.88;  165.180;  -59.890;    0.000;225.06999
 724.15;  156.140;  -49.500;    0.000;205.64000
 724.41;  158.860;  -65.630;    0.000;224.49000
 724.68;  162.630;  -59.360;    0.000;221.99001
 724.94;  161.960;  -48.690;    0.000;210.65001
 725.20;  168.020;  -56.210;    0.000;224.23000
 725.47;  165.660;  -62.730;    0.000;228.39000
 725.73;  153.910;  -64.430;    0.000;218.34000
 725.99;  146.220;  -71.790;    0.000;218.01000
 726.26;  152.680;  -50.060;    0.000;202.73999
 726.52;  152.090;  -63.590;    0.000;215.68000
 726.78;  152.060;  -52.290;    0.000;204.35000
 727.05;  159.840;  -61.380;    0.000;221.22000
 727.31;  149.730;  -52.170;    0.000;201.89999
 727.57;  158.550;  -63.730;    0.000;222.28000
 727.84;  149.160;  -53.340;    0.000;202.50000
 728.10;  150.380;  -60.120;    0.000;210.50000
 728.36;  152.300;  -53.710;    0.000;206.01000
 728.63;  152.050;  -62.820;    0.000;214.87000
 728.89;  142.040;  -60.280;    0.000;202.31999
 729.15;  140.350;  -65.040;    0.000;205.39001
 729.42;  142.920;  -60.470;    0.000;203.39000
 729.68;  149.970;  -54.970;    0.000;204.94000
 729.94;  132.170;  -68.100;    0.000;200.27000
 730.21;  137.500;  -64.640;    0.000;202.14000
 730.47;  145.110;  -63.530;    0.000;208.64000
 730.73;  137.200;  -66.260;    0.000;203.46000
 731.00;  143.700;  -57.360;    0.000;201.06000
 731.26;  133.310;  -57.540;    0.000;190.85000
 731.52;  135.170;  -58.280;    0.000;193.45000
 731.78;  130.380;  -66.450;    0.000;196.83000
 732.05;  117.240;  -65.530;    0.000;182.77000
 732.31;  130.500;  -59.070;    0.000;189.57000
 732.57;  124.860;  -54.620;    0.000;179.48000
 732.84;  128.500;  -70.510;    0.000;199.01000
 733.10;  118.440;  -57.600;    0.000;176.04000
 733.36;  114.130;  -70.050;    0.000;184.18000
 733.62;  127.720;  -62.500;    0.000;190.22000
 733.89;  119.110;  -59.180;    0.000;178.29000
 734.15;  119.350;  -61.340;    0.000;180.69000
 734.41;  127.390;  -61.790;    0.000;189.18000
 734.67;  122.340;  -50.600;    0.000;172.93999
 734.94;  108.530;  -63.880;    0.000;172.41000
 735.20;  122.970;  -57.270;    0.000;180.24000
 735.46;  112.790;  -68.040;    0.000;180.83000
 735.73;  116.280;  -54.400;    0.000;170.68000
 735.99;  104.940;  -71.180;    0.000;176.12000
 736.25;  116.640;  -55.920;    0.000;172.56000
 736.51;  113.190;  -61.210;    0.000;174.40000
 736.77;  104.780;  -54.920;    0.000;159.70000
 737.04;  109.820;  -62.400;    0.000;172.22000
 737.30;  101.770;  -58.680;    0.000;160.45000
 737.56;  111.380;  -58.620;    0.000;170.00000
 737.82;   96.150;  -58.750;    0.000;154.90000
 738.09;   98.770;  -70.360;    0.000;169.13000
 738.35;  106.540;  -63.970;    0.000;170.51000
 738.61;   98.600;  -61.870;    0.000;160.47000
 738.87;  108.360;  -52.450;    0.000;160.81000
 739.14;  104.830;  -61.560;    0.000;166.39000
 739.40;   90.740;  -64.850;    0.000;155.59000
 739.66;  101.850;  -68.810;    0.000;170.66000
 739.92;   90.000;  -63.470;    0.000;153.47000
 740.18;   98.050;  -64.080;    0.000;162.13000
 740.45;   84.630;  -61.060;    0.000;145.69000
 740.71;   90.120;  -53.970;    0.000;144.09000
 740.97;   90.380;  -55.520;    0.000;145.90000
 741.23;   86.690;  -74.870;    0.000;161.56001
 741.49;   83.690;  -59.120;    0.000;142.81000
 741.76;   72.090;  -76.640;    0.000;148.73000
 742.02;   81.550;  -68.540;    0.000;150.09000
 742.28;   80.570;  -68.520;    0.000;149.09000
 742.54;   75.300;  -57.000;    0.000;132.30000
 742.80;   73.180;  -70.310;    0.000;143.49000
 743.06;   85.340;  -54.290;    0.000;139.63000
 743.33;   78.800;  -60.930;    0.000;139.73000
 743.59;   69.190;  -62.190;    0.000;131.38000
 743.85;   72.160;  -73.310;    0.000;145.47000
 744.11;   73.160;  -63.690;    0.000;136.85000
 744.37;   72.550;  -58.170;    0.000;130.72000
 744.63;   70.970;  -65.230;    0.000;136.20000
 744.90;   64.910;  -72.800;    0.000;137.71001
 745.16;   71.980;  -57.920;    0.000;129.90000
 745.42;   62.830;  -62.790;    0.000;125.62000
 745.68;   68.970;  -55.010;    0.000;123.98000
 745.94;   77.430;  -55.100;    0.000;132.53000
 746.20;   67.020;  -54.310;    0.000;121.33000
 746.46;   73.560;  -60.150;    0.000;133.71000
 746.72;   69.170;  -51.640;    0.000;120.81000
 746.99;   61.500;  -60.120;    0.000;121.62000
 747.25;   66.910;  -53.010;    0.000;119.92000
 747.51;   53.790;  -65.470;    0.000;119.26000
 747.77;   59.660;  -60.410;    0.000;120.07000
 748.03;   53.760;  -67.950;    0.000;121.71000
 748.29;   58.310;  -58.140;    0.000;116.45000
 748.55;   55.090;  -70.260;    0.000;125.35000
 748.81;   52.650;  -63.530;    0.000;116.18000
 749.08;   48.860;  -67.880;    0.000;116.74000
 749.34;   43.050;  -63.460;    0.000;106.51000
 749.60;   53.360;  -60.810;    0.000;114.17000
 749.86;   59.060;  -53.480;    0.000;112.54000
 750.12;   41.700;  -69.350;    0.000;111.05000
 750.38;   55.270;  -65.040;    0.000;120.31000
 750.64;   39.270;  -75.360;    0.000;114.63000
 750.90;   49.070;  -57.730;    0.000;106.80000
 751.16;   29.360;  -72.650;    0.000;102.01000
 751.42;   34.560;  -66.050;    0.000;100.61000
 751.68;   43.430;  -55.770;    0.000;99.20000
 751.95;   31.230;  -68.120;    0.000;99.35000
 752.21;   36.470;  -73.710;    0.000;110.18000
 752.47;   33.160;  -65.780;    0.000;98.94000
 752.73;   25.560;  -68.460;    0.000;94.02000
 752.99;   25.450;  -65.620;    0.000;91.07000
 753.25;   31.140;  -71.920;    0.000;103.06000
 753.51;   25.140;  -65.730;    0.000;90.87000
 753.77;   30.510;  -65.570;    0.000;96.08000
 754.03;   29.020;  -62.250;    0.000;91.27000
 754.29;   20.150;  -73.500;    0.000;93.65000
 754.55;   25.930;  -62.200;    0.000;88.13000
 754.81;   16.050;  -67.770;    0.000;83.82000
 755.07;   28.200;  -63.760;    0.000;91.96000
 755.33;   16.190;  -72.470;    0.000;88.66000
 755.59;   15.460;  -62.720;    0.000;78.18000
 755.85;   17.430;  -72.300;    0.000;89.73000
 756.11;   16.530;  -63.710;    0.000;80.24000
 756.37;   17.690;  -65.050;    0.000;82.74000
 756.63;   31.330;  -46.260;    0.000;77.59000
 756.89;   12.830;  -68.760;    0.000;81.59000
 757.15;   11.470;  -63.070;    0.000;74.54000
 757.41;   30.400;  -60.190;    0.000;90.59000
 757.68;   20.110;  -60.550;    0.000;80.66000
 757.94;   16.530;  -62.430;    0.000;78.96000
 758.20;   24.330;  -50.770;    0.000;75.10000
 758.46;    3.870;  -72.870;    0.000;76.74000
 758.72;   11.620;  -60.630;    0.000;72.25000
 758.98;    8.380;  -67.190;    0.000;75.57000
 759.24;    9.920;  -60.950;    0.000;70.87000
 759.50;    7.000;  -65.080;    0.000;72.08000
 759.76;   10.080;  -52.950;    0.000;63.03000
 760.02;   11.190;  -68.640;    0.000;79.83000
 760.27;   14.240;  -66.730;    0.000;80.97000
 760.53;   10.990;  -63.330;    0.000;74.32000
 760.79;   13.630;  -55.120;    0.000;68.75000
 761.05;    4.700;  -65.560;    0.000;70.26000
 761.31;   12.930;  -50.350;    0.000;63.28000
 761.57;    7.350;  -60.250;    0.000;67.60000
 761.83;    5.060;  -64.180;    0.000;69.24000
 762.09;   -0.470;  -69.040;    0.000;68.57000
 762.35;   -5.940;  -66.860;    0.000;60.92000
 762.61;    0.520;  -67.680;    0.000;68.20000
 762.87;    5.260;  -58.700;    0.000;63.96000
 763.13;  -13.710;  -71.060;    0.000;57.35000
 763.39;    9.440;  -47.730;    0.000;57.17000
 763.65;   -5.820;  -71.990;    0.000;66.17000
 763.91;   -5.110;  -68.860;    0.000;63.75000
 764.17;    0.560;  -60.390;    0.000;60.95000
 764.43;    4.590;  -62.800;    0.000;67.39000
 764.69;   -6.570;  -70.830;    0.000;64.26000
 764.95;    1.590;  -57.460;    0.000;59.05000
 765.21;   -9.320;  -75.860;    0.000;66.54000
 765.47;    7.600;  -58.260;    0.000;65.86000
 765.73;   -3.470;  -64.620;    0.000;61.15000
 765.98;    5.700;  -50.970;    0.000;56.67000
 766.24;  -12.490;  -70.810;    0.000;58.32000
 766.50;   -6.800;  -70.380;    0.000;63.58000
 766.76;   -1.700;  -65.780;    0.000;64.08000
 767.02;   -6.560;  -70.800;    0.000;64.24000
 767.28;   -9.100;  -68.300;    0.000;59.20000
 767.54;   -2.820;  -62.740;    0.000;59.92000
 767.80;   -9.560;  -64.940;    0.000;55.38000
 768.06;    5.490;  -54.110;    0.000;59.60000
 768.32;   -7.300;  -65.490;    0.000;58.19000
 768.58;   -9.810;  -66.120;    0.000;56.31000
 768.83;  -18.830;  -64.670;    0.000;45.84000
 769.09;   -6.940;  -63.170;    0.000;56.23000
 769.35;  -12.040;  -65.700;    0.000;53.66000
 769.61;  -11.980;  -57.700;    0.000;45.72000
 769.87;   -8.520;  -67.850;    0.000;59.33000
 770.13;   -2.250;  -57.810;    0.000;55.56000
 770.39;  -21.620;  -80.360;    0.000;58.74000
 770.65;   -1.870;  -65.130;    0.000;63.26000
 770.90;  -22.170;  -68.230;    0.000;46.06000
 771.16;  -14.210;  -68.730;    0.000;54.52000
 771.42;  -15.160;  -66.270;    0.000;51.11000
 771.68;  -20.280;  -66.190;    0.000;45.91000
 771.94;  -13.610;  -65.460;    0.000;51.85000
 772.20;  -20.110;  -69.220;    0.000;49.11000
 772.46;  -24.260;  -75.740;    0.000;51.48000
 772.71;  -21.230;  -60.950;    0.000;39.72000
 772.97;   -3.200;  -60.710;    0.000;57.51000
 773.23;  -23.080;  -62.140;    0.000;39.06000
 773.49;   -9.640;  -62.530;    0.000;52.89000
 773.75;  -21.750;  -61.650;    0.000;39.90000
 774.01;  -23.920;  -75.240;    0.000;51.32000
 774.26;  -20.670;  -71.900;    0.000;51.23000
 774.52;  -13.760;  -61.130;    0.000;47.37000
 774.78;  -18.500;  -67.460;    0.000;48.96000
 775.04;   -5.370;  -50.810;    0.000;45.44000
 775.30;  -17.850;  -66.290;    0.000;48.44000
 775.56;  -21.720;  -73.310;    0.000;51.59000
 775.81;  -17.890;  -66.090;    0.000;48.20000
 776.07;  -27.200;  -75.370;    0.000;48.17000
 776.33;  -31.110;  -68.460;    0.000;37.35000
 776.59;  -26.080;  -66.250;    0.000;40.17000
 776.85;  -33.550;  -65.230;    0.000;31.68000
 777.10;  -24.930;  -66.530;    0.000;41.60000
 777.36;  -26.010;  -76.320;    0.000;50.31000
 777.62;  -25.800;  -71.140;    0.000;45.34000
 777.88;  -25.910;  -67.550;    0.000;41.64000
 778.14;  -25.340;  -71.280;    0.000;45.94000
 778.39;  -23.120;  -59.350;    0.000;36.23000
 778.65;  -26.990;  -76.080;    0.000;49.09000
 778.91;  -22.960;  -69.460;    0.000;46.50000
 779.17;  -22.790;  -65.910;    0.000;43.12000
 779.42;  -31.950;  -70.000;    0.000;38.05000
 779.68;  -30.520;  -72.550;    0.000;42.03000
 779.94;  -24.090;  -61.510;    0.000;37.42000
 780.20;  -30.210;  -68.870;    0.000;38.66000
 780.46;  -34.940;  -64.180;    0.000;29.24000
 780.71;  -30.980;  -62.960;    0.000;31.98000
 780.97;  -24.490;  -64.720;    0.000;40.23000
 781.23;  -38.880;  -78.300;    0.000;39.42000
 781.49;  -22.780;  -56.640;    0.000;33.86000
 781.74;  -32.570;  -74.730;    0.000;42.16000
 782.00;  -33.850;  -75.150;    0.000;41.30000
 782.26;  -26.850;  -68.030;    0.000;41.18000
 782.52;  -36.430;  -62.660;    0.000;26.23000
 782.77;  -28.220;  -68.100;    0.000;39.88000
 783.03;  -34.270;  -69.130;    0.000;34.86000
 783.29;  -41.150;  -71.240;    0.000;30.09000
 783.54;  -34.200;  -62.780;    0.000;28.58000
 783.80;  -28.730;  -68.050;    0.000;39.32000
 784.06;  -33.000;  -63.550;    0.000;30.55000
 784.32;  -26.960;  -72.520;    0.000;45.56000
 784.57;  -23.780;  -47.820;    0.000;24.04000
 784.83;  -44.510;  -76.230;    0.000;31.72001
 785.09;  -37.040;  -76.220;    0.000;39.18000
 785.34;  -40.220;  -72.440;    0.000;32.22000
 785.60;  -30.020;  -59.580;    0.000;29.56000
 785.86;  -39.600;  -71.820;    0.000;32.22000
 786.12;  -35.680;  -61.570;    0.000;25.89000
 786.37;  -22.110;  -65.600;    0.000;43.49000
 786.63;  -43.560;  -71.170;    0.000;27.61000
 786.89;  -36.380;  -68.790;    0.000;32.41000
 787.14;  -29.900;  -54.860;    0.000;24.96000
 787.40;  -39.360;  -71.540;    0.000;32.18000
 787.66;  -28.510;  -65.770;    0.000;37.26000
 787.91;  -22.870;  -52.860;    0.000;29.99000
 788.17;  -40.840;  -65.710;    0.000;24.87000
 788.43;  -44.190;  -73.180;    0.000;28.99000
 788.68;  -44.480;  -71.660;    0.000;27.18000
 788.94;  -35.260;  -74.750;    0.000;39.49000
 789.20;  -33.920;  -64.840;    0.000;30.92000
 789.45;  -52.160;  -74.230;    0.000;22.07000
 789.71;  -40.910;  -67.010;    0.000;26.10000
 789.97;  -30.680;  -63.030;    0.000;32.35000
 790.22;  -38.070;  -65.710;    0.000;27.64000
 790.48;  -41.330;  -74.810;    0.000;33.48000
 790.74;  -37.720;  -63.640;    0.000;25.92000
 790.99;  -43.100;  -72.490;    0.000;29.39000
 791.25;  -32.330;  -64.710;    0.000;32.38000
 791.51;  -46.960;  -73.530;    0.000;26.57000
 791.76;  -31.040;  -59.650;    0.000;28.61000
 792.02;  -44.930;  -74.710;    0.000;29.78000
 792.27;  -31.020;  -54.830;    0.000;23.81000
 792.53;  -39.260;  -68.030;    0.000;28.77000
 792.79;  -37.990;  -66.160;    0.000;28.17000
 793.04;  -42.020;  -68.920;    0.000;26.90000
 793.30;  -44.150;  -70.820;    0.000;26.67000
 793.56;  -45.150;  -75.870;    0.000;30.72000
 793.81;  -38.680;  -50.310;    0.000;11.63000
 794.07;  -46.020;  -79.000;    0.000;32.98000
 794.32;  -35.310;  -65.900;    0.000;30.59000
 794.58;  -47.740;  -77.010;    0.000;29.27000
 794.84;  -40.850;  -60.880;    0.000;20.03000
 795.09;  -37.520;  -69.020;    0.000;31.50000
 795.35;  -42.450;  -61.980;    0.000;19.53000
 795.60;  -46.120;  -70.560;    0.000;24.44000
 795.86;  -37.730;  -63.860;    0.000;26.13000
 796.12;  -47.820;  -78.510;    0.000;30.69000
 796.37;  -47.020;  -68.490;    0.000;21.47000
 796.63;  -46.410;  -69.590;    0.000;23.18000
 796.88;  -45.200;  -65.560;    0.000;20.36000
 797.14;  -49.100;  -70.280;    0.000;21.18000
 797.39;  -35.080;  -65.640;    0.000;30.56000
 797.65;  -46.840;  -72.970;    0.000;26.13000
 797.91;  -49.720;  -73.160;    0.000;23.44000
 798.16;  -42.800;  -74.870;    0.000;32.07000
 798.42;  -48.960;  -70.790;    0.000;21.83000
 798.67;  -42.760;  -79.900;    0.000;37.14000
 798.93;  -42.830;  -66.230;    0.000;23.40000
 799.18;  -59.520;  -75.680;    0.000;16.16000
 799.44;  -49.760;  -66.210;    0.000;16.45000
 799.69;  -45.850;  -73.250;    0.000;27.40000
 799.95;  -52.680;  -73.750;    0.000;21.07000
 800.21;  -49.580;  -76.850;    0.000;27.27000
 800.46;  -37.890;  -51.900;    0.000;14.01000
 800.72;  -54.150;  -71.510;    0.000;17.36000
 800.97;  -49.450;  -72.510;    0.000;23.06000
 801.23;  -49.890;  -80.470;    0.000;30.58000
 801.48;  -49.250;  -76.540;    0.000;27.29000
 801.74;  -55.770;  -74.340;    0.000;18.57000
 801.99;  -41.480;  -63.730;    0.000;22.25000
 802.25;  -51.560;  -70.040;    0.000;18.48000
 802.50;  -52.480;  -65.610;    0.000;13.13000
 802.76;  -44.760;  -72.120;    0.000;27.36000
 803.01;  -54.630;  -74.290;    0.000;19.66000
 803.27;  -49.280;  -73.240;    0.000;23.96000
 803.52;  -52.680;  -60.520;    0.000; 7.84000
 803.78;  -42.580;  -66.200;    0.000;23.62000
 804.03;  -48.740;  -59.220;    0.000;10.48000
 804.29;  -65.500;  -80.530;    0.000;15.03000
 804.54;  -51.150;  -66.360;    0.000;15.21000
 804.80;  -56.060;  -75.680;    0.000;19.62000
 805.05;  -50.920;  -69.490;    0.000;18.57000
 805.31;  -44.420;  -66.970;    0.000;22.55000
 805.56;  -41.320;  -58.470;    0.000;17.15000
 805.82;  -59.500;  -79.550;    0.000;20.05000
 806.07;  -38.940;  -62.310;    0.000;23.37000
 806.33;  -48.390;  -76.230;    0.000;27.84000
 806.58;  -56.910;  -74.560;    0.000;17.65000
 806.84;  -51.140;  -69.680;    0.000;18.54000
 807.09;  -49.800;  -67.630;    0.000;17.83000
 807.34;  -51.080;  -76.660;    0.000;25.58000
 807.60;  -47.070;  -58.680;    0.000;11.61000
 807.85;  -37.370;  -73.670;    0.000;36.30000
 808.11;  -53.350;  -69.550;    0.000;16.20000
 808.36;  -43.800;  -70.980;    0.000;27.18000
 808.62;  -58.170;  -71.470;    0.000;13.30000
 808.87;  -52.100;  -74.120;    0.000;22.02000
 809.13;  -60.380;  -74.600;    0.000;14.22000
 809.38;  -46.270;  -66.100;    0.000;19.83000
 809.63;  -57.480;  -67.340;    0.000; 9.86000
 809.89;  -46.060;  -70.460;    0.000;24.40000
 810.14;  -55.470;  -68.440;    0.000;12.97000
 810.40;  -51.060;  -76.650;    0.000;25.59000
 810.65;  -54.800;  -67.160;    0.000;12.36000
 810.91;  -66.990;  -74.900;    0.000; 7.91000
 811.16;  -46.040;  -63.330;    0.000;17.29000
 811.41;  -47.600;  -72.490;    0.000;24.89000
 811.67;  -54.960;  -74.880;    0.000;19.92000
 811.92;  -49.850;  -68.170;    0.000;18.32000
 812.18;  -56.110;  -67.550;    0.000;11.44000
 812.43;  -61.180;  -76.000;    0.000;14.82000
 812.68;  -49.790;  -66.340;    0.000;16.55000
 812.94;  -61.030;  -71.130;    0.000;10.10000
 813.19;  -55.850;  -71.760;    0.000;15.91000
 813.45;  -35.370;  -50.730;    0.000;15.36000
 813.70;  -54.930;  -72.270;    0.000;17.34000
 813.95;  -60.350;  -74.870;    0.000;14.52000
 814.21;  -51.800;  -61.840;    0.000;10.04000
 814.46;  -62.010;  -74.680;    0.000;12.67000
 814.71;  -55.300;  -74.920;    0.000;19.62000
 814.97;  -58.940;  -79.920;    0.000;20.98000
 815.22;  -62.540;  -71.060;    0.000; 8.52000
 815.48;  -55.900;  -77.050;    0.000;21.15000
 815.73;  -48.900;  -64.440;    0.000;15.54000
 815.98;  -58.100;  -78.160;    0.000;20.06001
 816.24;  -55.420;  -70.740;    0.000;15.32000
 816.49;  -48.380;  -70.330;    0.000;21.95000
 816.74;  -52.240;  -68.280;    0.000;16.04000
 817.00;  -44.000;  -60.660;    0.000;16.66000
 817.25;  -53.550;  -70.740;    0.000;17.19000
 817.50;  -60.650;  -73.190;    0.000;12.54000
 817.76;  -62.410;  -71.160;    0.000; 8.75000
 818.01;  -66.820;  -80.910;    0.000;14.09000
 818.26;  -62.920;  -69.950;    0.000; 7.03000
 818.52;  -62.960;  -74.150;    0.000;11.19000
 818.77;  -61.790;  -73.060;    0.000;11.27000
 819.02;   42.380;   29.560;    0.000;12.82000
 819.28;  -61.120;  -64.620;    0.000; 3.50000
 819.53;  -64.900;  -79.640;    0.000;14.74000
 819.78;  -57.110;  -63.410;    0.000; 6.30000
 820.04;  -62.500;  -80.400;    0.000;17.90000
 820.29;  -65.610;  -69.270;    0.000; 3.66000
 820.54;  -61.100;  -72.870;    0.000;11.77000
 820.79;  -48.870;  -63.880;    0.000;15.01000
 821.05;  -68.020;  -78.920;    0.000;10.90000
 821.30;  -46.680;  -57.000;    0.000;10.32000
 821.55;  -55.820;  -67.530;    0.000;11.71000
 821.81;  -57.620;  -65.110;    0.000; 7.49000
 822.06;  -62.380;  -69.700;    0.000; 7.32000
 822.31;  -47.260;  -54.340;    0.000; 7.08000
 822.56;  -64.060;  -77.970;    0.000;13.91000
 822.82;  -63.110;  -69.810;    0.000; 6.70000
 823.07;  -68.250;  -89.380;    0.000;21.13000
 823.32;  -65.310;  -75.860;    0.000;10.55000
 823.58;  -55.910;  -70.420;    0.000;14.51000
 823.83;  -63.970;  -70.980;    0.000; 7.01000
 824.08;  -67.690;  -78.660;    0.000;10.97000
 824.33;  -66.330;  -75.510;    0.000; 9.18000
 824.59;  -69.760;  -83.240;    0.000;13.48000
 824.84;  -61.660;  -69.990;    0.000; 8.33000
 825.09;  -67.270;  -83.730;    0.000;16.46001
 825.34;  -55.150;  -74.630;    0.000;19.48000
 825.60;  -65.680;  -84.950;    0.000;19.27000
 825.85;  -66.570;  -74.770;    0.000; 8.20000
 826.10;  -75.030;  -85.230;    0.000;10.20000
 826.35;  -70.290;  -69.940;    0.000;-0.35000
 826.61;  -67.010;  -80.400;    0.000;13.39000
 826.86;  -73.280;  -79.490;    0.000; 6.21000
 827.11;  -61.430;  -86.280;    0.000;24.85000
 827.36;  -65.280;  -71.910;    0.000; 6.63000
 827.61;  -70.300;  -84.850;    0.000;14.55000
 827.87;  -64.140;  -71.570;    0.000; 7.43000
 828.12;  -70.420;  -78.830;    0.000; 8.41000
 828.37;  -61.350;  -68.330;    0.000; 6.98000
 828.62;  -63.610;  -77.270;    0.000;13.66000
 828.88;  -50.850;  -60.210;    0.000; 9.36000
 829.13;  -55.220;  -70.740;    0.000;15.52000
 829.38;  -64.500;  -69.280;    0.000; 4.78000
 829.63;  -72.920;  -83.630;    0.000;10.71000
 829.88;  -66.560;  -69.950;    0.000; 3.39000
 830.14;  -62.950;  -81.910;    0.000;18.96000
 830.39;  -43.730;  -58.230;    0.000;14.50000
 830.64;  -69.600;  -82.670;    0.000;13.07000
 830.89;  -56.890;  -62.930;    0.000; 6.04000
 831.14;  -71.020;  -71.790;    0.000; 0.77000
 831.39;  -81.920;  -73.460;    0.000;-8.46000
 831.65;  -77.860;  -85.810;    0.000; 7.95000
 831.90;  -70.430;  -75.250;    0.000; 4.82000
 832.15;  -68.920;  -75.760;    0.000; 6.84000
 832.40;  -60.390;  -68.560;    0.000; 8.17000
 832.65;  -70.360;  -76.110;    0.000; 5.75000
 832.90;  -69.890;  -74.690;    0.000; 4.80000
 833.16;  -67.880;  -72.190;    0.000; 4.31001
 833.41;  -60.210;  -74.650;    0.000;14.44000
 833.66;  -69.880;  -75.930;    0.000; 6.05000
 833.91;  -63.270;  -67.900;    0.000; 4.63000
 834.16;  -74.310;  -86.950;    0.000;12.64000
 834.41;  -64.890;  -77.320;    0.000;12.43000
 834.66;  -65.630;  -80.900;    0.000;15.27000
 834.92;  -66.870;  -78.390;    0.000;11.52000
 835.17;  -72.190;  -83.210;    0.000;11.02000
 835.42;  -66.780;  -71.510;    0.000; 4.73000
 835.67;  -61.330;  -72.580;    0.000;11.25000
 835.92;  -72.770;  -66.140;    0.000;-6.63000
 836.17;  -71.420;  -85.970;    0.000;14.55000
 836.42;  -70.600;  -76.440;    0.000; 5.84000
 836.67;  -75.670;  -84.830;    0.000; 9.16000
 836.93;  -67.440;  -73.590;    0.000; 6.14999
 837.18;  -69.550;  -72.250;    0.000; 2.70000
 837.43;  -66.730;  -78.260;    0.000;11.53000
 837.68;  -74.540;  -82.050;    0.000; 7.51000
 837.93;  -75.110;  -76.650;    0.000; 1.54000
 838.18;  -78.870;  -83.090;    0.000; 4.21999
 838.43;  -70.730;  -77.150;    0.000; 6.42000
 838.68;  -67.230;  -79.940;    0.000;12.71000
 838.93;  -70.730;  -79.860;    0.000; 9.13000
 839.18;  -64.770;  -78.450;    0.000;13.68000
 839.43;  -59.130;  -61.670;    0.000; 2.54000
 839.69;  -77.660;  -86.230;    0.000; 8.57000
 839.94;  -71.170;  -73.790;    0.000; 2.62000
 840.19;  -67.420;  -77.230;    0.000; 9.81001
 840.44;  -64.980;  -72.120;    0.000; 7.14000
 840.69;  -56.620;  -81.760;    0.000;25.14000
 840.94;  -72.210;  -66.470;    0.000;-5.74000
 841.19;  -59.000;  -64.420;    0.000; 5.42000
 841.44;  -71.540;  -68.610;    0.000;-2.93000
 841.69;  -60.160;  -64.030;    0.000; 3.87000
 841.94;  -70.310;  -75.480;    0.000; 5.17001
 842.19;  -67.460;  -83.640;    0.000;16.18000
 842.44;  -68.960;  -85.160;    0.000;16.20000
 842.69;  -72.270;  -77.660;    0.000; 5.39001
 842.94;  -63.340;  -78.190;    0.000;14.85000
 843.19;  -76.340;  -78.290;    0.000; 1.95000
 843.44;  -70.500;  -75.980;    0.000; 5.48000
 843.69;  -73.900;  -86.680;    0.000;12.78000
 843.94;  -35.630;  -39.320;    0.000; 3.69000
 844.19;  -70.460;  -86.460;    0.000;16.00000
 844.44;  -70.240;  -55.430;    0.000;-14.81000
 844.69;  -68.360;  -79.810;    0.000;11.45000
 844.95;  -63.880;  -73.690;    0.000; 9.81000
 845.20;  -81.490;  -89.580;    0.000; 8.09000
 845.45;  -54.540;  -62.840;    0.000; 8.30000
 845.70;  -65.690;  -79.910;    0.000;14.22000
 845.95;  -70.960;  -67.470;    0.000;-3.49000
 846.20;  -69.730;  -81.520;    0.000;11.78999
 846.45;  -79.410;  -76.240;    0.000;-3.17001
 846.70;  -71.400;  -83.210;    0.000;11.81000
 846.95;  -79.140;  -72.270;    0.000;-6.87000
 847.20;  -69.650;  -81.890;    0.000;12.24000
 847.44;  -55.150;  -55.120;    0.000;-0.03000
 847.69;  -77.000;  -84.720;    0.000; 7.72000
 847.94;  -65.620;  -67.830;    0.000; 2.21000
 848.19;  -75.900;  -79.830;    0.000; 3.93000
 848.44;  -63.400;  -67.870;    0.000; 4.47000
 848.69;  -74.980;  -78.940;    0.000; 3.96000
 848.94;  -64.950;  -68.220;    0.000; 3.27000
 849.19;  -72.340;  -80.140;    0.000; 7.80000
 849.44;  -71.550;  -72.650;    0.000; 1.10000
 849.69;  -71.260;  -71.590;    0.000; 0.32999
 849.94;  -76.900;  -76.930;    0.000; 0.03000
 850.19;  -68.270;  -73.360;    0.000; 5.09000
 850.44;  -70.800;  -66.290;    0.000;-4.51000
 850.69;  -77.390;  -82.280;    0.000; 4.89000
 850.94;  -69.260;  -74.510;    0.000; 5.25000
 851.19;  -72.150;  -79.970;    0.000; 7.82000
 851.44;  -66.930;  -74.230;    0.000; 7.30000
 851.69;  -84.090;  -88.970;    0.000; 4.88000
 851.94;  -74.680;  -72.250;    0.000;-2.43000
 852.19;  -76.860;  -76.110;    0.000;-0.75000
 852.44;  -70.090;  -71.950;    0.000; 1.86000
 852.68;  -70.720;  -80.960;    0.000;10.24000
 852.93;  -69.330;  -68.910;    0.000;-0.42000
 853.18;  -74.720;  -81.380;    0.000; 6.66000
 853.43;  -71.070;  -78.500;    0.000; 7.43000
 853.68;  -68.450;  -81.760;    0.000;13.31001
 853.93;  -61.520;  -64.570;    0.000; 3.05000
 854.18;  -66.100;  -68.640;    0.000; 2.54000
 854.43;  -69.570;  -71.570;    0.000; 2.00000
 854.68;  -65.920;  -81.760;    0.000;15.84000
 854.93;  -68.910;  -62.170;    0.000;-6.74001
 855.18;  -72.070;  -77.640;    0.000; 5.57000
 855.42;  -66.000;  -66.050;    0.000; 0.05000
 855.67;  -73.460;  -78.320;    0.000; 4.86000
 855.92;  -77.300;  -82.080;    0.000; 4.78000
 856.17;  -69.170;  -75.620;    0.000; 6.45000
 856.42;  -77.150;  -75.370;    0.000;-1.78000
 856.67;  -74.850;  -83.310;    0.000; 8.46000
 856.92;  -71.220;  -76.990;    0.000; 5.77000
 857.17;  -81.570;  -85.010;    0.000; 3.44000
 857.41;  -72.410;  -78.320;    0.000; 5.91000
 857.66;  -70.510;  -73.210;    0.000; 2.70000
 857.91;  -65.140;  -66.900;    0.000; 1.76000
 858.16;  -66.960;  -79.660;    0.000;12.70000
 858.41;  -67.370;  -73.780;    0.000; 6.41000
 858.66;  -77.770;  -75.720;    0.000;-2.05000
 858.91;  -64.970;  -68.300;    0.000; 3.33000
 859.15;  -77.740;  -87.480;    0.000; 9.74001
 859.40;  -59.280;  -62.810;    0.000; 3.53000
 859.65;  -73.170;  -77.170;    0.000; 4.00000
 859.90;  -77.240;  -73.530;    0.000;-3.71000
 860.15;  -73.560;  -77.320;    0.000; 3.76000
 860.40;  -66.030;  -61.790;    0.000;-4.24000
 860.64;  -67.820;  -74.900;    0.000; 7.08000
 860.89;  -77.860;  -74.710;    0.000;-3.15000
 861.14;  -74.610;  -82.280;    0.000; 7.67000
 861.39;  -68.050;  -66.620;    0.000;-1.43000
 861.64;  -78.030;  -83.440;    0.000; 5.41000
 861.88;  -65.850;  -63.350;    0.000;-2.50000
 862.13;  -68.730;  -79.620;    0.000;10.89000
 862.38;  -75.970;  -72.850;    0.000;-3.12000
 862.63;  -79.800;  -90.030;    0.000;10.23000
 862.88;  -66.300;  -78.150;    0.000;11.85000
 863.12;  -66.750;  -78.270;    0.000;11.52000
 863.37;  -69.710;  -70.270;    0.000; 0.56000
 863.62;  -81.490;  -80.030;    0.000;-1.46000
 863.87;  -73.600;  -77.710;    0.000; 4.11000
 864.12;  -78.130;  -81.170;    0.000; 3.04000
 864.36;  -74.310;  -74.740;    0.000; 0.43000
 864.61;  -71.030;  -80.430;    0.000; 9.40000
 864.86;  -80.910;  -75.370;    0.000;-5.54000
 865.11;  -69.140;  -80.000;    0.000;10.86000
 865.35;  -67.640;  -69.330;    0.000; 1.69000
 865.60;  -65.360;  -80.180;    0.000;14.82000
 865.85;  -57.480;  -69.460;    0.000;11.98000
 866.10;  -80.780;  -78.520;    0.000;-2.26000
 866.34;  -67.540;  -70.970;    0.000; 3.43000
 866.59;  -62.760;  -72.940;    0.000;10.18000
 866.84;  -74.970;  -80.580;    0.000; 5.61000
 867.09;  -77.590;  -73.660;    0.000;-3.92999
 867.33;  -76.680;  -80.890;    0.000; 4.21000
 867.58;  -67.520;  -79.090;    0.000;11.57000
 867.83;  -79.640;  -76.030;    0.000;-3.61000
 868.08;  -71.230;  -75.930;    0.000; 4.70000
 868.32;  -69.210;  -77.890;    0.000; 8.68000
 868.57;  -75.900;  -80.570;    0.000; 4.67000
 868.82;  -69.390;  -70.280;    0.000; 0.89000
 869.07;  -80.630;  -88.570;    0.000; 7.94000
 869.31;  -76.250;  -71.860;    0.000;-4.39000
 869.56;  -80.700;  -85.510;    0.000; 4.81001
 869.81;  -72.720;  -69.110;    0.000;-3.61000
 870.05;  -84.070;  -88.690;    0.000; 4.62000
 870.30;  -67.620;  -71.000;    0.000; 3.38000
 870.55;  -70.650;  -73.990;    0.000; 3.34000
 870.80;  -66.150;  -67.800;    0.000; 1.65000
 871.04;  -72.490;  -74.740;    0.000; 2.25000
 871.29;  -67.440;  -71.980;    0.000; 4.54000
 871.54;  -74.000;  -81.420;    0.000; 7.42000
 871.78;  -78.480;  -80.770;    0.000; 2.28999
 872.03;  -75.200;  -80.330;    0.000; 5.13000
 872.28;  -67.050;  -69.600;    0.000; 2.55000
 872.52;  -72.110;  -82.020;    0.000; 9.91000
 872.77;  -65.320;  -71.450;    0.000; 6.13000
 873.02;  -78.470;  -84.180;    0.000; 5.71000
 873.26;  -78.330;  -76.170;    0.000;-2.16000
 873.51;  -63.950;  -72.470;    0.000; 8.52000
 873.76;  -76.370;  -73.320;    0.000;-3.05000
 874.00;  -67.940;  -73.990;    0.000; 6.05000
 874.25;  -75.760;  -81.590;    0.000; 5.82999
 874.50;  -79.320;  -83.150;    0.000; 3.83000
 874.74;  -82.650;  -73.370;    0.000;-9.28000
 874.99;  -72.550;  -84.660;    0.000;12.11000
 875.24;  -55.190;  -56.740;    0.000; 1.55000
 875.48;  -75.700;  -83.860;    0.000; 8.16000
 875.73;  -66.920;  -76.130;    0.000; 9.21000
 875.98;  -74.110;  -87.110;    0.000;13.00000
 876.22;  -73.480;  -67.050;    0.000;-6.43000
 876.47;  -67.290;  -73.650;    0.000; 6.36000
 876.71;  -70.550;  -72.930;    0.000; 2.38000
 876.96;  -65.130;  -71.230;    0.000; 6.10001
 877.21;  -70.730;  -72.970;    0.000; 2.24000
 877.45;  -80.140;  -90.180;    0.000;10.04000
 877.70;  -68.650;  -75.560;    0.000; 6.91000
 877.95;  -66.010;  -77.820;    0.000;11.81000
 878.19;  -62.240;  -61.360;    0.000;-0.88000
 878.44;  -70.480;  -81.190;    0.000;10.71000
 878.68;  -47.880;  -57.170;    0.000; 9.29000
 878.93;  -68.570;  -78.570;    0.000;10.00000
 879.18;  -68.740;  -62.160;    0.000;-6.58000
 879.42;  -66.770;  -79.490;    0.000;12.72000
 879.67;  -71.990;  -77.840;    0.000; 5.85000
 879.91;  -68.290;  -69.200;    0.000; 0.91000
 880.16;  -62.790;  -68.380;    0.000; 5.59000
 880.40;  -76.910;  -76.600;    0.000;-0.31001
 880.65;  -65.090;  -68.110;    0.000; 3.02000
 880.90;  -65.410;  -70.920;    0.000; 5.50999
 881.14;  -60.430;  -63.690;    0.000; 3.26000
 881.39;  -73.940;  -79.520;    0.000; 5.57999
 881.63;  -69.720;  -68.090;    0.000;-1.63000
 881.88;  -70.750;  -73.090;    0.000; 2.34000
 882.12;  -63.500;  -68.080;    0.000; 4.58000
 882.37;  -72.370;  -77.030;    0.000; 4.66000
 882.62;  -75.600;  -77.360;    0.000; 1.76000
 882.86;  -69.610;  -78.920;    0.000; 9.31000
 883.11;  -70.400;  -70.390;    0.000;-0.01000
 883.35;  -61.440;  -74.500;    0.000;13.06000
 883.60;  -52.200;  -66.560;    0.000;14.36000
 883.84;  -68.750;  -73.180;    0.000; 4.43000
 884.09;  -65.370;  -70.450;    0.000; 5.07999
 884.33;  -71.510;  -77.520;    0.000; 6.00999
 884.58;  -69.500;  -68.190;    0.000;-1.31000
 884.82;  -76.290;  -79.030;    0.000; 2.74000
 885.07;  -66.500;  -71.510;    0.000; 5.01000
 885.31;  -67.070;  -74.710;    0.000; 7.64000
 885.56;  -65.420;  -64.690;    0.000;-0.73000
 885.80;  -66.960;  -83.130;    0.000;16.17000
 886.05;  -74.520;  -80.190;    0.000; 5.67001
 886.29;  -58.400;  -74.270;    0.000;15.87000
 886.54;  -70.180;  -72.290;    0.000; 2.11000
 886.78;  -62.090;  -72.100;    0.000;10.01000
 887.03;  -62.010;  -62.750;    0.000; 0.74000
 887.27;  -50.160;  -62.270;    0.000;12.11000
 887.52;  -66.860;  -68.600;    0.000; 1.74000
 887.76;  -58.930;  -70.110;    0.000;11.18000
 888.01;  -62.070;  -72.830;    0.000;10.76000
 888.25;  -66.250;  -76.670;    0.000;10.42000
 888.50;  -52.890;  -65.300;    0.000;12.41000
 888.74;  -62.160;  -73.030;    0.000;10.87000
 888.99;  -66.910;  -68.560;    0.000; 1.64999
 889.23;  -57.390;  -74.740;    0.000;17.35000
 889.48;  -63.870;  -67.330;    0.000; 3.46000
 889.72;  -55.430;  -65.430;    0.000;10.00000
 889.97;  -60.150;  -65.610;    0.000; 5.46000
 890.21;  -64.240;  -69.450;    0.000; 5.21000
 890.46;  -52.530;  -61.290;    0.000; 8.76000
 890.70;  -66.450;  -79.650;    0.000;13.20000
 890.94;  -48.810;  -61.400;    0.000;12.59000
 891.19;  -61.640;  -69.150;    0.000; 7.51000
 891.43;  -56.210;  -57.360;    0.000; 1.15000
 891.68;  -51.960;  -55.550;    0.000; 3.59000
 891.92;  -57.100;  -60.700;    0.000; 3.60000
 892.17;  -62.690;  -66.860;    0.000; 4.17000
 892.41;  -55.630;  -59.720;    0.000; 4.09000
 892.66;  -61.260;  -76.190;    0.000;14.93000
 892.90;  -35.150;  -40.820;    0.000; 5.67000
 893.14;  -65.080;  -75.130;    0.000;10.05000
 893.39;  -57.410;  -60.740;    0.000; 3.33000
 893.63;  -64.490;  -77.900;    0.000;13.41000
 893.88;  -62.140;  -69.930;    0.000; 7.79000
 894.12;  -63.070;  -70.570;    0.000; 7.50000
 894.36;  -52.780;  -57.010;    0.000; 4.23000
 894.61;  -55.060;  -65.570;    0.000;10.51000
 894.85;  -48.450;  -57.860;    0.000; 9.41000
 895.10;  -54.400;  -63.260;    0.000; 8.86000
 895.34;  -55.180;  -66.190;    0.000;11.01000
 895.58;  -61.010;  -69.510;    0.000; 8.50000
 895.83;  -54.960;  -58.440;    0.000; 3.48000
 896.07;  -54.900;  -67.190;    0.000;12.29000
 896.32;  -58.230;  -56.170;    0.000;-2.06000
 896.56;  -52.470;  -71.090;    0.000;18.62000
 896.80;  -55.180;  -60.750;    0.000; 5.57000
 897.05;  -59.130;  -71.180;    0.000;12.05000
 897.29;  -45.720;  -50.870;    0.000; 5.15000
 897.53;  -54.520;  -67.890;    0.000;13.37000
 897.78;  -55.810;  -59.750;    0.000; 3.94000
 898.02;  -46.920;  -54.440;    0.000; 7.52000
 898.26;  -57.720;  -60.460;    0.000; 2.74000
 898.51;  -55.010;  -69.080;    0.000;14.07000
 898.75;  -51.910;  -54.110;    0.000; 2.20000
 898.99;  -48.840;  -62.590;    0.000;13.75000
 899.24;  -50.360;  -50.380;    0.000; 0.02000
 899.48;  -43.900;  -65.060;    0.000;21.16000
 899.73;  -51.770;  -51.990;    0.000; 0.22000
 899.97;  -42.500;  -46.710;    0.000; 4.21000
 900.21;  -42.780;  -46.190;    0.000; 3.41000
 900.46;  -36.420;  -42.660;    0.000; 6.24000
 900.70;  -23.280;  -32.140;    0.000; 8.86000
 900.94;  -43.060;  -52.880;    0.000; 9.82000
 901.18;  -38.360;  -32.620;    0.000;-5.74000
 901.43;  -34.180;  -49.310;    0.000;15.13000
 901.67;  -33.260;  -40.040;    0.000; 6.78000
 901.91;  -25.770;  -38.500;    0.000;12.73000
 902.16;  -23.180;  -26.680;    0.000; 3.50000
 902.40;  -20.040;  -25.580;    0.000; 5.54000
 902.64;  -20.330;  -27.800;    0.000; 7.47000
 902.89;  -16.920;  -30.210;    0.000;13.29000
 903.13;  -16.340;  -14.870;    0.000;-1.47000
 903.37;   -5.720;  -27.280;    0.000;21.56000
 903.61;    5.000;    0.170;    0.000; 4.83000
 903.86;   10.780;  -13.960;    0.000;24.74000
 904.10;   18.710;    7.550;    0.000;11.16000
 904.34;   16.260;    7.360;    0.000; 8.90000
 904.59;   22.870;   19.820;    0.000; 3.05000
 904.83;   36.270;   28.120;    0.000; 8.15000
 905.07;   47.610;   43.760;    0.000; 3.85000
 905.31;   59.140;   52.600;    0.000; 6.54000
 905.56;   73.440;   74.450;    0.000;-1.00999
 905.80;   92.850;   83.880;    0.000; 8.97000

