
Integration time [ms]:  10.000
Averaging Nr. [scans]: 100
Smoothing Nr. [pixels]: 0
Data measured with spectrometer [name]: 1307078U2
Wave   ;Sample   ;Dark     ;Reference;Scope Corrected for Dark
[nm]   ;[counts] ;[counts] ;[counts] 

 351.07;   17.770;    1.990;    0.000;15.78000
 351.37;    7.260;    2.840;    0.000; 4.42000
 351.66;   16.620;    9.940;    0.000; 6.68000
 351.95;   10.950;   -4.530;    0.000;15.48000
 352.24;    4.080;  -15.890;    0.000;19.97000
 352.54;   10.790;  -10.120;    0.000;20.91000
 352.83;   10.600;    0.130;    0.000;10.47000
 353.12;   16.660;    2.830;    0.000;13.83000
 353.42;    4.180;  -15.300;    0.000;19.48000
 353.71;    0.510;  -10.820;    0.000;11.33000
 354.00;   12.720;    4.470;    0.000; 8.25000
 354.30;    4.030;   -9.470;    0.000;13.50000
 354.59;    6.780;   -6.260;    0.000;13.04000
 354.88;   13.170;   -7.830;    0.000;21.00000
 355.17;    1.310;  -11.980;    0.000;13.29000
 355.47;   -0.060;  -12.230;    0.000;12.17000
 355.76;    7.670;   -0.430;    0.000; 8.10000
 356.05;   20.310;   -0.120;    0.000;20.43000
 356.35;    8.230;  -10.970;    0.000;19.20000
 356.64;   17.890;    4.260;    0.000;13.63000
 356.93;   10.910;   -5.560;    0.000;16.47000
 357.22;   21.260;   11.340;    0.000; 9.92000
 357.52;   -3.980;   -5.230;    0.000; 1.25000
 357.81;    7.520;    3.000;    0.000; 4.52000
 358.10;   10.100;  -11.750;    0.000;21.85000
 358.39;    2.630;    3.750;    0.000;-1.12000
 358.69;    2.740;   -2.590;    0.000; 5.33000
 358.98;   -3.940;  -10.110;    0.000; 6.17000
 359.27;    2.330;   -5.380;    0.000; 7.71000
 359.57;   15.470;    5.370;    0.000;10.10000
 359.86;   -0.470;  -11.540;    0.000;11.07000
 360.15;   21.240;    2.780;    0.000;18.46000
 360.44;    5.460;  -14.280;    0.000;19.74000
 360.74;   10.440;   -1.840;    0.000;12.28000
 361.03;    3.250;   -8.680;    0.000;11.93000
 361.32;   11.420;  -10.790;    0.000;22.21000
 361.61;    3.640;  -11.050;    0.000;14.69000
 361.91;    7.590;    0.980;    0.000; 6.61000
 362.20;   -4.160;  -11.360;    0.000; 7.20000
 362.49;   10.670;   -6.030;    0.000;16.70000
 362.78;    7.490;   -1.640;    0.000; 9.13000
 363.08;    5.330;   -9.640;    0.000;14.97000
 363.37;    7.180;  -12.520;    0.000;19.70000
 363.66;   19.680;    4.960;    0.000;14.72000
 363.95;    2.130;  -13.210;    0.000;15.34000
 364.24;    7.000;   -3.870;    0.000;10.87000
 364.54;    0.240;   -4.510;    0.000; 4.75000
 364.83;    0.360;  -11.190;    0.000;11.55000
 365.12;   -1.240;  -14.530;    0.000;13.29000
 365.41;   21.350;    2.210;    0.000;19.14000
 365.71;    8.180;  -12.970;    0.000;21.15000
 366.00;    0.980;  -13.330;    0.000;14.31000
 366.29;   -7.270;  -12.070;    0.000; 4.80000
 366.58;    5.720;   -8.210;    0.000;13.93000
 366.87;    7.270;   -4.330;    0.000;11.60000
 367.17;   17.600;   10.550;    0.000; 7.05000
 367.46;    2.990;  -15.680;    0.000;18.67000
 367.75;    8.490;   -9.440;    0.000;17.93000
 368.04;    1.440;  -14.310;    0.000;15.75000
 368.34;    7.870;   -3.350;    0.000;11.22000
 368.63;    0.580;   -5.870;    0.000; 6.45000
 368.92;   18.020;    4.770;    0.000;13.25000
 369.21;    5.280;   -4.180;    0.000; 9.46000
 369.50;   15.860;    6.490;    0.000; 9.37000
 369.80;    9.370;   -9.770;    0.000;19.14000
 370.09;   11.120;   -3.650;    0.000;14.77000
 370.38;    2.280;  -11.370;    0.000;13.65000
 370.67;   -3.490;  -10.340;    0.000; 6.85000
 370.96;    4.220;  -10.990;    0.000;15.21000
 371.26;   10.100;  -10.670;    0.000;20.77000
 371.55;    4.940;  -18.820;    0.000;23.76000
 371.84;    9.400;   -3.730;    0.000;13.13000
 372.13;    1.240;   -8.840;    0.000;10.08000
 372.42;   15.730;    1.670;    0.000;14.06000
 372.71;   10.180;   -5.020;    0.000;15.20000
 373.01;   11.590;   -9.790;    0.000;21.38000
 373.30;    3.370;  -18.500;    0.000;21.87000
 373.59;   17.640;    1.490;    0.000;16.15000
 373.88;    3.570;   -2.930;    0.000; 6.50000
 374.17;   16.390;   -3.020;    0.000;19.41000
 374.46;    9.980;  -12.260;    0.000;22.24000
 374.76;   21.330;    9.200;    0.000;12.13000
 375.05;    3.390;    6.350;    0.000;-2.96000
 375.34;    3.950;   -7.790;    0.000;11.74000
 375.63;    3.770;  -11.110;    0.000;14.88000
 375.92;    9.690;   -5.550;    0.000;15.24000
 376.21;   -6.090;  -15.000;    0.000; 8.91000
 376.51;    1.350;  -10.860;    0.000;12.21000
 376.80;    8.080;   -1.600;    0.000; 9.68000
 377.09;   -7.530;  -15.780;    0.000; 8.25000
 377.38;    4.680;   -5.020;    0.000; 9.70000
 377.67;   12.230;   -1.550;    0.000;13.78000
 377.96;    0.250;   -8.760;    0.000; 9.01000
 378.25;    7.110;   -7.470;    0.000;14.58000
 378.55;   -9.960;  -17.830;    0.000; 7.87000
 378.84;    3.040;  -10.140;    0.000;13.18000
 379.13;    5.360;   -3.610;    0.000; 8.97000
 379.42;    8.160;  -13.640;    0.000;21.80000
 379.71;    7.620;   -9.550;    0.000;17.17000
 380.00;   21.410;    4.600;    0.000;16.81000
 380.29;  -12.320;  -20.900;    0.000; 8.58000
 380.59;    4.550;  -13.550;    0.000;18.10000
 380.88;   -0.440;  -11.250;    0.000;10.81000
 381.17;    0.110;  -14.120;    0.000;14.23000
 381.46;   -6.420;   -1.490;    0.000;-4.93000
 381.75;    5.100;   -6.720;    0.000;11.82000
 382.04;    4.440;   -6.950;    0.000;11.39000
 382.33;    1.530;   -8.710;    0.000;10.24000
 382.62;   -9.180;  -17.870;    0.000; 8.69000
 382.91;    3.290;   -4.340;    0.000; 7.63000
 383.21;   -0.770;  -15.710;    0.000;14.94000
 383.50;   -1.370;  -13.910;    0.000;12.54000
 383.79;    5.750;   -7.940;    0.000;13.69000
 384.08;   -1.980;  -17.080;    0.000;15.10000
 384.37;   -1.740;   -8.960;    0.000; 7.22000
 384.66;   -0.080;   -5.480;    0.000; 5.40000
 384.95;   -5.310;  -18.320;    0.000;13.01000
 385.24;    1.200;  -10.570;    0.000;11.77000
 385.53;   -6.750;  -10.020;    0.000; 3.27000
 385.83;   -2.550;  -19.960;    0.000;17.41000
 386.12;    5.580;   -7.370;    0.000;12.95000
 386.41;   -2.940;  -15.640;    0.000;12.70000
 386.70;   -1.360;  -22.760;    0.000;21.40000
 386.99;   10.180;   -5.870;    0.000;16.05000
 387.28;    7.030;   -9.050;    0.000;16.08000
 387.57;    8.520;   -8.090;    0.000;16.61000
 387.86;   -3.250;  -13.520;    0.000;10.27000
 388.15;   -2.470;  -11.820;    0.000; 9.35000
 388.44;    0.150;  -13.510;    0.000;13.66000
 388.73;   -4.620;   -9.650;    0.000; 5.03000
 389.02;    2.240;  -12.670;    0.000;14.91000
 389.31;   -0.340;  -17.780;    0.000;17.44000
 389.61;   -4.680;  -12.580;    0.000; 7.90000
 389.90;   -0.240;   -1.550;    0.000; 1.31000
 390.19;   -6.200;  -17.080;    0.000;10.88000
 390.48;   -0.180;   -7.260;    0.000; 7.08000
 390.77;    4.930;  -16.370;    0.000;21.30000
 391.06;    4.120;  -14.890;    0.000;19.01000
 391.35;   -5.810;  -20.660;    0.000;14.85000
 391.64;    9.150;    3.120;    0.000; 6.03000
 391.93;   -3.650;  -27.680;    0.000;24.03000
 392.22;    6.630;   -4.250;    0.000;10.88000
 392.51;    9.580;   -0.480;    0.000;10.06000
 392.80;   15.100;    0.130;    0.000;14.97000
 393.09;   -6.350;  -17.160;    0.000;10.81000
 393.38;    2.270;   -5.590;    0.000; 7.86000
 393.67;   -7.310;  -11.850;    0.000; 4.54000
 393.96;    1.490;   -3.580;    0.000; 5.07000
 394.25;    1.050;   -5.270;    0.000; 6.32000
 394.54;    4.430;  -10.940;    0.000;15.37000
 394.83;   -3.610;  -26.700;    0.000;23.09000
 395.13;    9.980;  -17.240;    0.000;27.22000
 395.42;    7.070;  -12.590;    0.000;19.66000
 395.71;    1.680;   -4.120;    0.000; 5.80000
 396.00;   -1.120;   -6.090;    0.000; 4.97000
 396.29;    0.390;   -2.370;    0.000; 2.76000
 396.58;   -6.440;  -14.700;    0.000; 8.26000
 396.87;   -0.690;  -12.070;    0.000;11.38000
 397.16;   -7.610;  -17.540;    0.000; 9.93000
 397.45;   -1.610;   -9.060;    0.000; 7.45000
 397.74;   -2.770;  -14.860;    0.000;12.09000
 398.03;    4.910;  -11.180;    0.000;16.09000
 398.32;   -6.430;  -21.950;    0.000;15.52000
 398.61;   -0.870;  -13.140;    0.000;12.27000
 398.90;   -0.550;  -10.560;    0.000;10.01000
 399.19;    8.360;   -7.320;    0.000;15.68000
 399.48;   -5.200;  -15.870;    0.000;10.67000
 399.77;   -1.740;  -12.280;    0.000;10.54000
 400.06;    8.130;  -14.080;    0.000;22.21000
 400.35;    0.910;  -10.410;    0.000;11.32000
 400.64;   -9.620;  -17.960;    0.000; 8.34000
 400.93;    8.890;   -6.800;    0.000;15.69000
 401.22;   -6.700;  -17.840;    0.000;11.14000
 401.51;    4.900;  -13.020;    0.000;17.92000
 401.80;    0.180;  -16.350;    0.000;16.53000
 402.09;   -8.700;  -14.710;    0.000; 6.01000
 402.38;   -5.440;  -16.230;    0.000;10.79000
 402.67;   -2.010;   -7.210;    0.000; 5.20000
 402.96;    1.880;   -7.580;    0.000; 9.46000
 403.25;    9.800;    5.550;    0.000; 4.25000
 403.54;    7.580;   -7.190;    0.000;14.77000
 403.83;   -1.100;  -11.910;    0.000;10.81000
 404.12;   -3.600;  -13.410;    0.000; 9.81000
 404.41;   10.870;   -0.210;    0.000;11.08000
 404.70;    2.160;  -17.410;    0.000;19.57000
 404.98;    6.550;  -14.010;    0.000;20.56000
 405.27;   -7.140;  -14.400;    0.000; 7.26000
 405.56;   17.100;    4.220;    0.000;12.88000
 405.85;  -10.330;  -15.830;    0.000; 5.50000
 406.14;    8.020;  -13.630;    0.000;21.65000
 406.43;   -2.190;  -10.620;    0.000; 8.43000
 406.72;    6.020;  -12.290;    0.000;18.31000
 407.01;   -6.740;  -21.100;    0.000;14.36000
 407.30;   -0.070;  -20.190;    0.000;20.12000
 407.59;   -3.810;  -19.810;    0.000;16.00000
 407.88;    3.950;   -8.870;    0.000;12.82000
 408.17;    0.630;  -17.110;    0.000;17.74000
 408.46;   11.390;   -4.060;    0.000;15.45000
 408.75;   10.280;   -4.650;    0.000;14.93000
 409.04;    0.420;  -19.590;    0.000;20.01000
 409.33;   -6.120;  -19.630;    0.000;13.51000
 409.62;   14.650;   -2.110;    0.000;16.76000
 409.91;   -8.010;  -26.460;    0.000;18.45000
 410.20;  -10.490;   -9.140;    0.000;-1.35000
 410.48;    3.400;   -7.780;    0.000;11.18000
 410.77;   -1.620;  -13.310;    0.000;11.69000
 411.06;    5.280;  -11.580;    0.000;16.86000
 411.35;   18.960;    5.610;    0.000;13.35000
 411.64;   -1.870;   -9.610;    0.000; 7.74000
 411.93;   -1.230;  -10.440;    0.000; 9.21000
 412.22;   -3.820;  -19.600;    0.000;15.78000
 412.51;    5.290;  -16.220;    0.000;21.51000
 412.80;   -3.010;  -15.400;    0.000;12.39000
 413.09;    8.560;  -10.870;    0.000;19.43000
 413.38;   -3.760;  -13.750;    0.000; 9.99000
 413.67;   -1.910;  -21.080;    0.000;19.17000
 413.96;  -18.450;  -31.980;    0.000;13.53000
 414.24;    7.520;  -19.800;    0.000;27.32000
 414.53;   -1.420;  -17.200;    0.000;15.78000
 414.82;    6.490;  -10.120;    0.000;16.61000
 415.11;    2.910;   -0.960;    0.000; 3.87000
 415.40;    9.600;   -8.850;    0.000;18.45000
 415.69;    1.570;  -15.490;    0.000;17.06000
 415.98;    0.740;  -23.990;    0.000;24.73000
 416.27;  -22.910;  -24.270;    0.000; 1.36000
 416.56;    4.840;   -3.280;    0.000; 8.12000
 416.84;   -7.130;  -19.790;    0.000;12.66000
 417.13;   -5.660;  -14.540;    0.000; 8.88000
 417.42;    5.970;   -8.280;    0.000;14.25000
 417.71;    1.830;   -8.120;    0.000; 9.95000
 418.00;   -1.390;  -16.780;    0.000;15.39000
 418.29;    5.900;   -4.550;    0.000;10.45000
 418.58;   -5.120;  -16.490;    0.000;11.37000
 418.87;    2.570;  -15.660;    0.000;18.23000
 419.15;   -2.160;  -18.900;    0.000;16.74000
 419.44;    0.470;  -18.980;    0.000;19.45000
 419.73;    0.530;  -11.850;    0.000;12.38000
 420.02;    4.370;   -7.110;    0.000;11.48000
 420.31;   -6.590;  -30.570;    0.000;23.98000
 420.60;    4.810;   -5.040;    0.000; 9.85000
 420.89;   -5.570;  -21.480;    0.000;15.91000
 421.18;    5.650;   -9.290;    0.000;14.94000
 421.46;    5.490;   -5.340;    0.000;10.83000
 421.75;    4.830;  -15.320;    0.000;20.15000
 422.04;  -14.280;  -21.410;    0.000; 7.13000
 422.33;    7.060;    2.320;    0.000; 4.74000
 422.62;   -0.370;  -18.220;    0.000;17.85000
 422.91;    0.980;  -24.820;    0.000;25.80000
 423.19;  -13.050;  -28.920;    0.000;15.87000
 423.48;   14.000;    0.140;    0.000;13.86000
 423.77;    0.430;  -18.100;    0.000;18.53000
 424.06;    6.490;   -9.180;    0.000;15.67000
 424.35;   -7.210;  -16.940;    0.000; 9.73000
 424.64;   10.280;   -2.420;    0.000;12.70000
 424.93;  -10.910;  -26.250;    0.000;15.34000
 425.21;   -2.770;  -17.130;    0.000;14.36000
 425.50;    2.760;  -12.130;    0.000;14.89000
 425.79;   -4.620;  -10.680;    0.000; 6.06000
 426.08;   -2.740;  -16.970;    0.000;14.23000
 426.37;   -1.060;   -9.660;    0.000; 8.60000
 426.65;  -12.040;  -22.930;    0.000;10.89000
 426.94;   -6.790;  -22.840;    0.000;16.05000
 427.23;    0.740;  -15.010;    0.000;15.75000
 427.52;    0.190;  -11.990;    0.000;12.18000
 427.81;  -11.360;  -29.120;    0.000;17.76000
 428.10;   12.370;   -4.670;    0.000;17.04000
 428.38;  -12.690;  -27.520;    0.000;14.83000
 428.67;    6.440;   -2.590;    0.000; 9.03000
 428.96;  -14.020;  -31.540;    0.000;17.52000
 429.25;   -4.410;  -14.100;    0.000; 9.69000
 429.54;   -1.190;  -13.980;    0.000;12.79000
 429.82;   -2.540;   -9.990;    0.000; 7.45000
 430.11;   -2.090;  -17.100;    0.000;15.01000
 430.40;   -0.550;  -12.650;    0.000;12.10000
 430.69;   -2.090;  -13.860;    0.000;11.77000
 430.98;  -10.480;  -21.990;    0.000;11.51000
 431.26;   -0.860;   -8.510;    0.000; 7.65000
 431.55;    2.250;   -6.460;    0.000; 8.71000
 431.84;   -4.840;  -21.790;    0.000;16.95000
 432.13;   -4.880;  -13.900;    0.000; 9.02000
 432.41;  -12.730;  -33.040;    0.000;20.31000
 432.70;    1.590;  -21.040;    0.000;22.63000
 432.99;   -1.680;  -16.870;    0.000;15.19000
 433.28;   -7.740;  -19.660;    0.000;11.92000
 433.57;    2.940;  -10.610;    0.000;13.55000
 433.85;    6.220;  -10.450;    0.000;16.67000
 434.14;   -8.210;  -24.160;    0.000;15.95000
 434.43;   16.120;    1.150;    0.000;14.97000
 434.72;  -14.400;  -20.670;    0.000; 6.27000
 435.00;   -8.370;  -23.620;    0.000;15.25000
 435.29;   -2.890;  -17.490;    0.000;14.60000
 435.58;   13.830;   -8.150;    0.000;21.98000
 435.87;    0.390;  -25.230;    0.000;25.62000
 436.15;   -6.510;  -22.240;    0.000;15.73000
 436.44;  -10.780;  -20.080;    0.000; 9.30000
 436.73;    6.370;  -15.600;    0.000;21.97000
 437.02;   -8.510;  -19.490;    0.000;10.98000
 437.30;    4.440;   -4.440;    0.000; 8.88000
 437.59;   -3.030;  -17.640;    0.000;14.61000
 437.88;    1.890;   -8.810;    0.000;10.70000
 438.17;  -11.620;  -28.660;    0.000;17.04000
 438.45;    0.770;  -19.800;    0.000;20.57000
 438.74;   -7.080;  -16.400;    0.000; 9.32000
 439.03;    2.000;  -14.480;    0.000;16.48000
 439.32;  -10.760;  -25.370;    0.000;14.61000
 439.60;   -8.020;  -22.430;    0.000;14.41000
 439.89;   -4.670;  -18.250;    0.000;13.58000
 440.18;   -8.950;  -20.970;    0.000;12.02000
 440.46;  -13.190;  -29.720;    0.000;16.53000
 440.75;    9.270;   -6.850;    0.000;16.12000
 441.04;  -19.140;  -28.000;    0.000; 8.86000
 441.33;    1.330;  -17.230;    0.000;18.56000
 441.61;  -14.410;  -28.680;    0.000;14.27000
 441.90;   17.800;    0.830;    0.000;16.97000
 442.19;   -9.600;  -30.670;    0.000;21.07000
 442.47;    1.810;  -10.780;    0.000;12.59000
 442.76;   -8.510;  -22.750;    0.000;14.24000
 443.05;   -4.190;  -21.380;    0.000;17.19000
 443.34;  -13.340;  -30.430;    0.000;17.09000
 443.62;   -2.870;  -17.090;    0.000;14.22000
 443.91;  -17.760;  -22.620;    0.000; 4.86000
 444.20;   11.050;    4.770;    0.000; 6.28000
 444.48;  -12.720;  -24.400;    0.000;11.68000
 444.77;   23.430;    9.730;    0.000;13.70000
 445.06;  -11.910;  -26.390;    0.000;14.48000
 445.34;   -3.190;  -12.470;    0.000; 9.28000
 445.63;  -11.550;  -25.530;    0.000;13.98000
 445.92;   23.390;    6.760;    0.000;16.63000
 446.21;   -4.650;  -22.450;    0.000;17.80000
 446.49;   -0.140;  -14.610;    0.000;14.47000
 446.78;    0.930;  -11.330;    0.000;12.26000
 447.07;   -8.830;   -9.930;    0.000; 1.10000
 447.35;   -6.850;  -24.390;    0.000;17.54000
 447.64;   -0.850;   -9.840;    0.000; 8.99000
 447.93;   -7.920;  -24.630;    0.000;16.71000
 448.21;   -4.850;  -21.700;    0.000;16.85000
 448.50;   -8.810;  -23.560;    0.000;14.75000
 448.79;  -14.170;  -20.390;    0.000; 6.22000
 449.07;   -3.250;  -12.200;    0.000; 8.95000
 449.36;   -7.920;  -25.580;    0.000;17.66000
 449.65;  -15.270;  -25.970;    0.000;10.70000
 449.93;   -1.310;   -9.050;    0.000; 7.74000
 450.22;   -1.110;  -21.560;    0.000;20.45000
 450.51;   -1.500;  -25.890;    0.000;24.39000
 450.79;   -5.870;  -27.730;    0.000;21.86000
 451.08;   -4.940;  -16.520;    0.000;11.58000
 451.36;   -4.840;  -14.260;    0.000; 9.42000
 451.65;   -0.720;  -14.880;    0.000;14.16000
 451.94;  -12.480;  -29.220;    0.000;16.74000
 452.22;  -10.190;  -25.260;    0.000;15.07000
 452.51;   -9.340;  -19.340;    0.000;10.00000
 452.80;   -3.340;  -25.310;    0.000;21.97000
 453.08;   -9.420;  -24.790;    0.000;15.37000
 453.37;    2.090;   -7.670;    0.000; 9.76000
 453.66;   -6.670;  -23.540;    0.000;16.87000
 453.94;   -7.090;  -22.460;    0.000;15.37000
 454.23;  -13.270;  -32.840;    0.000;19.57000
 454.51;   11.630;  -13.500;    0.000;25.13000
 454.80;  -16.340;  -32.380;    0.000;16.04000
 455.09;   -1.740;  -18.230;    0.000;16.49000
 455.37;    5.060;   -9.480;    0.000;14.54000
 455.66;   -3.400;  -17.710;    0.000;14.31000
 455.95;   -7.020;   -9.720;    0.000; 2.70000
 456.23;    1.530;  -12.820;    0.000;14.35000
 456.52;  -12.510;  -24.840;    0.000;12.33000
 456.80;   -5.940;  -27.870;    0.000;21.93000
 457.09;   -6.980;  -29.660;    0.000;22.68000
 457.38;   13.480;   -4.090;    0.000;17.57000
 457.66;    1.340;  -22.610;    0.000;23.95000
 457.95;   -9.340;  -23.380;    0.000;14.04000
 458.23;  -11.760;  -25.240;    0.000;13.48000
 458.52;   -1.460;  -13.190;    0.000;11.73000
 458.81;   -8.540;  -23.660;    0.000;15.12000
 459.09;   -4.470;  -19.720;    0.000;15.25000
 459.38;  -14.130;  -30.970;    0.000;16.84000
 459.66;   -9.220;  -24.540;    0.000;15.32000
 459.95;  -10.550;  -17.730;    0.000; 7.18000
 460.23;    7.080;  -19.520;    0.000;26.60000
 460.52;  -11.280;  -20.510;    0.000; 9.23000
 460.81;  -10.710;  -27.310;    0.000;16.60000
 461.09;  -16.670;  -28.620;    0.000;11.95000
 461.38;   -1.740;  -16.580;    0.000;14.84000
 461.66;  -22.050;  -30.120;    0.000; 8.07000
 461.95;  -13.890;  -21.580;    0.000; 7.69000
 462.23;   -4.600;  -15.290;    0.000;10.69000
 462.52;  -14.800;  -33.350;    0.000;18.55000
 462.81;  -16.630;  -34.430;    0.000;17.80000
 463.09;   -0.790;  -22.640;    0.000;21.85000
 463.38;  -17.410;  -34.400;    0.000;16.99000
 463.66;  -17.280;  -25.720;    0.000; 8.44000
 463.95;    4.760;  -23.300;    0.000;28.06000
 464.23;    4.550;  -13.770;    0.000;18.32000
 464.52;   -6.840;  -25.790;    0.000;18.95000
 464.80;  -16.550;  -22.270;    0.000; 5.72000
 465.09;   -0.120;  -15.500;    0.000;15.38000
 465.38;   -7.220;  -31.170;    0.000;23.95000
 465.66;  -12.730;  -34.180;    0.000;21.45000
 465.95;    0.030;  -13.170;    0.000;13.20000
 466.23;  -14.060;  -39.810;    0.000;25.75000
 466.52;  -10.420;  -26.140;    0.000;15.72000
 466.80;   14.040;   -9.390;    0.000;23.43000
 467.09;   -1.890;  -22.750;    0.000;20.86000
 467.37;   -2.570;  -18.880;    0.000;16.31000
 467.66;    5.110;  -16.140;    0.000;21.25000
 467.94;  -11.560;  -24.810;    0.000;13.25000
 468.23;   -3.810;  -19.950;    0.000;16.14000
 468.51;    4.680;  -11.990;    0.000;16.67000
 468.80;   -8.640;  -24.660;    0.000;16.02000
 469.08;    1.160;  -22.650;    0.000;23.81000
 469.37;   -0.080;  -15.420;    0.000;15.34000
 469.66;   -8.090;  -25.130;    0.000;17.04000
 469.94;  -10.740;  -22.920;    0.000;12.18000
 470.23;   -6.790;  -19.480;    0.000;12.69000
 470.51;   -7.230;  -21.700;    0.000;14.47000
 470.80;    4.820;  -14.170;    0.000;18.99000
 471.08;   -3.900;  -24.980;    0.000;21.08000
 471.37;   -8.050;  -22.870;    0.000;14.82000
 471.65;    1.950;  -11.550;    0.000;13.50000
 471.94;  -13.880;  -37.450;    0.000;23.57000
 472.22;   -6.480;  -30.200;    0.000;23.72000
 472.51;   -3.860;  -28.820;    0.000;24.96000
 472.79;   -5.160;  -18.730;    0.000;13.57000
 473.08;  -10.030;  -26.180;    0.000;16.15000
 473.36;    2.460;  -10.910;    0.000;13.37000
 473.64;  -15.730;  -26.000;    0.000;10.27000
 473.93;   -5.400;  -26.520;    0.000;21.12000
 474.21;  -10.650;  -32.440;    0.000;21.79000
 474.50;    0.950;  -22.240;    0.000;23.19000
 474.78;    3.990;   -6.350;    0.000;10.34000
 475.07;   -9.410;  -21.020;    0.000;11.61000
 475.35;   -6.790;  -19.560;    0.000;12.77000
 475.64;   -4.910;  -26.260;    0.000;21.35000
 475.92;   -8.830;  -28.450;    0.000;19.62000
 476.21;    1.050;  -26.200;    0.000;27.25000
 476.49;    1.370;  -22.820;    0.000;24.19000
 476.78;   -4.990;  -24.020;    0.000;19.03000
 477.06;   -3.240;  -26.290;    0.000;23.05000
 477.35;   -3.320;  -24.950;    0.000;21.63000
 477.63;  -11.480;  -31.450;    0.000;19.97000
 477.91;   -4.700;  -21.250;    0.000;16.55000
 478.20;   -9.740;  -32.050;    0.000;22.31000
 478.48;   -3.360;  -28.860;    0.000;25.50000
 478.77;   -6.450;  -26.670;    0.000;20.22000
 479.05;  -15.910;  -26.730;    0.000;10.82000
 479.34;   -4.190;  -25.260;    0.000;21.07000
 479.62;   -8.790;  -22.540;    0.000;13.75000
 479.91;   -5.210;  -25.850;    0.000;20.64000
 480.19;   12.820;   -6.410;    0.000;19.23000
 480.47;  -15.050;  -31.670;    0.000;16.62000
 480.76;   -9.250;  -22.550;    0.000;13.30000
 481.04;  -11.450;  -28.450;    0.000;17.00000
 481.33;    9.510;   -5.690;    0.000;15.20000
 481.61;   -9.680;  -29.120;    0.000;19.44000
 481.90;   -4.690;  -23.420;    0.000;18.73000
 482.18;   -4.120;  -28.430;    0.000;24.31000
 482.46;   -3.370;  -20.570;    0.000;17.20000
 482.75;   -9.260;  -23.240;    0.000;13.98000
 483.03;  -10.670;  -26.580;    0.000;15.91000
 483.32;  -17.870;  -28.070;    0.000;10.20000
 483.60;    3.440;  -23.380;    0.000;26.82000
 483.88;  -11.750;  -40.750;    0.000;29.00000
 484.17;   -0.610;  -20.730;    0.000;20.12000
 484.45;   -1.620;  -27.840;    0.000;26.22000
 484.74;    4.310;  -23.640;    0.000;27.95000
 485.02;    6.310;  -24.600;    0.000;30.91000
 485.30;    0.600;  -23.730;    0.000;24.33000
 485.59;   -3.350;  -23.620;    0.000;20.27000
 485.87;   21.230;  -12.160;    0.000;33.39000
 486.16;    3.520;  -24.400;    0.000;27.92000
 486.44;    2.980;  -25.040;    0.000;28.02000
 486.72;   -9.980;  -33.010;    0.000;23.03000
 487.01;    5.330;  -30.210;    0.000;35.54000
 487.29;    2.470;  -22.520;    0.000;24.99000
 487.58;   21.450;  -14.390;    0.000;35.84000
 487.86;    7.790;  -24.810;    0.000;32.60000
 488.14;    6.030;  -31.580;    0.000;37.61000
 488.43;    5.610;  -32.780;    0.000;38.39000
 488.71;   12.580;  -28.340;    0.000;40.92000
 488.99;   18.610;  -24.200;    0.000;42.81000
 489.28;   17.480;  -21.500;    0.000;38.98000
 489.56;   14.600;  -34.720;    0.000;49.32000
 489.85;   21.090;  -32.510;    0.000;53.60000
 490.13;   27.620;  -28.490;    0.000;56.11000
 490.41;   40.610;  -18.750;    0.000;59.36000
 490.70;   36.140;  -31.500;    0.000;67.64000
 490.98;   42.090;  -28.680;    0.000;70.77000
 491.26;   39.700;  -29.990;    0.000;69.69000
 491.55;   55.770;  -30.740;    0.000;86.51000
 491.83;   63.340;  -18.200;    0.000;81.54000
 492.11;   78.310;  -17.410;    0.000;95.72000
 492.40;   75.200;  -23.950;    0.000;99.15000
 492.68;  102.540;  -15.510;    0.000;118.05000
 492.96;   94.270;  -28.490;    0.000;122.76000
 493.25;  118.540;  -23.660;    0.000;142.20000
 493.53;  122.630;  -34.580;    0.000;157.21000
 493.81;  130.820;  -31.170;    0.000;161.99001
 494.10;  160.820;  -24.100;    0.000;184.92001
 494.38;  175.630;  -21.310;    0.000;196.94000
 494.66;  183.020;  -30.330;    0.000;213.35000
 494.95;  211.860;  -28.360;    0.000;240.22000
 495.23;  226.260;  -25.800;    0.000;252.05999
 495.51;  252.160;  -28.470;    0.000;280.63000
 495.80;  264.500;  -39.880;    0.000;304.38000
 496.08;  316.250;  -15.720;    0.000;331.97000
 496.36;  322.880;  -11.590;    0.000;334.47001
 496.65;  347.140;  -24.500;    0.000;371.64001
 496.93;  381.690;  -25.490;    0.000;407.18000
 497.21;  407.960;  -25.560;    0.000;433.51999
 497.50;  452.390;  -21.360;    0.000;473.75002
 497.78;  492.080;  -22.570;    0.000;514.64999
 498.06;  508.530;  -29.040;    0.000;537.57000
 498.34;  562.060;  -26.730;    0.000;588.79000
 498.63;  587.210;  -33.570;    0.000;620.78002
 498.91;  652.310;  -23.580;    0.000;675.89000
 499.19;  691.360;  -26.700;    0.000;718.05999
 499.48;  737.630;  -25.520;    0.000;763.15001
 499.76;  791.930;  -25.150;    0.000;817.07999
 500.04;  837.360;  -28.270;    0.000;865.62999
 500.32;  909.000;  -14.580;    0.000;923.58000
 500.61;  941.990;  -32.320;    0.000;974.30999
 500.89;  989.860;  -30.760;    0.000;1020.61999
 501.17; 1059.250;  -30.710;    0.000;1089.96000
 501.46; 1118.750;  -22.350;    0.000;1141.10000
 501.74; 1201.790;  -18.090;    0.000;1219.88004
 502.02; 1255.740;  -15.300;    0.000;1271.03999
 502.30; 1330.840;  -18.010;    0.000;1348.84997
 502.59; 1383.980;  -38.280;    0.000;1422.25998
 502.87; 1461.290;  -29.970;    0.000;1491.26004
 503.15; 1541.000;  -35.630;    0.000;1576.63000
 503.43; 1622.890;  -22.000;    0.000;1644.89001
 503.72; 1692.530;  -30.040;    0.000;1722.57003
 504.00; 1785.420;  -33.470;    0.000;1818.89005
 504.28; 1868.210;  -28.460;    0.000;1896.66996
 504.56; 1953.040;  -28.300;    0.000;1981.34004
 504.85; 2053.610;  -19.360;    0.000;2072.97011
 505.13; 2121.930;  -29.910;    0.000;2151.83993
 505.41; 2221.600;  -30.150;    0.000;2251.75010
 505.69; 2331.030;  -24.400;    0.000;2355.43003
 505.98; 2424.280;  -24.150;    0.000;2448.43003
 506.26; 2544.270;  -22.980;    0.000;2567.25002
 506.54; 2611.250;  -35.460;    0.000;2646.71000
 506.82; 2718.570;  -24.120;    0.000;2742.69007
 507.11; 2811.600;  -31.550;    0.000;2843.15010
 507.39; 2932.200;  -41.840;    0.000;2974.03995
 507.67; 3024.820;  -27.870;    0.000;3052.69007
 507.95; 3151.500;  -32.940;    0.000;3184.44000
 508.23; 3294.210;  -35.230;    0.000;3329.43996
 508.52; 3384.180;  -24.250;    0.000;3408.42993
 508.80; 3491.730;  -31.510;    0.000;3523.23998
 509.08; 3638.700;  -19.620;    0.000;3658.31995
 509.36; 3748.860;  -23.880;    0.000;3772.74011
 509.65; 3862.480;  -23.990;    0.000;3886.46998
 509.93; 3985.780;  -30.950;    0.000;4016.73003
 510.21; 4105.130;  -19.850;    0.000;4124.97988
 510.49; 4234.300;  -30.360;    0.000;4264.65981
 510.77; 4343.540;  -34.430;    0.000;4377.97004
 511.06; 4486.670;  -34.890;    0.000;4521.55992
 511.34; 4609.950;  -27.620;    0.000;4637.57020
 511.62; 4738.560;  -28.950;    0.000;4767.51006
 511.90; 4849.310;  -21.870;    0.000;4871.18006
 512.18; 4992.350;  -24.880;    0.000;5017.23010
 512.47; 5126.580;  -18.980;    0.000;5145.56008
 512.75; 5260.580;  -38.220;    0.000;5298.80008
 513.03; 5398.420;  -23.360;    0.000;5421.77992
 513.31; 5489.450;  -33.010;    0.000;5522.46019
 513.59; 5677.320;  -27.410;    0.000;5704.72982
 513.87; 5757.090;  -27.310;    0.000;5784.39984
 514.16; 5910.290;  -25.240;    0.000;5935.53004
 514.44; 6060.050;  -24.030;    0.000;6084.07981
 514.72; 6155.070;  -25.030;    0.000;6180.09982
 515.00; 6343.650;  -17.810;    0.000;6361.45990
 515.28; 6427.300;  -19.280;    0.000;6446.57981
 515.56; 6541.160;  -27.990;    0.000;6569.15016
 515.85; 6709.460;  -24.510;    0.000;6733.96996
 516.13; 6815.640;  -20.170;    0.000;6835.81014
 516.41; 6929.400;  -39.440;    0.000;6968.83990
 516.69; 7112.140;  -26.690;    0.000;7138.83014
 516.97; 7230.310;  -20.650;    0.000;7250.96006
 517.25; 7341.600;  -27.620;    0.000;7369.22010
 517.54; 7478.560;  -14.870;    0.000;7493.43006
 517.82; 7568.240;  -25.560;    0.000;7593.80023
 518.10; 7746.570;  -12.750;    0.000;7759.31982
 518.38; 7849.320;  -29.460;    0.000;7878.77982
 518.66; 7994.590;  -13.080;    0.000;8007.66984
 518.94; 8094.390;  -33.270;    0.000;8127.66014
 519.22; 8233.600;  -12.810;    0.000;8246.40961
 519.51; 8342.130;  -31.490;    0.000;8373.61988
 519.79; 8428.450;  -30.480;    0.000;8458.93019
 520.07; 8611.370;  -26.870;    0.000;8638.24012
 520.35; 8726.330;  -26.720;    0.000;8753.05008
 520.63; 8815.570;  -23.060;    0.000;8838.63031
 520.91; 8969.170;  -26.770;    0.000;8995.93992
 521.19; 9042.240;  -38.370;    0.000;9080.61023
 521.47; 9177.500;  -34.040;    0.000;9211.54000
 521.75; 9277.430;  -18.800;    0.000;9296.22969
 522.04; 9427.160;  -20.950;    0.000;9448.11016
 522.32; 9531.660;  -28.850;    0.000;9560.51016
 522.60; 9635.570;   -2.200;    0.000;9637.77031
 522.88; 9728.900;  -27.480;    0.000;9756.38039
 523.16; 9805.080;  -30.510;    0.000;9835.59008
 523.44; 9959.220;  -14.660;    0.000;9973.87973
 523.72;10028.690;  -14.230;    0.000;10042.92043
 524.00;10146.670;  -19.990;    0.000;10166.65992
 524.28;10266.200;  -13.820;    0.000;10280.02020
 524.57;10356.600;  -19.210;    0.000;10375.80961
 524.85;10493.760;  -18.070;    0.000;10511.82977
 525.13;10561.800;   -7.880;    0.000;10569.67980
 525.41;10687.370;  -15.200;    0.000;10702.57012
 525.69;10776.800;  -22.730;    0.000;10799.52980
 525.97;10881.050;  -11.300;    0.000;10892.34980
 526.25;10932.690;  -30.900;    0.000;10963.59043
 526.53;11026.970;  -24.080;    0.000;11051.04973
 526.81;11185.380;  -32.680;    0.000;11218.05988
 527.09;11241.190;  -18.610;    0.000;11259.80043
 527.37;11324.050;  -33.990;    0.000;11358.03981
 527.65;11416.420;  -20.330;    0.000;11436.74992
 527.93;11531.440;  -30.530;    0.000;11561.97043
 528.22;11539.170;  -21.370;    0.000;11560.53992
 528.50;11693.300;  -30.810;    0.000;11724.10980
 528.78;11766.030;  -19.390;    0.000;11785.42027
 529.06;11855.760;  -18.110;    0.000;11873.86977
 529.34;11977.330;  -12.610;    0.000;11989.94008
 529.62;12048.230;  -25.580;    0.000;12073.81047
 529.90;12165.120;  -18.220;    0.000;12183.34012
 530.18;12221.150;  -16.900;    0.000;12238.05039
 530.46;12304.850;  -12.490;    0.000;12317.33961
 530.74;12366.770;  -16.000;    0.000;12382.76953
 531.02;12503.800;   -8.990;    0.000;12512.78980
 531.30;12564.360;  -17.900;    0.000;12582.26035
 531.58;12643.240;  -22.140;    0.000;12665.38023
 531.86;12749.640;  -16.120;    0.000;12765.75965
 532.14;12838.280;  -14.770;    0.000;12853.05027
 532.42;12866.940;  -15.480;    0.000;12882.42043
 532.70;12919.620;  -15.860;    0.000;12935.48012
 532.98;12992.690;  -16.040;    0.000;13008.73043
 533.26;13119.530;   -9.200;    0.000;13128.73027
 533.54;13141.060;  -13.350;    0.000;13154.40957
 533.82;13289.430;  -12.340;    0.000;13301.76969
 534.10;13308.610;  -20.000;    0.000;13328.61035
 534.38;13375.270;  -16.730;    0.000;13391.99953
 534.66;13480.280;  -19.020;    0.000;13499.30027
 534.94;13558.000;  -15.430;    0.000;13573.43000
 535.22;13614.450;  -25.480;    0.000;13639.93019
 535.50;13683.040;  -16.270;    0.000;13699.31004
 535.78;13742.980;  -35.370;    0.000;13778.35047
 536.06;13843.530;  -21.060;    0.000;13864.59027
 536.34;13924.900;  -27.730;    0.000;13952.63039
 536.62;13962.830;  -21.040;    0.000;13983.87008
 536.90;14010.290;  -23.680;    0.000;14033.97004
 537.18;14100.900;  -20.220;    0.000;14121.12039
 537.46;14158.830;  -32.690;    0.000;14191.52008
 537.74;14258.080;  -25.030;    0.000;14283.11008
 538.02;14316.780;  -23.550;    0.000;14340.33027
 538.30;14430.370;   -6.860;    0.000;14437.23012
 538.58;14426.340;  -30.360;    0.000;14456.69984
 538.86;14472.750;   -6.790;    0.000;14479.54000
 539.14;14578.370;  -24.250;    0.000;14602.62012
 539.42;14684.960;    7.090;    0.000;14677.86996
 539.70;14708.900;  -28.650;    0.000;14737.55039
 539.98;14770.790;   -6.010;    0.000;14776.80004
 540.26;14818.460;  -20.240;    0.000;14838.69996
 540.54;14907.000;  -28.370;    0.000;14935.37000
 540.82;14963.470;  -30.880;    0.000;14994.34973
 541.10;15090.620;  -11.720;    0.000;15102.34012
 541.38;15130.580;  -29.890;    0.000;15160.47008
 541.66;15128.310;  -19.600;    0.000;15147.90957
 541.94;15187.620;  -20.400;    0.000;15208.02012
 542.22;15258.590;  -22.450;    0.000;15281.03984
 542.50;15333.620;  -25.920;    0.000;15359.54012
 542.78;15403.820;  -22.300;    0.000;15426.12031
 543.06;15418.460;  -24.780;    0.000;15443.23996
 543.34;15477.970;  -13.100;    0.000;15491.06973
 543.62;15498.360;  -22.330;    0.000;15520.69035
 543.90;15604.880;  -21.000;    0.000;15625.87988
 544.17;15680.440;  -28.870;    0.000;15709.31043
 544.45;15709.630;  -25.940;    0.000;15735.56988
 544.73;15751.740;  -19.130;    0.000;15770.87023
 545.01;15826.880;  -25.070;    0.000;15851.94988
 545.29;15869.840;  -23.350;    0.000;15893.18984
 545.57;15893.630;  -13.760;    0.000;15907.38988
 545.85;15938.630;  -16.940;    0.000;15955.56988
 546.13;15962.330;  -27.870;    0.000;15990.20008
 546.41;16046.680;  -16.310;    0.000;16062.98969
 546.69;16098.030;  -32.210;    0.000;16130.24027
 546.97;16207.800;  -24.550;    0.000;16232.34980
 547.25;16182.430;  -27.210;    0.000;16209.63969
 547.52;16232.020;  -26.500;    0.000;16258.51953
 547.80;16248.730;  -20.870;    0.000;16269.60047
 548.08;16313.000;  -23.140;    0.000;16336.14000
 548.36;16342.640;  -18.030;    0.000;16360.66965
 548.64;16439.891;  -17.680;    0.000;16457.57063
 548.92;16410.150;  -24.050;    0.000;16434.20039
 549.20;16451.070;  -19.710;    0.000;16470.78031
 549.48;16523.480;  -15.170;    0.000;16538.65047
 549.76;16509.480;  -15.590;    0.000;16525.07047
 550.04;16582.971;  -23.170;    0.000;16606.14070
 550.31;16629.449;  -27.150;    0.000;16656.59922
 550.59;16665.461;  -12.080;    0.000;16677.54094
 550.87;16688.359;  -29.450;    0.000;16717.80938
 551.15;16703.270;  -18.290;    0.000;16721.55953
 551.43;16730.869;  -24.870;    0.000;16755.73914
 551.71;16780.840;  -24.400;    0.000;16805.23984
 551.99;16764.930;  -24.990;    0.000;16789.91969
 552.27;16864.199;  -24.030;    0.000;16888.22922
 552.54;16861.930;  -22.450;    0.000;16884.37969
 552.82;16901.609;  -10.980;    0.000;16912.58937
 553.10;16952.410;  -23.500;    0.000;16975.91016
 553.38;17008.340;  -13.410;    0.000;17021.74984
 553.66;16989.010;  -23.070;    0.000;17012.07977
 553.94;17037.900;  -13.110;    0.000;17051.01039
 554.22;17029.170;  -13.670;    0.000;17042.83992
 554.49;17077.711;  -16.040;    0.000;17093.75094
 554.77;17067.480;  -16.190;    0.000;17083.67047
 555.05;17084.660;  -15.740;    0.000;17100.40016
 555.33;17089.891;  -32.440;    0.000;17122.33062
 555.61;17098.439;  -25.560;    0.000;17123.99945
 555.89;17119.410;  -33.180;    0.000;17152.59016
 556.16;17188.471;  -25.590;    0.000;17214.06070
 556.44;17150.811;  -32.100;    0.000;17182.91055
 556.72;17219.770;  -29.140;    0.000;17248.90953
 557.00;17204.811;  -31.520;    0.000;17236.33055
 557.28;17254.350;  -17.510;    0.000;17271.85961
 557.56;17209.930;  -21.250;    0.000;17231.17969
 557.83;17243.711;  -25.100;    0.000;17268.81094
 558.11;17265.359;  -15.320;    0.000;17280.67937
 558.39;17264.020;  -15.190;    0.000;17279.20953
 558.67;17304.471;  -19.950;    0.000;17324.42070
 558.95;17262.471;  -29.320;    0.000;17291.79070
 559.23;17321.391;  -27.530;    0.000;17348.92063
 559.50;17335.039;  -21.290;    0.000;17356.32906
 559.78;17357.500;  -17.790;    0.000;17375.29000
 560.06;17308.680;  -22.880;    0.000;17331.55969
 560.34;17292.910;  -13.260;    0.000;17306.17016
 560.62;17346.609;  -24.200;    0.000;17370.80938
 560.89;17350.160;  -14.400;    0.000;17364.56016
 561.17;17370.680;  -13.580;    0.000;17384.25969
 561.45;17343.400;  -31.100;    0.000;17374.50039
 561.73;17331.529;  -25.680;    0.000;17357.20930
 562.00;17332.131;  -26.560;    0.000;17358.69086
 562.28;17315.070;  -20.620;    0.000;17335.69031
 562.56;17299.230;  -26.640;    0.000;17325.87047
 562.84;17349.730;  -11.530;    0.000;17361.26047
 563.12;17375.939;  -33.150;    0.000;17409.08945
 563.39;17286.930;  -30.760;    0.000;17317.68969
 563.67;17301.680;  -22.790;    0.000;17324.46969
 563.95;17286.590;  -23.690;    0.000;17310.27984
 564.23;17277.510;  -23.130;    0.000;17300.63976
 564.50;17312.301;  -16.770;    0.000;17329.07078
 564.78;17278.039;  -10.770;    0.000;17288.80906
 565.06;17293.881;  -24.010;    0.000;17317.89086
 565.34;17286.910;  -21.080;    0.000;17307.99016
 565.61;17268.840;  -15.850;    0.000;17284.68984
 565.89;17215.330;  -10.570;    0.000;17225.90008
 566.17;17142.760;  -33.940;    0.000;17176.69976
 566.45;17230.430;  -18.770;    0.000;17249.19969
 566.73;17175.381;  -28.520;    0.000;17203.90086
 567.00;17143.000;  -31.220;    0.000;17174.22000
 567.28;17153.480;  -26.710;    0.000;17180.19047
 567.56;17112.711;  -20.940;    0.000;17133.65094
 567.83;17092.641;  -22.790;    0.000;17115.43063
 568.11;17091.070;  -26.120;    0.000;17117.19031
 568.39;17091.199;  -30.490;    0.000;17121.68922
 568.67;17031.180;  -27.500;    0.000;17058.67969
 568.94;17003.971;  -23.260;    0.000;17027.23070
 569.22;16965.189;  -22.350;    0.000;16987.53945
 569.50;16965.090;  -31.970;    0.000;16997.05984
 569.78;16944.670;  -23.620;    0.000;16968.28992
 570.05;16911.480;  -30.470;    0.000;16941.95047
 570.33;16920.660;  -24.910;    0.000;16945.57016
 570.61;16875.330;  -15.430;    0.000;16890.76008
 570.88;16841.590;  -38.820;    0.000;16880.40984
 571.16;16818.680;  -23.130;    0.000;16841.80969
 571.44;16738.609;  -35.510;    0.000;16774.11937
 571.72;16737.430;  -20.230;    0.000;16757.65969
 571.99;16710.850;  -30.400;    0.000;16741.24961
 572.27;16657.400;  -20.910;    0.000;16678.31039
 572.55;16633.551;  -30.340;    0.000;16663.89078
 572.82;16577.400;  -20.980;    0.000;16598.38039
 573.10;16602.641;  -22.520;    0.000;16625.16063
 573.38;16535.020;  -33.590;    0.000;16568.60953
 573.65;16450.750;  -11.540;    0.000;16462.29000
 573.93;16406.311;  -23.340;    0.000;16429.65055
 574.21;16395.090;  -22.650;    0.000;16417.73984
 574.48;16364.620;  -27.240;    0.000;16391.86012
 574.76;16299.360;  -31.270;    0.000;16330.63035
 575.04;16269.910;  -15.830;    0.000;16285.74016
 575.32;16280.430;  -21.200;    0.000;16301.62969
 575.59;16159.960;  -16.300;    0.000;16176.25996
 575.87;16116.620;  -40.340;    0.000;16156.96012
 576.15;16117.260;  -10.810;    0.000;16128.06977
 576.42;16052.930;  -28.300;    0.000;16081.22969
 576.70;15980.070;  -33.860;    0.000;16013.93031
 576.98;15953.310;  -32.330;    0.000;15985.63957
 577.25;15889.790;  -28.350;    0.000;15918.14004
 577.53;15849.260;  -31.160;    0.000;15880.41977
 577.80;15777.630;  -29.180;    0.000;15806.80988
 578.08;15756.350;  -29.770;    0.000;15786.11961
 578.36;15709.760;  -21.590;    0.000;15731.34977
 578.63;15670.160;  -37.290;    0.000;15707.45016
 578.91;15629.780;  -26.150;    0.000;15655.93027
 579.19;15538.000;  -31.750;    0.000;15569.75000
 579.46;15547.200;  -24.900;    0.000;15572.10019
 579.74;15440.950;  -22.420;    0.000;15463.37020
 580.02;15386.020;  -29.350;    0.000;15415.36953
 580.29;15347.750;  -37.840;    0.000;15385.59000
 580.57;15301.200;  -30.530;    0.000;15331.73020
 580.84;15259.270;  -30.850;    0.000;15290.11953
 581.12;15177.270;  -27.750;    0.000;15205.01953
 581.40;15118.030;  -34.120;    0.000;15152.15027
 581.67;15057.750;  -30.300;    0.000;15088.05000
 581.95;14995.570;  -36.850;    0.000;15032.42031
 582.23;14946.620;  -28.420;    0.000;14975.04012
 582.50;14850.650;  -40.300;    0.000;14890.95039
 582.78;14774.220;  -28.770;    0.000;14802.98973
 583.05;14748.570;  -25.840;    0.000;14774.41031
 583.33;14679.870;  -21.520;    0.000;14701.39012
 583.61;14610.290;  -21.280;    0.000;14631.57004
 583.88;14530.150;  -18.760;    0.000;14548.91039
 584.16;14460.400;  -32.140;    0.000;14492.54039
 584.43;14388.650;  -29.000;    0.000;14417.65039
 584.71;14359.930;  -24.070;    0.000;14383.99969
 584.99;14314.180;  -21.770;    0.000;14335.94969
 585.26;14222.120;  -32.080;    0.000;14254.20012
 585.54;14144.090;  -36.460;    0.000;14180.54984
 585.81;14100.030;  -34.050;    0.000;14134.08027
 586.09;14040.990;  -15.310;    0.000;14056.30023
 586.37;13989.410;  -42.360;    0.000;14031.77016
 586.64;13891.200;  -24.820;    0.000;13916.02020
 586.92;13840.550;  -30.380;    0.000;13870.92980
 587.19;13759.650;  -24.020;    0.000;13783.67039
 587.47;13688.830;  -38.630;    0.000;13727.46008
 587.74;13643.230;  -24.440;    0.000;13667.67047
 588.02;13576.460;  -22.400;    0.000;13598.85996
 588.30;13519.520;  -31.970;    0.000;13551.48953
 588.57;13489.860;  -29.980;    0.000;13519.84035
 588.85;13394.620;  -32.590;    0.000;13427.21012
 589.12;13289.890;  -35.900;    0.000;13325.78965
 589.40;13247.190;  -22.810;    0.000;13270.00043
 589.67;13166.070;  -27.690;    0.000;13193.76031
 589.95;13150.470;  -11.930;    0.000;13162.39973
 590.22;13062.370;  -29.920;    0.000;13092.29012
 590.50;13041.470;  -19.810;    0.000;13061.27973
 590.77;12976.280;  -32.070;    0.000;13008.35027
 591.05;12911.710;  -28.680;    0.000;12940.38996
 591.33;12822.330;  -29.200;    0.000;12851.53008
 591.60;12716.210;  -34.000;    0.000;12750.20996
 591.88;12648.470;  -25.320;    0.000;12673.78973
 592.15;12593.980;  -30.460;    0.000;12624.44047
 592.43;12563.960;  -39.680;    0.000;12603.63996
 592.70;12441.920;  -23.960;    0.000;12465.87992
 592.98;12350.500;  -39.190;    0.000;12389.69000
 593.25;12305.350;  -10.770;    0.000;12316.11961
 593.53;12249.610;  -29.230;    0.000;12278.84035
 593.80;12152.330;  -30.750;    0.000;12183.08008
 594.08;12058.670;  -37.180;    0.000;12095.84992
 594.35;12004.060;  -31.070;    0.000;12035.12957
 594.63;11983.350;  -21.940;    0.000;12005.28961
 594.90;11883.910;  -34.240;    0.000;11918.15016
 595.18;11781.150;  -26.450;    0.000;11807.60039
 595.45;11740.980;  -30.900;    0.000;11771.88047
 595.73;11626.810;  -35.600;    0.000;11662.40957
 596.00;11591.490;  -29.900;    0.000;11621.39023
 596.28;11488.100;  -41.410;    0.000;11529.50961
 596.55;11439.430;  -36.570;    0.000;11475.99969
 596.83;11357.970;  -34.320;    0.000;11392.28973
 597.10;11295.250;  -17.350;    0.000;11312.60000
 597.38;11240.260;  -25.390;    0.000;11265.64977
 597.65;11107.360;  -23.040;    0.000;11130.40035
 597.93;11041.500;  -47.520;    0.000;11089.02000
 598.20;11023.280;  -29.950;    0.000;11053.23027
 598.48;10927.430;  -39.720;    0.000;10967.14969
 598.75;10848.080;  -38.990;    0.000;10887.07008
 599.03;10798.440;  -25.450;    0.000;10823.89043
 599.30;10715.440;  -33.700;    0.000;10749.14043
 599.58;10646.710;  -24.090;    0.000;10670.79996
 599.85;10572.640;  -20.370;    0.000;10593.00965
 600.12;10506.800;  -29.390;    0.000;10536.18980
 600.40;10424.280;  -39.550;    0.000;10463.83027
 600.67;10319.280;  -39.490;    0.000;10358.77028
 600.95;10277.130;  -24.510;    0.000;10301.63988
 601.22;10179.530;  -31.680;    0.000;10211.21027
 601.50;10113.920;  -26.410;    0.000;10140.32992
 601.77;10046.160;  -33.040;    0.000;10079.20016
 602.05;10025.750;  -12.840;    0.000;10038.59000
 602.32; 9947.420;  -26.150;    0.000;9973.56992
 602.59; 9873.310;  -37.960;    0.000;9911.26957
 602.87; 9795.820;  -36.580;    0.000;9832.40031
 603.14; 9752.100;  -44.730;    0.000;9796.82961
 603.42; 9685.330;  -26.580;    0.000;9711.91008
 603.69; 9628.540;  -37.870;    0.000;9666.41004
 603.97; 9571.970;  -43.790;    0.000;9615.75973
 604.24; 9492.790;  -40.170;    0.000;9532.96004
 604.51; 9402.890;  -22.580;    0.000;9425.46965
 604.79; 9365.870;  -25.880;    0.000;9391.75012
 605.06; 9305.480;  -33.420;    0.000;9338.90047
 605.34; 9271.460;  -29.770;    0.000;9301.22996
 605.61; 9167.170;  -40.440;    0.000;9207.60992
 605.89; 9112.090;  -27.190;    0.000;9139.27984
 606.16; 9045.480;  -39.370;    0.000;9084.85047
 606.43; 9033.360;  -15.550;    0.000;9048.91035
 606.71; 8926.840;  -48.100;    0.000;8974.93984
 606.98; 8893.340;  -35.410;    0.000;8928.74984
 607.26; 8813.010;  -35.790;    0.000;8848.79977
 607.53; 8763.570;  -36.110;    0.000;8799.68031
 607.80; 8717.610;  -44.650;    0.000;8762.26035
 608.08; 8686.610;  -39.850;    0.000;8726.46035
 608.35; 8600.180;  -41.460;    0.000;8641.63969
 608.62; 8563.620;  -33.970;    0.000;8597.59012
 608.90; 8544.010;  -39.640;    0.000;8583.64977
 609.17; 8492.610;  -32.290;    0.000;8524.90035
 609.45; 8395.320;  -43.540;    0.000;8438.86031
 609.72; 8354.990;  -25.940;    0.000;8380.93023
 609.99; 8273.690;  -54.580;    0.000;8328.27043
 610.27; 8252.370;  -33.980;    0.000;8286.35012
 610.54; 8182.010;  -53.950;    0.000;8235.95977
 610.81; 8148.030;  -40.300;    0.000;8188.32978
 611.09; 8123.170;  -31.150;    0.000;8154.31992
 611.36; 8042.040;  -35.360;    0.000;8077.40004
 611.64; 8004.580;  -44.100;    0.000;8048.68008
 611.91; 7971.720;  -32.700;    0.000;8004.42022
 612.18; 7901.040;  -34.140;    0.000;7935.18004
 612.46; 7856.160;  -36.560;    0.000;7892.72016
 612.73; 7781.130;  -39.030;    0.000;7820.15988
 613.00; 7753.770;  -38.110;    0.000;7791.88002
 613.28; 7676.630;  -32.120;    0.000;7708.74988
 613.55; 7593.020;  -45.300;    0.000;7638.32002
 613.82; 7533.130;  -51.080;    0.000;7584.20988
 614.10; 7511.350;  -41.190;    0.000;7552.54010
 614.37; 7420.150;  -41.870;    0.000;7462.01990
 614.64; 7355.460;  -36.410;    0.000;7391.86996
 614.92; 7298.920;  -39.630;    0.000;7338.54992
 615.19; 7193.520;  -29.580;    0.000;7223.10002
 615.46; 7083.500;  -41.030;    0.000;7124.53000
 615.74; 7029.190;  -36.750;    0.000;7065.93994
 616.01; 6894.180;  -53.870;    0.000;6948.05017
 616.28; 6792.660;  -41.570;    0.000;6834.23016
 616.56; 6658.840;  -47.850;    0.000;6706.68984
 616.83; 6584.230;  -23.950;    0.000;6608.17998
 617.10; 6495.900;  -34.050;    0.000;6529.94990
 617.37; 6513.480;  -25.940;    0.000;6539.41998
 617.65; 6600.630;  -41.240;    0.000;6641.86988
 617.92; 6609.240;  -29.900;    0.000;6639.14023
 618.19; 6593.280;  -46.220;    0.000;6639.49979
 618.47; 6524.310;  -38.070;    0.000;6562.38006
 618.74; 6497.870;  -50.090;    0.000;6547.96012
 619.01; 6515.860;  -38.340;    0.000;6554.19986
 619.28; 6451.430;  -43.640;    0.000;6495.07018
 619.56; 6458.580;  -38.060;    0.000;6496.64008
 619.83; 6398.320;  -39.710;    0.000;6438.02982
 620.10; 6376.050;  -31.220;    0.000;6407.26980
 620.38; 6310.090;  -52.170;    0.000;6362.25984
 620.65; 6284.160;  -46.120;    0.000;6330.28016
 620.92; 6228.950;  -42.600;    0.000;6271.55019
 621.19; 6281.780;  -43.000;    0.000;6324.77979
 621.47; 6273.260;  -40.820;    0.000;6314.07977
 621.74; 6267.380;  -41.630;    0.000;6309.00988
 622.01; 6316.180;  -43.850;    0.000;6360.03017
 622.28; 6291.850;  -32.550;    0.000;6324.40010
 622.56; 6295.350;  -42.800;    0.000;6338.15010
 622.83; 6240.600;  -37.130;    0.000;6277.73010
 623.10; 6236.580;  -48.260;    0.000;6284.84008
 623.38; 6208.930;  -35.400;    0.000;6244.33018
 623.65; 6202.580;  -17.330;    0.000;6219.91008
 623.92; 6164.630;  -32.240;    0.000;6196.86988
 624.19; 6130.720;  -53.540;    0.000;6184.26022
 624.46; 6080.790;  -30.480;    0.000;6111.27004
 624.74; 6098.290;  -39.050;    0.000;6137.34004
 625.01; 6049.730;  -26.210;    0.000;6075.93998
 625.28; 6025.460;  -44.030;    0.000;6069.48996
 625.55; 5993.160;  -44.700;    0.000;6037.86016
 625.83; 5955.840;  -43.650;    0.000;5999.48985
 626.10; 5954.590;  -35.370;    0.000;5989.95984
 626.37; 5937.890;  -51.170;    0.000;5989.06013
 626.64; 5878.590;  -46.220;    0.000;5924.80984
 626.92; 5871.060;  -40.280;    0.000;5911.34006
 627.19; 5867.360;  -37.500;    0.000;5904.85986
 627.46; 5834.240;  -39.980;    0.000;5874.22023
 627.73; 5828.060;  -33.180;    0.000;5861.24006
 628.00; 5792.680;  -39.210;    0.000;5831.89017
 628.28; 5764.620;  -35.220;    0.000;5799.84012
 628.55; 5744.390;  -46.210;    0.000;5790.60014
 628.82; 5723.970;  -27.350;    0.000;5751.32022
 629.09; 5682.390;  -47.190;    0.000;5729.58014
 629.36; 5674.170;  -42.190;    0.000;5716.35992
 629.64; 5656.440;  -41.460;    0.000;5697.89994
 629.91; 5598.860;  -32.990;    0.000;5631.84986
 630.18; 5571.690;  -50.880;    0.000;5622.56994
 630.45; 5559.860;  -51.820;    0.000;5611.67986
 630.72; 5548.020;  -62.210;    0.000;5610.23002
 631.00; 5532.740;  -42.860;    0.000;5575.60023
 631.27; 5500.330;  -42.790;    0.000;5543.12008
 631.54; 5481.700;  -43.780;    0.000;5525.48019
 631.81; 5486.370;  -35.020;    0.000;5521.39012
 632.08; 5439.480;  -40.130;    0.000;5479.60998
 632.35; 5389.410;  -50.910;    0.000;5440.32016
 632.63; 5391.120;  -43.240;    0.000;5434.36012
 632.90; 5372.350;  -44.370;    0.000;5416.72010
 633.17; 5350.160;  -40.840;    0.000;5391.00016
 633.44; 5335.010;  -52.000;    0.000;5387.00977
 633.71; 5348.030;  -32.170;    0.000;5380.19978
 633.98; 5316.300;  -30.510;    0.000;5346.80980
 634.25; 5305.330;  -34.090;    0.000;5339.42008
 634.53; 5287.690;  -34.830;    0.000;5322.51994
 634.80; 5305.160;  -39.750;    0.000;5344.91016
 635.07; 5243.790;  -49.230;    0.000;5293.02004
 635.34; 5296.730;  -23.990;    0.000;5320.71998
 635.61; 5233.770;  -50.510;    0.000;5284.28002
 635.88; 5261.880;  -44.250;    0.000;5306.12988
 636.15; 5255.440;  -43.150;    0.000;5298.58994
 636.43; 5266.090;  -38.010;    0.000;5304.09984
 636.70; 5295.640;  -43.060;    0.000;5338.70014
 636.97; 5236.980;  -38.410;    0.000;5275.38998
 637.24; 5199.650;  -50.350;    0.000;5249.99990
 637.51; 5152.010;  -31.980;    0.000;5183.98977
 637.78; 5018.630;  -46.720;    0.000;5065.34988
 638.05; 5006.560;  -39.310;    0.000;5045.87006
 638.32; 5012.190;  -31.150;    0.000;5043.33994
 638.60; 4957.160;  -44.910;    0.000;5002.07016
 638.87; 4923.610;  -50.240;    0.000;4973.84986
 639.14; 4899.040;  -43.540;    0.000;4942.58004
 639.41; 4864.810;  -32.120;    0.000;4896.93006
 639.68; 4845.070;  -45.810;    0.000;4890.87983
 639.95; 4811.480;  -51.890;    0.000;4863.36998
 640.22; 4787.250;  -48.220;    0.000;4835.47000
 640.49; 4746.540;  -45.740;    0.000;4792.28004
 640.76; 4723.790;  -35.730;    0.000;4759.52004
 641.03; 4636.460;  -50.560;    0.000;4687.01996
 641.30; 4620.550;  -42.310;    0.000;4662.85981
 641.58; 4528.330;  -49.140;    0.000;4577.47008
 641.85; 4528.060;  -43.210;    0.000;4571.27006
 642.12; 4458.870;  -51.320;    0.000;4510.19012
 642.39; 4413.970;  -48.990;    0.000;4462.96022
 642.66; 4383.980;  -45.590;    0.000;4429.56998
 642.93; 4396.690;  -29.310;    0.000;4425.99994
 643.20; 4320.980;  -45.820;    0.000;4366.79998
 643.47; 4302.660;  -42.670;    0.000;4345.33015
 643.74; 4288.150;  -51.730;    0.000;4339.87990
 644.01; 4250.260;  -42.950;    0.000;4293.20977
 644.28; 4224.120;  -60.830;    0.000;4284.95012
 644.55; 4189.720;  -47.560;    0.000;4237.28022
 644.82; 4211.450;  -32.270;    0.000;4243.72020
 645.09; 4154.500;  -35.500;    0.000;4190.00000
 645.36; 4123.670;  -50.290;    0.000;4173.95992
 645.63; 4106.330;  -43.920;    0.000;4150.25008
 645.91; 4082.000;  -46.930;    0.000;4128.93000
 646.18; 4061.930;  -38.010;    0.000;4099.93993
 646.45; 4027.030;  -41.290;    0.000;4068.32003
 646.72; 3985.200;  -48.770;    0.000;4033.96995
 646.99; 3960.270;  -41.040;    0.000;4001.31002
 647.26; 3951.700;  -41.240;    0.000;3992.93995
 647.53; 3922.320;  -54.690;    0.000;3977.01007
 647.80; 3894.210;  -27.780;    0.000;3921.98996
 648.07; 3868.260;  -58.730;    0.000;3926.99001
 648.34; 3871.770;  -34.280;    0.000;3906.05002
 648.61; 3815.600;  -47.500;    0.000;3863.10010
 648.88; 3809.970;  -44.020;    0.000;3853.98997
 649.15; 3792.130;  -52.630;    0.000;3844.75988
 649.42; 3776.110;  -48.650;    0.000;3824.76011
 649.69; 3743.140;  -46.880;    0.000;3790.01989
 649.96; 3718.330;  -41.340;    0.000;3759.67008
 650.23; 3710.100;  -59.960;    0.000;3770.06010
 650.50; 3686.480;  -53.140;    0.000;3739.61998
 650.77; 3636.730;  -61.220;    0.000;3697.94998
 651.04; 3635.210;  -42.700;    0.000;3677.90996
 651.31; 3596.870;  -58.050;    0.000;3654.92012
 651.58; 3595.390;  -46.320;    0.000;3641.70989
 651.85; 3564.200;  -57.610;    0.000;3621.80995
 652.12; 3561.670;  -30.010;    0.000;3591.67992
 652.39; 3521.280;  -47.470;    0.000;3568.75003
 652.66; 3529.530;  -50.490;    0.000;3580.02003
 652.93; 3493.560;  -50.350;    0.000;3543.91006
 653.20; 3455.980;  -40.500;    0.000;3496.47998
 653.47; 3426.600;  -56.060;    0.000;3482.66010
 653.74; 3437.550;  -42.910;    0.000;3480.46005
 654.01; 3398.880;  -45.890;    0.000;3444.76988
 654.28; 3381.160;  -39.800;    0.000;3420.95991
 654.55; 3343.650;  -56.340;    0.000;3399.98990
 654.81; 3335.240;  -45.420;    0.000;3380.65999
 655.08; 3290.080;  -44.350;    0.000;3334.43008
 655.35; 3266.420;  -44.320;    0.000;3310.73992
 655.62; 3272.090;  -45.660;    0.000;3317.75009
 655.89; 3247.150;  -50.060;    0.000;3297.20990
 656.16; 3226.750;  -51.110;    0.000;3277.86000
 656.43; 3212.070;  -52.210;    0.000;3264.28007
 656.70; 3166.220;  -57.420;    0.000;3223.63997
 656.97; 3175.100;  -49.610;    0.000;3224.71010
 657.24; 3134.330;  -51.930;    0.000;3186.26008
 657.51; 3112.230;  -43.090;    0.000;3155.31998
 657.78; 3109.530;  -43.490;    0.000;3153.02003
 658.05; 3072.530;  -42.030;    0.000;3114.56003
 658.32; 3050.050;  -53.310;    0.000;3103.36005
 658.59; 3026.960;  -44.810;    0.000;3071.76996
 658.86; 3012.490;  -50.680;    0.000;3063.16999
 659.12; 2998.450;  -47.800;    0.000;3046.24995
 659.39; 2969.670;  -54.290;    0.000;3023.95992
 659.66; 2974.700;  -36.090;    0.000;3010.78995
 659.93; 2945.280;  -42.230;    0.000;2987.51003
 660.20; 2928.290;  -37.790;    0.000;2966.08004
 660.47; 2863.380;  -53.470;    0.000;2916.84988
 660.74; 2851.890;  -52.820;    0.000;2904.70989
 661.01; 2862.140;  -43.790;    0.000;2905.92989
 661.28; 2840.560;  -40.930;    0.000;2881.49006
 661.55; 2849.770;  -13.100;    0.000;2862.87002
 661.81; 2806.620;  -55.540;    0.000;2862.16012
 662.08; 2763.050;  -46.830;    0.000;2809.88005
 662.35; 2766.670;  -50.920;    0.000;2817.58992
 662.62; 2735.050;  -52.300;    0.000;2787.35005
 662.89; 2720.600;  -51.970;    0.000;2772.57010
 663.16; 2699.880;  -49.180;    0.000;2749.05988
 663.43; 2669.780;  -46.940;    0.000;2716.72003
 663.70; 2654.970;  -59.600;    0.000;2714.56997
 663.96; 2670.210;  -43.330;    0.000;2713.53996
 664.23; 2617.060;  -64.220;    0.000;2681.28006
 664.50; 2599.140;  -48.710;    0.000;2647.84989
 664.77; 2577.640;  -51.030;    0.000;2628.66989
 665.04; 2565.970;  -48.780;    0.000;2614.74997
 665.31; 2528.910;  -54.760;    0.000;2583.66991
 665.58; 2528.980;  -49.660;    0.000;2578.63998
 665.84; 2519.110;  -55.670;    0.000;2574.78011
 666.11; 2487.270;  -49.530;    0.000;2536.80002
 666.38; 2485.320;  -56.960;    0.000;2542.28007
 666.65; 2453.320;  -48.440;    0.000;2501.76007
 666.92; 2442.490;  -61.380;    0.000;2503.86999
 667.19; 2432.030;  -50.390;    0.000;2482.42003
 667.46; 2410.620;  -49.900;    0.000;2460.52012
 667.72; 2384.390;  -43.000;    0.000;2427.38989
 667.99; 2383.470;  -50.920;    0.000;2434.38997
 668.26; 2370.010;  -29.430;    0.000;2399.44001
 668.53; 2324.250;  -61.920;    0.000;2386.17000
 668.80; 2331.480;  -33.970;    0.000;2365.44998
 669.06; 2299.630;  -51.800;    0.000;2351.42988
 669.33; 2281.280;  -43.590;    0.000;2324.87003
 669.60; 2263.230;  -58.870;    0.000;2322.09998
 669.87; 2248.700;  -46.440;    0.000;2295.13995
 670.14; 2239.640;  -50.360;    0.000;2289.99989
 670.41; 2244.100;  -41.980;    0.000;2286.08010
 670.67; 2201.750;  -42.520;    0.000;2244.27000
 670.94; 2158.940;  -54.670;    0.000;2213.60994
 671.21; 2183.870;  -45.490;    0.000;2229.36012
 671.48; 2136.930;  -49.520;    0.000;2186.44993
 671.75; 2123.240;  -59.790;    0.000;2183.02999
 672.01; 2131.650;  -44.080;    0.000;2175.72990
 672.28; 2117.080;  -52.640;    0.000;2169.72008
 672.55; 2098.260;  -37.120;    0.000;2135.38001
 672.82; 2073.640;  -54.630;    0.000;2128.26989
 673.08; 2064.640;  -49.040;    0.000;2113.67989
 673.35; 2040.900;  -55.440;    0.000;2096.34002
 673.62; 2011.390;  -46.870;    0.000;2058.26001
 673.89; 1988.460;  -55.170;    0.000;2043.62996
 674.16; 1990.420;  -57.760;    0.000;2048.18004
 674.42; 1990.540;  -47.940;    0.000;2038.48004
 674.69; 1956.260;  -39.700;    0.000;1995.96001
 674.96; 1924.480;  -50.250;    0.000;1974.72998
 675.23; 1932.380;  -61.580;    0.000;1993.96001
 675.49; 1903.910;  -58.140;    0.000;1962.05003
 675.76; 1881.180;  -47.890;    0.000;1929.07005
 676.03; 1906.700;  -42.090;    0.000;1948.78995
 676.30; 1881.000;  -51.680;    0.000;1932.68000
 676.56; 1844.090;  -56.460;    0.000;1900.54996
 676.83; 1852.170;  -43.720;    0.000;1895.89005
 677.10; 1818.390;  -53.570;    0.000;1871.96001
 677.37; 1810.570;  -48.110;    0.000;1858.67995
 677.63; 1784.640;  -53.920;    0.000;1838.56001
 677.90; 1785.330;  -50.800;    0.000;1836.12996
 678.17; 1759.510;  -51.820;    0.000;1811.33001
 678.44; 1770.710;  -46.980;    0.000;1817.68996
 678.70; 1728.830;  -63.530;    0.000;1792.35995
 678.97; 1722.130;  -55.410;    0.000;1777.54000
 679.24; 1714.440;  -54.480;    0.000;1768.91994
 679.50; 1693.820;  -62.210;    0.000;1756.02995
 679.77; 1688.100;  -50.610;    0.000;1738.70998
 680.04; 1673.830;  -46.910;    0.000;1720.73996
 680.31; 1667.210;  -56.210;    0.000;1723.41996
 680.57; 1652.150;  -54.280;    0.000;1706.43002
 680.84; 1612.540;  -61.530;    0.000;1674.07004
 681.11; 1617.830;  -44.650;    0.000;1662.47996
 681.37; 1605.850;  -59.060;    0.000;1664.90998
 681.64; 1617.830;  -43.030;    0.000;1660.85995
 681.91; 1590.260;  -58.290;    0.000;1648.55001
 682.17; 1578.820;  -37.730;    0.000;1616.54995
 682.44; 1556.030;  -56.890;    0.000;1612.92003
 682.71; 1535.000;  -49.600;    0.000;1584.60000
 682.98; 1522.810;  -57.550;    0.000;1580.36006
 683.24; 1506.070;  -57.200;    0.000;1563.26995
 683.51; 1493.270;  -61.060;    0.000;1554.33002
 683.78; 1509.570;  -56.140;    0.000;1565.70995
 684.04; 1491.240;  -56.030;    0.000;1547.26999
 684.31; 1469.840;  -65.410;    0.000;1535.24997
 684.58; 1440.380;  -60.330;    0.000;1500.71001
 684.84; 1458.410;  -45.720;    0.000;1504.13004
 685.11; 1425.130;  -61.320;    0.000;1486.45000
 685.38; 1438.560;  -54.090;    0.000;1492.65006
 685.64; 1411.770;  -55.840;    0.000;1467.61002
 685.91; 1400.900;  -48.800;    0.000;1449.70002
 686.17; 1382.330;  -52.500;    0.000;1434.82996
 686.44; 1393.940;  -47.040;    0.000;1440.97994
 686.71; 1362.250;  -69.340;    0.000;1431.59000
 686.97; 1357.710;  -61.270;    0.000;1418.97996
 687.24; 1341.780;  -55.300;    0.000;1397.08003
 687.51; 1344.920;  -55.730;    0.000;1400.65004
 687.77; 1327.670;  -55.320;    0.000;1382.99004
 688.04; 1309.180;  -53.560;    0.000;1362.74006
 688.31; 1290.780;  -60.360;    0.000;1351.14003
 688.57; 1294.010;  -42.800;    0.000;1336.81001
 688.84; 1287.430;  -54.400;    0.000;1341.83006
 689.10; 1282.350;  -60.080;    0.000;1342.42998
 689.37; 1270.170;  -53.200;    0.000;1323.37004
 689.64; 1243.930;  -62.880;    0.000;1306.81005
 689.90; 1238.690;  -66.970;    0.000;1305.65994
 690.17; 1228.900;  -61.960;    0.000;1290.86002
 690.44; 1197.430;  -71.470;    0.000;1268.90005
 690.70; 1204.640;  -48.020;    0.000;1252.66002
 690.97; 1178.310;  -67.550;    0.000;1245.86006
 691.23; 1182.830;  -53.030;    0.000;1235.85995
 691.50; 1171.440;  -53.280;    0.000;1224.71994
 691.77; 1161.240;  -59.250;    0.000;1220.48999
 692.03; 1142.390;  -59.590;    0.000;1201.98001
 692.30; 1133.360;  -52.970;    0.000;1186.32999
 692.56; 1122.810;  -61.140;    0.000;1183.95006
 692.83; 1116.910;  -49.500;    0.000;1166.41003
 693.10; 1115.580;  -53.280;    0.000;1168.85995
 693.36; 1105.340;  -42.000;    0.000;1147.33997
 693.63; 1068.340;  -64.510;    0.000;1132.84997
 693.89; 1079.650;  -55.350;    0.000;1135.00002
 694.16; 1068.400;  -50.790;    0.000;1119.19003
 694.42; 1048.110;  -51.270;    0.000;1099.37999
 694.69; 1047.270;  -40.380;    0.000;1087.65002
 694.96; 1056.140;  -33.890;    0.000;1090.03001
 695.22; 1006.480;  -55.260;    0.000;1061.73998
 695.49; 1022.570;  -31.710;    0.000;1054.28001
 695.75;  990.260;  -66.650;    0.000;1056.91001
 696.02; 1001.920;  -49.310;    0.000;1051.22998
 696.28;  976.180;  -46.910;    0.000;1023.08999
 696.55;  969.640;  -54.660;    0.000;1024.30001
 696.81;  951.170;  -62.250;    0.000;1013.41998
 697.08;  941.050;  -54.150;    0.000;995.19999
 697.34;  930.880;  -57.540;    0.000;988.42001
 697.61;  914.060;  -56.810;    0.000;970.87000
 697.88;  903.180;  -62.100;    0.000;965.27999
 698.14;  899.250;  -58.940;    0.000;958.19000
 698.41;  894.510;  -56.650;    0.000;951.16001
 698.67;  881.490;  -52.920;    0.000;934.40999
 698.94;  886.540;  -58.190;    0.000;944.72998
 699.20;  869.960;  -47.850;    0.000;917.81002
 699.47;  842.810;  -68.830;    0.000;911.64000
 699.73;  852.460;  -58.380;    0.000;910.84002
 700.00;  829.060;  -64.630;    0.000;893.68999
 700.26;  819.900;  -59.530;    0.000;879.43002
 700.53;  822.680;  -54.230;    0.000;876.90999
 700.79;  799.690;  -54.050;    0.000;853.74000
 701.06;  776.330;  -64.410;    0.000;840.74002
 701.32;  781.810;  -47.200;    0.000;829.01000
 701.59;  761.540;  -59.220;    0.000;820.75998
 701.85;  767.450;  -57.540;    0.000;824.99001
 702.12;  731.610;  -64.900;    0.000;796.50999
 702.38;  739.850;  -52.820;    0.000;792.66998
 702.65;  711.590;  -57.340;    0.000;768.93003
 702.91;  729.500;  -41.130;    0.000;770.63000
 703.18;  700.740;  -57.340;    0.000;758.07999
 703.44;  703.000;  -65.650;    0.000;768.65000
 703.71;  679.490;  -50.250;    0.000;729.73999
 703.97;  668.140;  -60.810;    0.000;728.95002
 704.24;  656.850;  -48.680;    0.000;705.52998
 704.50;  650.360;  -62.670;    0.000;713.02998
 704.76;  635.390;  -53.590;    0.000;688.98001
 705.03;  634.420;  -53.270;    0.000;687.68998
 705.29;  613.900;  -68.330;    0.000;682.23003
 705.56;  624.770;  -47.460;    0.000;672.23002
 705.82;  583.780;  -62.540;    0.000;646.32003
 706.09;  614.340;  -35.470;    0.000;649.81003
 706.35;  571.540;  -65.830;    0.000;637.36998
 706.62;  577.540;  -43.730;    0.000;621.26998
 706.88;  554.010;  -65.400;    0.000;619.41001
 707.15;  532.820;  -63.540;    0.000;596.36001
 707.41;  520.150;  -69.930;    0.000;590.08002
 707.67;  529.130;  -58.660;    0.000;587.79000
 707.94;  528.340;  -47.320;    0.000;575.66003
 708.20;  501.820;  -61.750;    0.000;563.57001
 708.47;  506.520;  -56.200;    0.000;562.71999
 708.73;  497.020;  -55.700;    0.000;552.71999
 709.00;  493.610;  -61.320;    0.000;554.92999
 709.26;  488.060;  -47.280;    0.000;535.34000
 709.52;  482.950;  -59.520;    0.000;542.47001
 709.79;  472.750;  -47.280;    0.000;520.03000
 710.05;  448.650;  -65.410;    0.000;514.06000
 710.32;  455.280;  -49.210;    0.000;504.49000
 710.58;  423.690;  -64.440;    0.000;488.13000
 710.84;  432.500;  -52.760;    0.000;485.26000
 711.11;  438.180;  -50.760;    0.000;488.93999
 711.37;  427.530;  -48.120;    0.000;475.65000
 711.64;  405.200;  -59.290;    0.000;464.49001
 711.90;  425.290;  -47.730;    0.000;473.02001
 712.16;  400.750;  -57.190;    0.000;457.94000
 712.43;  398.470;  -47.120;    0.000;445.59000
 712.69;  385.270;  -59.770;    0.000;445.03999
 712.96;  382.170;  -61.520;    0.000;443.69001
 713.22;  367.430;  -63.180;    0.000;430.60999
 713.48;  374.090;  -63.970;    0.000;438.06000
 713.75;  370.160;  -45.320;    0.000;415.48000
 714.01;  366.520;  -56.290;    0.000;422.80999
 714.27;  358.490;  -61.760;    0.000;420.24999
 714.54;  365.530;  -48.990;    0.000;414.52000
 714.80;  361.930;  -44.990;    0.000;406.91999
 715.06;  354.490;  -48.390;    0.000;402.87999
 715.33;  350.890;  -64.460;    0.000;415.35001
 715.59;  332.850;  -65.090;    0.000;397.94000
 715.86;  317.870;  -62.730;    0.000;380.59999
 716.12;  326.260;  -44.380;    0.000;370.64001
 716.38;  322.040;  -53.380;    0.000;375.42001
 716.65;  324.920;  -62.740;    0.000;387.66002
 716.91;  319.640;  -65.510;    0.000;385.15002
 717.17;  328.490;  -53.390;    0.000;381.87999
 717.44;  312.440;  -50.170;    0.000;362.61000
 717.70;  313.160;  -58.520;    0.000;371.68000
 717.96;  317.900;  -59.390;    0.000;377.28999
 718.23;  320.620;  -47.140;    0.000;367.75999
 718.49;  308.220;  -63.040;    0.000;371.26000
 718.75;  305.190;  -56.440;    0.000;361.63000
 719.02;  298.260;  -65.540;    0.000;363.80001
 719.28;  303.410;  -51.330;    0.000;354.74001
 719.54;  295.090;  -66.400;    0.000;361.49000
 719.80;  298.660;  -60.320;    0.000;358.98000
 720.07;  291.260;  -63.050;    0.000;354.31001
 720.33;  295.940;  -49.840;    0.000;345.78000
 720.59;  282.530;  -54.840;    0.000;337.37000
 720.86;  290.190;  -73.400;    0.000;363.59000
 721.12;  278.620;  -54.650;    0.000;333.27000
 721.38;  293.130;  -55.690;    0.000;348.82000
 721.65;  281.880;  -54.520;    0.000;336.40001
 721.91;  292.720;  -52.450;    0.000;345.17000
 722.17;  270.550;  -76.730;    0.000;347.27999
 722.43;  285.480;  -49.480;    0.000;334.96001
 722.70;  270.300;  -65.770;    0.000;336.06998
 722.96;  281.900;  -53.300;    0.000;335.19999
 723.22;  273.680;  -73.430;    0.000;347.10999
 723.48;  276.010;  -56.180;    0.000;332.19001
 723.75;  262.130;  -67.640;    0.000;329.77000
 724.01;  274.610;  -55.620;    0.000;330.22998
 724.27;  260.180;  -67.820;    0.000;327.99999
 724.54;  286.820;  -47.620;    0.000;334.44001
 724.80;  264.200;  -66.900;    0.000;331.10001
 725.06;  266.240;  -58.380;    0.000;324.61999
 725.32;  271.900;  -52.140;    0.000;324.03999
 725.59;  273.430;  -63.950;    0.000;337.37999
 725.85;  257.370;  -72.120;    0.000;329.49000
 726.11;  252.840;  -55.390;    0.000;308.23000
 726.37;  255.250;  -64.820;    0.000;320.07000
 726.64;  282.560;  -37.500;    0.000;320.06000
 726.90;  270.720;  -56.310;    0.000;327.03000
 727.16;  281.510;  -54.440;    0.000;335.95001
 727.42;  270.170;  -60.840;    0.000;331.01001
 727.68;  262.510;  -53.090;    0.000;315.60001
 727.95;  251.760;  -76.660;    0.000;328.42000
 728.21;  273.350;  -49.790;    0.000;323.14001
 728.47;  263.220;  -58.260;    0.000;321.48000
 728.73;  272.760;  -45.620;    0.000;318.38001
 729.00;  259.160;  -57.750;    0.000;316.91000
 729.26;  266.600;  -46.240;    0.000;312.84001
 729.52;  234.330;  -69.960;    0.000;304.29000
 729.78;  262.320;  -58.640;    0.000;320.96001
 730.04;  257.970;  -58.120;    0.000;316.09000
 730.31;  257.040;  -64.750;    0.000;321.79001
 730.57;  239.530;  -66.880;    0.000;306.41000
 730.83;  253.730;  -59.830;    0.000;313.56000
 731.09;  256.200;  -55.260;    0.000;311.46001
 731.35;  249.500;  -58.140;    0.000;307.64000
 731.62;  232.730;  -73.940;    0.000;306.67000
 731.88;  240.730;  -62.720;    0.000;303.45000
 732.14;  238.620;  -57.910;    0.000;296.52999
 732.40;  240.180;  -69.570;    0.000;309.74999
 732.66;  236.820;  -59.720;    0.000;296.54001
 732.92;  229.110;  -69.610;    0.000;298.72000
 733.19;  235.910;  -64.460;    0.000;300.37000
 733.45;  234.460;  -53.510;    0.000;287.97001
 733.71;  225.970;  -62.160;    0.000;288.13000
 733.97;  268.070;  -25.260;    0.000;293.33001
 734.23;  222.810;  -66.750;    0.000;289.56000
 734.49;  229.250;  -64.230;    0.000;293.48000
 734.76;  218.890;  -58.640;    0.000;277.53000
 735.02;  233.670;  -59.310;    0.000;292.98000
 735.28;  225.850;  -55.300;    0.000;281.15001
 735.54;  226.190;  -60.740;    0.000;286.93000
 735.80;  212.310;  -72.340;    0.000;284.64999
 736.06;  222.120;  -54.220;    0.000;276.34000
 736.32;  214.470;  -66.000;    0.000;280.47000
 736.59;  218.850;  -71.880;    0.000;290.73000
 736.85;  223.400;  -57.030;    0.000;280.42999
 737.11;  208.920;  -64.070;    0.000;272.99000
 737.37;  207.260;  -76.050;    0.000;283.31000
 737.63;  210.400;  -66.390;    0.000;276.78999
 737.89;  213.100;  -57.810;    0.000;270.91001
 738.15;  209.200;  -49.020;    0.000;258.22000
 738.41;  195.550;  -71.740;    0.000;267.29000
 738.67;  203.860;  -53.450;    0.000;257.31000
 738.94;  184.510;  -73.730;    0.000;258.24000
 739.20;  192.430;  -71.160;    0.000;263.59000
 739.46;  204.060;  -57.050;    0.000;261.11000
 739.72;  186.190;  -73.350;    0.000;259.54000
 739.98;  184.770;  -62.480;    0.000;247.25000
 740.24;  184.630;  -56.860;    0.000;241.49001
 740.50;  182.500;  -57.360;    0.000;239.86000
 740.76;  175.570;  -68.690;    0.000;244.26001
 741.02;  176.940;  -70.870;    0.000;247.81001
 741.28;  180.230;  -58.510;    0.000;238.73999
 741.54;  181.700;  -53.990;    0.000;235.69000
 741.81;  184.580;  -55.250;    0.000;239.83000
 742.07;  165.820;  -66.200;    0.000;232.02000
 742.33;  178.030;  -48.910;    0.000;226.94000
 742.59;  176.700;  -60.130;    0.000;236.83000
 742.85;  166.840;  -55.100;    0.000;221.93999
 743.11;  152.970;  -76.530;    0.000;229.50000
 743.37;  164.190;  -61.350;    0.000;225.54000
 743.63;  144.480;  -75.800;    0.000;220.28000
 743.89;  168.510;  -59.440;    0.000;227.94999
 744.15;  157.850;  -62.650;    0.000;220.50001
 744.41;  159.770;  -58.030;    0.000;217.80000
 744.67;  142.450;  -64.390;    0.000;206.84000
 744.93;  155.510;  -60.990;    0.000;216.50000
 745.19;  143.620;  -66.920;    0.000;210.53999
 745.45;  150.210;  -67.110;    0.000;217.32001
 745.71;  140.520;  -63.100;    0.000;203.62000
 745.97;  154.600;  -58.360;    0.000;212.96001
 746.23;  132.050;  -65.530;    0.000;197.58000
 746.49;  130.490;  -58.960;    0.000;189.45000
 746.75;  135.130;  -62.950;    0.000;198.08001
 747.02;  129.400;  -69.200;    0.000;198.59999
 747.28;  119.590;  -75.780;    0.000;195.37000
 747.54;  131.290;  -59.290;    0.000;190.57999
 747.80;  116.390;  -66.430;    0.000;182.82000
 748.06;  123.380;  -64.430;    0.000;187.81000
 748.32;  118.300;  -68.280;    0.000;186.58000
 748.58;  124.810;  -56.410;    0.000;181.22000
 748.84;  121.820;  -60.900;    0.000;182.72000
 749.10;  197.360;   14.290;    0.000;183.07000
 749.36;  112.800;  -58.640;    0.000;171.44000
 749.62;  113.510;  -53.300;    0.000;166.81000
 749.88;  112.920;  -63.380;    0.000;176.30000
 750.14;  102.140;  -62.320;    0.000;164.46000
 750.40;  110.600;  -62.710;    0.000;173.31000
 750.66;  115.210;  -53.170;    0.000;168.38000
 750.91;   96.290;  -57.390;    0.000;153.68000
 751.17;  102.830;  -60.510;    0.000;163.34000
 751.43;   93.530;  -67.510;    0.000;161.04000
 751.69;  109.690;  -53.130;    0.000;162.82000
 751.95;   98.440;  -58.380;    0.000;156.82000
 752.21;  101.500;  -54.270;    0.000;155.77000
 752.47;   98.690;  -66.590;    0.000;165.28000
 752.73;   93.500;  -59.420;    0.000;152.92000
 752.99;   81.720;  -67.420;    0.000;149.14000
 753.25;   87.490;  -61.010;    0.000;148.50000
 753.51;   75.470;  -64.170;    0.000;139.64000
 753.77;   77.460;  -58.420;    0.000;135.88000
 754.03;   80.410;  -63.170;    0.000;143.58000
 754.29;   72.870;  -60.390;    0.000;133.26000
 754.55;   82.700;  -59.530;    0.000;142.23000
 754.81;   82.110;  -64.020;    0.000;146.13000
 755.07;   72.290;  -65.730;    0.000;138.02000
 755.33;   77.800;  -53.650;    0.000;131.45000
 755.59;   64.800;  -65.350;    0.000;130.15000
 755.85;   60.390;  -62.930;    0.000;123.32000
 756.10;   76.130;  -62.610;    0.000;138.74000
 756.36;   65.140;  -63.220;    0.000;128.36000
 756.62;   56.250;  -76.090;    0.000;132.34000
 756.88;   67.320;  -63.210;    0.000;130.53000
 757.14;   59.000;  -54.900;    0.000;113.90000
 757.40;   73.610;  -58.450;    0.000;132.06000
 757.66;   61.890;  -52.890;    0.000;114.78000
 757.92;   68.460;  -53.070;    0.000;121.53000
 758.18;   42.660;  -70.780;    0.000;113.44000
 758.44;   59.930;  -61.350;    0.000;121.28000
 758.70;   47.420;  -62.310;    0.000;109.73000
 758.95;   61.390;  -55.510;    0.000;116.90000
 759.21;   49.910;  -71.730;    0.000;121.64000
 759.47;   57.870;  -55.090;    0.000;112.96000
 759.73;   43.800;  -66.680;    0.000;110.48000
 759.99;   44.050;  -65.250;    0.000;109.30000
 760.25;   40.100;  -76.330;    0.000;116.43000
 760.51;   44.150;  -66.640;    0.000;110.79000
 760.77;   52.000;  -62.640;    0.000;114.64000
 761.02;   50.450;  -55.290;    0.000;105.74000
 761.28;   36.870;  -72.630;    0.000;109.50000
 761.54;   46.970;  -59.090;    0.000;106.06000
 761.80;   37.770;  -67.640;    0.000;105.41000
 762.06;   45.810;  -50.180;    0.000;95.99000
 762.32;   32.380;  -79.560;    0.000;111.94000
 762.58;   35.200;  -63.330;    0.000;98.53000
 762.83;   39.320;  -60.260;    0.000;99.58000
 763.09;   36.430;  -60.390;    0.000;96.82000
 763.35;   35.490;  -70.560;    0.000;106.05000
 763.61;   44.810;  -54.640;    0.000;99.45000
 763.87;   47.230;  -50.690;    0.000;97.92000
 764.13;   36.750;  -61.450;    0.000;98.20000
 764.38;   27.260;  -65.440;    0.000;92.70000
 764.64;   27.400;  -69.840;    0.000;97.24000
 764.90;   32.760;  -70.080;    0.000;102.84000
 765.16;   34.140;  -56.430;    0.000;90.57000
 765.42;   23.970;  -72.650;    0.000;96.62000
 765.68;   28.850;  -70.250;    0.000;99.10000
 765.93;   16.170;  -73.680;    0.000;89.85000
 766.19;   37.380;  -50.430;    0.000;87.81000
 766.45;    8.110;  -71.110;    0.000;79.22000
 766.71;   32.280;  -54.730;    0.000;87.01000
 766.97;   16.500;  -68.930;    0.000;85.43000
 767.22;   29.160;  -59.260;    0.000;88.42000
 767.48;   16.080;  -71.090;    0.000;87.17000
 767.74;   22.190;  -61.560;    0.000;83.75000
 768.00;   20.330;  -77.530;    0.000;97.86000
 768.26;   11.260;  -62.040;    0.000;73.30000
 768.51;   10.970;  -60.300;    0.000;71.27000
 768.77;   34.160;  -47.940;    0.000;82.10000
 769.03;   13.930;  -78.410;    0.000;92.34000
 769.29;   17.740;  -71.790;    0.000;89.53000
 769.54;   10.300;  -73.200;    0.000;83.50000
 769.80;   17.730;  -67.540;    0.000;85.27000
 770.06;   -1.250;  -74.660;    0.000;73.41000
 770.32;   19.880;  -76.440;    0.000;96.32000
 770.57;   -0.350;  -80.070;    0.000;79.72000
 770.83;   22.210;  -63.860;    0.000;86.07000
 771.09;    2.070;  -69.770;    0.000;71.84000
 771.35;   11.920;  -65.060;    0.000;76.98000
 771.61;    7.610;  -76.250;    0.000;83.86000
 771.86;   20.460;  -52.550;    0.000;73.01000
 772.12;   -2.620;  -82.060;    0.000;79.44000
 772.38;    1.580;  -70.920;    0.000;72.50000
 772.63;   -2.640;  -70.280;    0.000;67.64000
 772.89;    5.340;  -67.220;    0.000;72.56000
 773.15;    2.820;  -70.020;    0.000;72.84000
 773.41;    2.140;  -75.520;    0.000;77.66000
 773.66;    7.290;  -64.250;    0.000;71.54000
 773.92;    6.790;  -62.320;    0.000;69.11000
 774.18;   13.600;  -60.500;    0.000;74.10000
 774.44;    0.260;  -69.740;    0.000;70.00000
 774.69;    8.830;  -66.950;    0.000;75.78000
 774.95;   15.400;  -61.260;    0.000;76.66000
 775.21;   13.760;  -56.740;    0.000;70.50000
 775.46;    3.510;  -71.760;    0.000;75.27000
 775.72;   -5.410;  -74.010;    0.000;68.60000
 775.98;   10.890;  -57.630;    0.000;68.52000
 776.24;  -12.760;  -78.090;    0.000;65.33000
 776.49;   -0.090;  -65.450;    0.000;65.36000
 776.75;   -1.710;  -70.010;    0.000;68.30000
 777.01;   -2.160;  -73.480;    0.000;71.32000
 777.26;   11.220;  -53.890;    0.000;65.11000
 777.52;   -7.660;  -58.810;    0.000;51.15000
 777.78;    3.900;  -72.700;    0.000;76.60000
 778.03;   13.360;  -56.180;    0.000;69.54000
 778.29;   -1.300;  -65.510;    0.000;64.21000
 778.55;    6.410;  -64.990;    0.000;71.40000
 778.80;   -5.280;  -66.480;    0.000;61.20000
 779.06;  -12.130;  -72.690;    0.000;60.56000
 779.32;  -11.730;  -76.670;    0.000;64.94000
 779.57;  -10.860;  -67.570;    0.000;56.71000
 779.83;   -7.580;  -69.500;    0.000;61.92000
 780.09;   -7.280;  -65.320;    0.000;58.04000
 780.34;  -16.780;  -69.050;    0.000;52.27000
 780.60;    9.370;  -54.350;    0.000;63.72000
 780.86;   -6.440;  -70.540;    0.000;64.10000
 781.11;   -4.550;  -60.140;    0.000;55.59000
 781.37;  -21.350;  -89.190;    0.000;67.84000
 781.63;    1.340;  -53.500;    0.000;54.84000
 781.88;  -11.370;  -75.250;    0.000;63.88000
 782.14;   -8.630;  -65.990;    0.000;57.36000
 782.39;  -11.720;  -73.460;    0.000;61.74000
 782.65;   -5.070;  -67.340;    0.000;62.27000
 782.91;  -11.770;  -61.740;    0.000;49.97000
 783.16;   -8.680;  -64.430;    0.000;55.75000
 783.42;  -24.500;  -78.900;    0.000;54.40000
 783.67;  -11.110;  -60.080;    0.000;48.97000
 783.93;  -20.240;  -75.140;    0.000;54.90000
 784.19;  -10.320;  -63.580;    0.000;53.26000
 784.44;   -6.540;  -59.560;    0.000;53.02000
 784.70;    1.120;  -51.310;    0.000;52.43000
 784.96;  -23.900;  -79.860;    0.000;55.96000
 785.21;  -15.150;  -67.680;    0.000;52.53000
 785.47;    1.570;  -48.970;    0.000;50.54000
 785.72;  -20.420;  -76.220;    0.000;55.80000
 785.98;  -29.100;  -73.540;    0.000;44.44000
 786.23;  -10.540;  -71.420;    0.000;60.88000
 786.49;  -24.520;  -76.000;    0.000;51.48000
 786.75;  -18.700;  -71.520;    0.000;52.82000
 787.00;  -32.760;  -75.060;    0.000;42.30000
 787.26;  -25.110;  -65.970;    0.000;40.86000
 787.51;  -10.960;  -71.990;    0.000;61.03000
 787.77;   -0.530;  -54.030;    0.000;53.50000
 788.02;  -10.240;  -61.800;    0.000;51.56000
 788.28;  -17.990;  -70.640;    0.000;52.65000
 788.54;  -15.520;  -63.910;    0.000;48.39000
 788.79;  -13.650;  -58.120;    0.000;44.47000
 789.05;  -27.210;  -77.260;    0.000;50.05000
 789.30;  -18.810;  -63.070;    0.000;44.26000
 789.56;  -32.760;  -83.770;    0.000;51.01000
 789.81;  -17.950;  -70.330;    0.000;52.38000
 790.07;  -35.730;  -76.840;    0.000;41.11000
 790.32;  -20.270;  -67.480;    0.000;47.21000
 790.58;  -32.160;  -76.340;    0.000;44.18000
 790.83;  -22.960;  -66.550;    0.000;43.59000
 791.09;  -36.290;  -80.200;    0.000;43.91000
 791.35;  -34.290;  -74.470;    0.000;40.18000
 791.60;  -38.330;  -88.380;    0.000;50.05000
 791.86;  -23.080;  -60.380;    0.000;37.30000
 792.11;  -36.560;  -63.000;    0.000;26.44000
 792.37;  -30.630;  -71.430;    0.000;40.80000
 792.62;  -30.245;  -70.745;    0.000;40.50000
 792.88;  -29.860;  -70.060;    0.000;40.20000
 793.13;  -35.300;  -70.130;    0.000;34.83000
 793.39;  -40.620;  -73.500;    0.000;32.88000
 793.64;  -31.810;  -78.890;    0.000;47.08000
 793.90;  -17.720;  -64.800;    0.000;47.08000
 794.15;  -35.710;  -62.780;    0.000;27.07000
 794.41;  -17.500;  -61.310;    0.000;43.81000
 794.66;  -22.360;  -62.340;    0.000;39.98000
 794.92;  -29.800;  -63.470;    0.000;33.67000
 795.17;  -41.170;  -78.030;    0.000;36.86000
 795.43;  -32.550;  -81.320;    0.000;48.77000
 795.68;  -27.360;  -65.590;    0.000;38.23000
 795.94;  -33.280;  -63.900;    0.000;30.62000
 796.19;  -33.290;  -67.970;    0.000;34.68000
 796.44;  -23.160;  -76.220;    0.000;53.06000
 796.70;  -36.140;  -65.720;    0.000;29.58000
 796.95;  -23.960;  -54.340;    0.000;30.38000
 797.21;  -40.070;  -80.910;    0.000;40.84000
 797.46;  -32.220;  -78.690;    0.000;46.47000
 797.72;  -41.190;  -82.870;    0.000;41.68000
 797.97;  -42.610;  -82.520;    0.000;39.91000
 798.23;  -45.260;  -76.920;    0.000;31.66000
 798.48;  -28.550;  -63.290;    0.000;34.74000
 798.74;  -40.150;  -71.360;    0.000;31.21000
 798.99;  -37.670;  -74.330;    0.000;36.66000
 799.24;  -28.250;  -71.830;    0.000;43.58000
 799.50;  -40.190;  -63.300;    0.000;23.11000
 799.75;  -38.290;  -68.600;    0.000;30.31000
 800.01;  -38.500;  -68.250;    0.000;29.75000
 800.26;  -48.880;  -80.860;    0.000;31.98000
 800.52;  -41.120;  -72.700;    0.000;31.58000
 800.77;  -47.230;  -78.340;    0.000;31.11000
 801.02;  -43.100;  -78.570;    0.000;35.47000
 801.28;  -48.020;  -84.840;    0.000;36.82000
 801.53;  -25.200;  -60.400;    0.000;35.20000
 801.79;  -39.580;  -67.370;    0.000;27.79000
 802.04;  -41.270;  -68.440;    0.000;27.17000
 802.29;  -43.580;  -75.880;    0.000;32.30000
 802.55;  -36.920;  -61.940;    0.000;25.02000
 802.80;  -39.770;  -70.790;    0.000;31.02000
 803.06;  -32.410;  -66.900;    0.000;34.49000
 803.31;  -43.690;  -70.290;    0.000;26.60000
 803.56;  -33.030;  -66.680;    0.000;33.65000
 803.82;  -51.340;  -76.730;    0.000;25.39000
 804.07;  -35.910;  -70.630;    0.000;34.72000
 804.32;  -41.820;  -78.040;    0.000;36.22000
 804.58;  -44.580;  -75.000;    0.000;30.42000
 804.83;  -49.120;  -76.500;    0.000;27.38000
 805.09;  -36.750;  -63.990;    0.000;27.24000
 805.34;  -47.780;  -69.630;    0.000;21.85000
 805.59;  -38.100;  -58.930;    0.000;20.83000
 805.85;  -43.210;  -80.680;    0.000;37.47000
 806.10;  -37.540;  -65.530;    0.000;27.99000
 806.35;  -40.230;  -67.770;    0.000;27.54000
 806.61;  -38.970;  -75.980;    0.000;37.01000
 806.86;  -50.640;  -79.500;    0.000;28.86000
 807.11;  -41.280;  -62.610;    0.000;21.33000
 807.37;  -24.020;  -56.160;    0.000;32.14000
 807.62;  -49.440;  -77.550;    0.000;28.11000
 807.87;  -41.700;  -71.820;    0.000;30.12000
 808.13;  -43.390;  -73.880;    0.000;30.49000
 808.38;  -60.560;  -72.370;    0.000;11.81000
 808.63;  -37.580;  -66.890;    0.000;29.31000
 808.89;  -51.290;  -81.230;    0.000;29.94000
 809.14;  -49.370;  -74.120;    0.000;24.75000
 809.39;  -50.870;  -88.710;    0.000;37.84000
 809.65;  -46.370;  -69.050;    0.000;22.68000
 809.90;  -46.850;  -83.440;    0.000;36.59000
 810.15;  -47.890;  -78.660;    0.000;30.77000
 810.41;  -50.010;  -68.470;    0.000;18.46000
 810.66;  -39.660;  -70.200;    0.000;30.54000
 810.91;  -51.040;  -69.770;    0.000;18.73000
 811.16;  -50.730;  -74.940;    0.000;24.21000
 811.42;  -44.000;  -71.010;    0.000;27.01000
 811.67;  -55.270;  -72.410;    0.000;17.14000
 811.92;  -54.110;  -82.960;    0.000;28.85000
 812.18;  -42.230;  -69.050;    0.000;26.82000
 812.43;  -65.200;  -77.030;    0.000;11.83000
 812.68;  -47.680;  -69.130;    0.000;21.45000
 812.93;  -51.090;  -81.060;    0.000;29.97000
 813.19;  -40.570;  -57.500;    0.000;16.93000
 813.44;  -51.120;  -78.150;    0.000;27.03000
 813.69;  -40.020;  -60.290;    0.000;20.27000
 813.95;  -50.060;  -72.300;    0.000;22.24000
 814.20;  -55.010;  -69.340;    0.000;14.33000
 814.45;  -53.300;  -82.170;    0.000;28.87000
 814.70;  -34.080;  -61.380;    0.000;27.30000
 814.96;  -57.570;  -78.600;    0.000;21.03000
 815.21;  -44.750;  -69.070;    0.000;24.32000
 815.46;  -63.560;  -77.560;    0.000;14.00000
 815.71;  -40.830;  -70.640;    0.000;29.81000
 815.96;  -50.920;  -73.920;    0.000;23.00000
 816.22;  -50.160;  -75.550;    0.000;25.39000
 816.47;  -52.810;  -75.610;    0.000;22.80000
 816.72;  -42.450;  -64.380;    0.000;21.93000
 816.97;  -46.740;  -69.030;    0.000;22.29000
 817.23;  -39.500;  -58.770;    0.000;19.27000
 817.48;  -59.360;  -72.640;    0.000;13.28000
 817.73;  -46.900;  -68.910;    0.000;22.01000
 817.98;  -43.170;  -62.500;    0.000;19.33000
 818.23;  -45.360;  -69.600;    0.000;24.24000
 818.49;  -55.320;  -82.830;    0.000;27.51000
 818.74;  -40.500;  -63.160;    0.000;22.66000
 818.99;  -56.960;  -76.980;    0.000;20.02000
 819.24;  -31.480;  -56.900;    0.000;25.42000
 819.50;  -58.670;  -85.700;    0.000;27.03000
 819.75;  -48.320;  -58.460;    0.000;10.14000
 820.00;  -28.260;  -51.580;    0.000;23.32000
 820.25;  -41.430;  -76.950;    0.000;35.52000
 820.50;  -58.020;  -76.040;    0.000;18.02000
 820.75;  -48.000;  -58.290;    0.000;10.29000
 821.01;  -49.680;  -72.980;    0.000;23.30000
 821.26;  -45.890;  -61.870;    0.000;15.98000
 821.51;  -53.430;  -75.230;    0.000;21.80000
 821.76;  -50.950;  -74.500;    0.000;23.55000
 822.01;  -49.860;  -69.050;    0.000;19.19000
 822.26;  -52.280;  -75.290;    0.000;23.01000
 822.52;  -51.020;  -75.780;    0.000;24.76000
 822.77;  -43.980;  -73.230;    0.000;29.25000
 823.02;  -49.710;  -82.200;    0.000;32.49000
 823.27;  -53.130;  -74.650;    0.000;21.52000
 823.52;  -57.790;  -83.590;    0.000;25.80000
 823.77;  -50.150;  -71.930;    0.000;21.78000
 824.03;  -45.540;  -66.100;    0.000;20.56000
 824.28;  -61.500;  -73.830;    0.000;12.33000
 824.53;  -62.860;  -76.580;    0.000;13.72000
 824.78;  -51.170;  -73.800;    0.000;22.63000
 825.03;  -60.690;  -81.540;    0.000;20.85000
 825.28;  -56.090;  -77.210;    0.000;21.12000
 825.53;  -63.840;  -74.480;    0.000;10.64000
 825.78;  -38.090;  -64.840;    0.000;26.75000
 826.04;  -52.860;  -71.720;    0.000;18.86000
 826.29;  -56.090;  -69.860;    0.000;13.77000
 826.54;  -52.590;  -78.410;    0.000;25.82000
 826.79;  -48.380;  -73.020;    0.000;24.64000
 827.04;  -59.330;  -84.000;    0.000;24.67000
 827.29;  -50.980;  -74.210;    0.000;23.23000
 827.54;  -52.230;  -73.620;    0.000;21.39000
 827.79;  -50.120;  -70.830;    0.000;20.71000
 828.04;  -47.550;  -72.100;    0.000;24.55000
 828.29;  -55.090;  -67.810;    0.000;12.72000
 828.55;  -57.590;  -72.130;    0.000;14.54000
 828.80;  -47.940;  -71.180;    0.000;23.24000
 829.05;  -58.710;  -70.120;    0.000;11.41000
 829.30;  -59.210;  -79.380;    0.000;20.17000
 829.55;  -59.510;  -77.730;    0.000;18.22001
 829.80;  -56.880;  -69.970;    0.000;13.09000
 830.05;  -57.210;  -71.210;    0.000;14.00000
 830.30;  -54.120;  -74.490;    0.000;20.37000
 830.55;  -60.490;  -73.870;    0.000;13.38000
 830.80;  -61.160;  -72.120;    0.000;10.96000
 831.05;  -51.870;  -73.240;    0.000;21.37000
 831.30;  -44.790;  -61.610;    0.000;16.82000
 831.55;  -55.910;  -72.070;    0.000;16.16000
 831.80;  -55.780;  -76.090;    0.000;20.31000
 832.05;  -53.820;  -72.350;    0.000;18.53000
 832.30;  -38.330;  -56.990;    0.000;18.66000
 832.56;  -63.840;  -74.880;    0.000;11.04000
 832.81;  -60.260;  -81.530;    0.000;21.27000
 833.06;  -54.290;  -70.100;    0.000;15.81000
 833.31;  -60.200;  -72.540;    0.000;12.34000
 833.56;  -57.450;  -79.370;    0.000;21.92000
 833.81;  -55.570;  -71.960;    0.000;16.39000
 834.06;  -55.170;  -76.960;    0.000;21.79000
 834.31;  -58.240;  -78.130;    0.000;19.89000
 834.56;  -53.440;  -66.970;    0.000;13.53000
 834.81;  -60.710;  -83.940;    0.000;23.23000
 835.06;  -69.190;  -84.050;    0.000;14.86000
 835.31;  -49.280;  -64.180;    0.000;14.90000
 835.56;  -50.860;  -70.370;    0.000;19.51000
 835.81;  -58.880;  -67.350;    0.000; 8.47000
 836.06;  -47.530;  -63.940;    0.000;16.41000
 836.31;  -56.380;  -73.980;    0.000;17.60000
 836.56;  -65.350;  -79.330;    0.000;13.98000
 836.81;  -57.710;  -71.010;    0.000;13.30000
 837.06;  -47.910;  -63.870;    0.000;15.96000
 837.31;  -56.520;  -74.940;    0.000;18.42000
 837.56;  -71.590;  -88.560;    0.000;16.97000
 837.81;  -51.490;  -68.370;    0.000;16.88000
 838.06;  -61.280;  -79.050;    0.000;17.77000
 838.31;  -62.090;  -77.890;    0.000;15.80000
 838.56;  -73.460;  -87.890;    0.000;14.43000
 838.80;  -59.610;  -74.450;    0.000;14.84000
 839.05;  -57.470;  -72.720;    0.000;15.25000
 839.30;  -68.030;  -81.530;    0.000;13.50000
 839.55;  -60.430;  -74.880;    0.000;14.45000
 839.80;  -53.700;  -72.710;    0.000;19.01000
 840.05;  -64.990;  -77.730;    0.000;12.74001
 840.30;  -39.890;  -62.950;    0.000;23.06000
 840.55;  -66.150;  -77.380;    0.000;11.23000
 840.80;  -45.790;  -60.500;    0.000;14.71000
 841.05;  -64.270;  -77.450;    0.000;13.18000
 841.30;  -49.980;  -64.750;    0.000;14.77000
 841.55;  -67.090;  -82.380;    0.000;15.29000
 841.80;  -59.710;  -80.340;    0.000;20.63000
 842.05;  -75.610;  -93.420;    0.000;17.81000
 842.30;  -58.810;  -72.220;    0.000;13.41000
 842.55;  -50.150;  -72.190;    0.000;22.04000
 842.79;  -67.940;  -78.840;    0.000;10.89999
 843.04;  -54.300;  -63.610;    0.000; 9.31000
 843.29;  -53.610;  -70.050;    0.000;16.44000
 843.54;  -58.800;  -72.130;    0.000;13.33000
 843.79;  -65.750;  -77.040;    0.000;11.29000
 844.04;  -60.090;  -74.220;    0.000;14.13000
 844.29;  -59.640;  -71.690;    0.000;12.05000
 844.54;  -65.880;  -78.650;    0.000;12.77000
 844.79;  -55.540;  -76.030;    0.000;20.49000
 845.04;  -64.580;  -70.190;    0.000; 5.61000
 845.28;  -66.080;  -74.780;    0.000; 8.70000
 845.53;  -68.240;  -75.020;    0.000; 6.78000
 845.78;  -42.030;  -59.080;    0.000;17.05000
 846.03;  -66.230;  -74.510;    0.000; 8.28000
 846.28;  -62.390;  -70.160;    0.000; 7.77000
 846.53;  -55.700;  -58.960;    0.000; 3.26000
 846.78;  -55.100;  -73.040;    0.000;17.94000
 847.02;  -51.960;  -58.760;    0.000; 6.80000
 847.27;  -58.730;  -67.500;    0.000; 8.77000
 847.52;  -69.550;  -80.170;    0.000;10.62000
 847.77;  -55.030;  -75.890;    0.000;20.86000
 848.02;  -73.200;  -79.510;    0.000; 6.31001
 848.27;  -62.740;  -72.730;    0.000; 9.99000
 848.52;  -66.190;  -80.850;    0.000;14.66000
 848.76;  -53.830;  -60.510;    0.000; 6.68000
 849.01;  -57.980;  -78.490;    0.000;20.51000
 849.26;  -67.020;  -76.380;    0.000; 9.36000
 849.51;  -63.540;  -72.410;    0.000; 8.87000
 849.76;  -59.470;  -75.550;    0.000;16.08000
 850.01;  -70.730;  -83.570;    0.000;12.84000
 850.25;  -66.780;  -69.620;    0.000; 2.84000
 850.50;  -70.380;  -82.060;    0.000;11.68000
 850.75;  -51.930;  -65.940;    0.000;14.01000
 851.00;  -68.920;  -76.370;    0.000; 7.45000
 851.25;  -56.460;  -68.640;    0.000;12.18000
 851.49;  -67.970;  -80.630;    0.000;12.66000
 851.74;  -72.640;  -74.970;    0.000; 2.33000
 851.99;  -61.250;  -73.100;    0.000;11.85000
 852.24;  -65.180;  -77.500;    0.000;12.32000
 852.49;  -77.990;  -79.380;    0.000; 1.39000
 852.73;  -62.700;  -78.890;    0.000;16.19000
 852.98;  -71.530;  -74.210;    0.000; 2.68000
 853.23;  -58.000;  -76.100;    0.000;18.10000
 853.48;  -73.250;  -81.410;    0.000; 8.16000
 853.73;  -61.480;  -76.970;    0.000;15.49000
 853.97;  -66.180;  -75.100;    0.000; 8.92000
 854.22;  -72.140;  -76.230;    0.000; 4.09000
 854.47;  -69.380;  -82.400;    0.000;13.02000
 854.72;  -66.760;  -68.920;    0.000; 2.16000
 854.96;  -67.750;  -78.580;    0.000;10.83000
 855.21;  -64.540;  -71.010;    0.000; 6.47000
 855.46;  -56.790;  -59.170;    0.000; 2.38000
 855.71;  -66.990;  -85.800;    0.000;18.81001
 855.95;  -65.510;  -74.110;    0.000; 8.60000
 856.20;  -64.750;  -72.760;    0.000; 8.01000
 856.45;  -65.680;  -85.610;    0.000;19.93000
 856.70;  -68.570;  -70.870;    0.000; 2.30000
 856.94;  -72.260;  -79.390;    0.000; 7.13000
 857.19;  -62.910;  -64.950;    0.000; 2.04000
 857.44;  -68.230;  -74.140;    0.000; 5.91000
 857.69;  -56.300;  -74.080;    0.000;17.78000
 857.93;  -60.770;  -72.170;    0.000;11.40000
 858.18;  -53.440;  -65.400;    0.000;11.96000
 858.43;  -65.090;  -74.950;    0.000; 9.86000
 858.67;  -50.060;  -62.950;    0.000;12.89000
 858.92;  -74.410;  -76.360;    0.000; 1.95000
 859.17;  -14.440;  -54.150;    0.000;39.71000
 859.42;  -73.720;  -78.880;    0.000; 5.16000
 859.66;  -72.880;  -79.670;    0.000; 6.79000
 859.91;  -66.740;  -75.430;    0.000; 8.69000
 860.16;  -80.290;  -85.150;    0.000; 4.86000
 860.40;  -63.150;  -73.870;    0.000;10.72000
 860.65;  -66.330;  -76.580;    0.000;10.25000
 860.90;  -82.450;  -87.770;    0.000; 5.32000
 861.14;  -65.530;  -79.050;    0.000;13.52000
 861.39;  -72.050;  -79.040;    0.000; 6.99000
 861.64;  -62.830;  -69.400;    0.000; 6.57000
 861.88;  -75.790;  -85.710;    0.000; 9.92000
 862.13;  -66.930;  -71.250;    0.000; 4.32000
 862.38;  -79.310;  -85.130;    0.000; 5.82000
 862.62;  -58.460;  -73.110;    0.000;14.65000
 862.87;  -63.600;  -74.050;    0.000;10.45000
 863.12;  -68.050;  -85.480;    0.000;17.43000
 863.36;  -68.900;  -77.780;    0.000; 8.88000
 863.61;  -67.760;  -70.330;    0.000; 2.57000
 863.86;  -61.570;  -83.090;    0.000;21.52000
 864.10;  -69.980;  -74.370;    0.000; 4.39000
 864.35;  -65.290;  -78.440;    0.000;13.15000
 864.60;  -71.600;  -76.350;    0.000; 4.75000
 864.84;  -81.400;  -78.230;    0.000;-3.17000
 865.09;  -60.920;  -66.680;    0.000; 5.76000
 865.33;  -73.380;  -82.700;    0.000; 9.32000
 865.58;  -52.580;  -67.180;    0.000;14.60000
 865.83;  -64.730;  -80.080;    0.000;15.35000
 866.07;  -69.700;  -81.320;    0.000;11.62000
 866.32;  -56.120;  -54.500;    0.000;-1.62000
 866.57;  -63.450;  -70.470;    0.000; 7.02000
 866.81;  -63.780;  -82.540;    0.000;18.76000
 867.06;  -65.110;  -77.360;    0.000;12.25000
 867.30;  -75.560;  -83.760;    0.000; 8.20000
 867.55;  -68.910;  -80.860;    0.000;11.95000
 867.80;  -65.380;  -70.830;    0.000; 5.45000
 868.04;  -65.760;  -70.790;    0.000; 5.03000
 868.29;  -68.910;  -74.480;    0.000; 5.57000
 868.53;  -65.550;  -69.440;    0.000; 3.89000
 868.78;  -75.660;  -84.070;    0.000; 8.41000
 869.03;  -60.930;  -68.510;    0.000; 7.58000
 869.27;  -70.160;  -77.050;    0.000; 6.89000
 869.52;  -61.390;  -83.420;    0.000;22.03000
 869.76;  -70.770;  -67.410;    0.000;-3.35999
 870.01;  -62.980;  -67.550;    0.000; 4.57000
 870.25;  -59.280;  -65.140;    0.000; 5.86000
 870.50;  -57.360;  -70.290;    0.000;12.93000
 870.75;  -77.160;  -82.930;    0.000; 5.77000
 870.99;  -56.810;  -70.660;    0.000;13.85000
 871.24;  -75.050;  -80.160;    0.000; 5.11000
 871.48;  -71.150;  -69.890;    0.000;-1.26000
 871.73;  -68.280;  -75.060;    0.000; 6.78000
 871.97;  -72.830;  -77.380;    0.000; 4.55000
 872.22;  -72.300;  -80.500;    0.000; 8.20000
 872.46;  -58.400;  -68.790;    0.000;10.39000
 872.71;  -78.030;  -83.910;    0.000; 5.88000
 872.95;  -56.920;  -67.870;    0.000;10.95000
 873.20;  -65.850;  -72.490;    0.000; 6.64000
 873.44;  -54.890;  -65.600;    0.000;10.71000
 873.69;  -73.320;  -86.780;    0.000;13.46000
 873.94;  -59.660;  -68.320;    0.000; 8.66000
 874.18;  -67.820;  -81.740;    0.000;13.92000
 874.43;  -64.730;  -78.500;    0.000;13.77000
 874.67;  -67.050;  -79.530;    0.000;12.48000
 874.92;  -51.660;  -61.980;    0.000;10.32000
 875.16;  -67.240;  -71.600;    0.000; 4.36000
 875.41;  -72.090;  -74.550;    0.000; 2.46001
 875.65;  -73.010;  -72.820;    0.000;-0.19000
 875.90;  -49.800;  -57.710;    0.000; 7.91000
 876.14;  -78.400;  -85.280;    0.000; 6.88000
 876.39;  -61.540;  -68.330;    0.000; 6.79000
 876.63;  -71.970;  -80.430;    0.000; 8.46000
 876.88;  -63.740;  -67.830;    0.000; 4.09000
 877.12;  -74.310;  -78.920;    0.000; 4.61000
 877.36;  -71.210;  -70.470;    0.000;-0.74000
 877.61;  -74.950;  -72.490;    0.000;-2.46000
 877.85;  -66.070;  -67.300;    0.000; 1.23000
 878.10;  -70.160;  -68.070;    0.000;-2.09000
 878.34;  -53.610;  -65.220;    0.000;11.61000
 878.59;  -70.330;  -74.140;    0.000; 3.81000
 878.83;  -65.530;  -77.480;    0.000;11.95000
 879.08;  -63.320;  -71.810;    0.000; 8.49000
 879.32;  -67.260;  -75.140;    0.000; 7.88000
 879.57;  -50.990;  -61.580;    0.000;10.59000
 879.81;  -63.380;  -78.450;    0.000;15.07000
 880.05;  -59.730;  -62.330;    0.000; 2.60000
 880.30;  -61.510;  -69.030;    0.000; 7.52000
 880.54;  -65.350;  -74.620;    0.000; 9.27000
 880.79;  -68.070;  -74.890;    0.000; 6.82000
 881.03;  -69.890;  -76.740;    0.000; 6.85000
 881.28;  -49.010;  -61.820;    0.000;12.81000
 881.52;  -67.910;  -78.630;    0.000;10.71999
 881.76;  -64.400;  -63.620;    0.000;-0.78000
 882.01;  -61.750;  -70.160;    0.000; 8.41000
 882.25;  -59.990;  -70.020;    0.000;10.02999
 882.50;  -73.510;  -76.690;    0.000; 3.18000
 882.74;  -48.190;  -58.310;    0.000;10.12000
 882.98;  -69.310;  -71.460;    0.000; 2.15000
 883.23;  -65.370;  -72.830;    0.000; 7.46000
 883.47;  -61.150;  -64.540;    0.000; 3.39000
 883.72;  -56.290;  -63.640;    0.000; 7.35000
 883.96;  -61.120;  -69.160;    0.000; 8.04000
 884.20;  -62.800;  -72.280;    0.000; 9.48000
 884.45;  -55.490;  -69.830;    0.000;14.34000
 884.69;  -57.560;  -54.450;    0.000;-3.11000
 884.94;  -46.320;  -57.560;    0.000;11.24000
 885.18;  -59.010;  -68.170;    0.000; 9.16000
 885.42;  -74.810;  -70.470;    0.000;-4.34000
 885.67;  -62.150;  -65.500;    0.000; 3.35000
 885.91;  -61.750;  -76.290;    0.000;14.54000
 886.15;  -60.970;  -70.610;    0.000; 9.64000
 886.40;  -58.200;  -66.170;    0.000; 7.97000
 886.64;  -67.190;  -68.810;    0.000; 1.62000
 886.88;  -61.280;  -75.520;    0.000;14.24000
 887.13;  -55.340;  -61.410;    0.000; 6.07000
 887.37;  -67.840;  -76.880;    0.000; 9.04000
 887.62;  -49.670;  -56.020;    0.000; 6.35000
 887.86;  -51.050;  -70.890;    0.000;19.84000
 888.10;  -49.990;  -64.840;    0.000;14.84999
 888.35;  -61.100;  -61.600;    0.000; 0.50000
 888.59;  -57.530;  -64.870;    0.000; 7.34000
 888.83;  -67.100;  -68.950;    0.000; 1.85000
 889.07;  -58.770;  -59.470;    0.000; 0.70000
 889.32;  -60.350;  -70.170;    0.000; 9.82000
 889.56;  -54.020;  -62.350;    0.000; 8.33000
 889.80;  -54.240;  -60.710;    0.000; 6.47000
 890.05;  -48.670;  -57.640;    0.000; 8.97000
 890.29;  -63.480;  -66.700;    0.000; 3.22000
 890.53;  -64.190;  -66.790;    0.000; 2.60000
 890.78;  -62.330;  -62.500;    0.000; 0.17000
 891.02;  -54.580;  -56.430;    0.000; 1.85000
 891.26;  -69.580;  -68.100;    0.000;-1.48000
 891.51;  -43.450;  -54.610;    0.000;11.16000
 891.75;  -52.530;  -53.430;    0.000; 0.90000
 891.99;  -53.590;  -66.610;    0.000;13.02000
 892.23;  -66.870;  -69.110;    0.000; 2.24000
 892.48;  -43.570;  -50.770;    0.000; 7.20000
 892.72;  -54.650;  -55.570;    0.000; 0.92000
 892.96;  -48.100;  -53.150;    0.000; 5.05000
 893.20;  -56.210;  -64.400;    0.000; 8.19000
 893.45;  -56.420;  -60.030;    0.000; 3.61000
 893.69;  -53.910;  -62.920;    0.000; 9.01000
 893.93;  -42.410;  -48.190;    0.000; 5.78000
 894.17;  -51.190;  -57.110;    0.000; 5.92000
 894.42;  -51.380;  -58.560;    0.000; 7.18000
 894.66;  -52.520;  -56.160;    0.000; 3.64000
 894.90;  -47.270;  -44.390;    0.000;-2.88000
 895.14;  -51.070;  -54.700;    0.000; 3.63000
 895.39;  -47.630;  -54.160;    0.000; 6.53000
 895.63;  -37.880;  -46.130;    0.000; 8.25000
 895.87;  -49.620;  -45.090;    0.000;-4.53000
 896.11;  -42.600;  -47.000;    0.000; 4.40000
 896.36;  -31.710;  -40.580;    0.000; 8.87000
 896.60;  -50.810;  -64.630;    0.000;13.82000
 896.84;  -28.690;  -34.960;    0.000; 6.27000
 897.08;  -39.330;  -41.800;    0.000; 2.47000
 897.32;  -33.100;  -37.560;    0.000; 4.46000
 897.57;  -34.060;  -42.160;    0.000; 8.10000
 897.81;  -46.730;  -39.390;    0.000;-7.34000
 898.05;  -41.480;  -41.300;    0.000;-0.18000
 898.29;  -32.180;  -35.390;    0.000; 3.21000
 898.53;  -29.840;  -37.290;    0.000; 7.45000
 898.78;  -24.800;  -33.330;    0.000; 8.53000
 899.02;  -34.470;  -30.870;    0.000;-3.60000
 899.26;  -15.930;  -20.780;    0.000; 4.85000
 899.50;   -8.690;  -10.960;    0.000; 2.27000
 899.74;  -16.300;  -25.610;    0.000; 9.31000
 899.99;  -27.050;  -21.070;    0.000;-5.98000
 900.23;   -8.390;    2.230;    0.000;-10.62000
 900.47;  -24.010;  -20.220;    0.000;-3.79000
 900.71;    0.100;   -2.550;    0.000; 2.65000
 900.95;    5.990;   -0.240;    0.000; 6.23000
 901.19;   15.820;   14.960;    0.000; 0.86000
 901.44;   18.690;    5.540;    0.000;13.15000
 901.68;   37.260;   31.200;    0.000; 6.06000
 901.92;   32.610;   34.600;    0.000;-1.99000
 902.16;   43.120;   46.190;    0.000;-3.07000
 902.40;   66.460;   56.140;    0.000;10.32000
 902.64;   78.540;   82.740;    0.000;-4.20000
 902.88;  100.530;   92.020;    0.000; 8.51000
 903.13;  113.670;  105.920;    0.000; 7.75000

