
Integration time [ms]:  10.000
Averaging Nr. [scans]: 100
Smoothing Nr. [pixels]: 0
Data measured with spectrometer [name]: 1307077U2
Wave   ;Sample   ;Dark     ;Reference;Scope Corrected for Dark
[nm]   ;[counts] ;[counts] ;[counts] 

 350.80;    8.240;    4.030;    0.000; 4.21000
 351.10;    0.310;   -4.180;    0.000; 4.49000
 351.39;    8.200;    2.470;    0.000; 5.73000
 351.69;   -3.660;   -5.160;    0.000; 1.50000
 351.99;    8.230;    6.180;    0.000; 2.05000
 352.28;   -4.780;  -10.540;    0.000; 5.76000
 352.58;    3.390;    5.710;    0.000;-2.32000
 352.88;   -4.430;    5.210;    0.000;-9.64000
 353.17;    5.860;   14.010;    0.000;-8.15000
 353.47;   -4.860;   -9.550;    0.000; 4.69000
 353.76;    7.210;    8.350;    0.000;-1.14000
 354.06;    1.210;   -1.640;    0.000; 2.85000
 354.36;   11.920;    3.130;    0.000; 8.79000
 354.65;    6.300;    2.490;    0.000; 3.81000
 354.95;    2.270;   -4.840;    0.000; 7.11000
 355.24;   -7.200;   -6.230;    0.000;-0.97000
 355.54;    7.170;    5.960;    0.000; 1.21000
 355.84;   -2.730;   -2.430;    0.000;-0.30000
 356.13;   22.130;   14.640;    0.000; 7.49000
 356.43;  -10.530;  -16.650;    0.000; 6.12000
 356.72;   -2.580;   -2.860;    0.000; 0.28000
 357.02;   -0.610;   -4.950;    0.000; 4.34000
 357.31;   21.860;   15.180;    0.000; 6.68000
 357.61;    2.900;    0.860;    0.000; 2.04000
 357.91;   -6.500;   -0.030;    0.000;-6.47000
 358.20;   -6.100;   -6.640;    0.000; 0.54000
 358.50;   -4.350;   -1.800;    0.000;-2.55000
 358.79;   -2.440;   -6.380;    0.000; 3.94000
 359.09;    8.380;    7.630;    0.000; 0.75000
 359.38;  -10.060;   -4.280;    0.000;-5.78000
 359.68;   -7.430;   -3.990;    0.000;-3.44000
 359.98;    1.150;   -9.890;    0.000;11.04000
 360.27;    4.650;    3.120;    0.000; 1.53000
 360.57;   -4.210;   -9.860;    0.000; 5.65000
 360.86;    4.270;    4.120;    0.000; 0.15000
 361.16;  -13.770;   -9.770;    0.000;-4.00000
 361.45;   -2.670;   -2.580;    0.000;-0.09000
 361.75;   -6.920;   -7.950;    0.000; 1.03000
 362.04;   20.240;   21.750;    0.000;-1.51000
 362.34;   -3.880;  -10.000;    0.000; 6.12000
 362.64;    6.780;    2.910;    0.000; 3.87000
 362.93;   -8.060;   -9.640;    0.000; 1.58000
 363.23;   -3.920;   -0.950;    0.000;-2.97000
 363.52;   -9.060;   -9.960;    0.000; 0.90000
 363.82;    0.160;   -1.210;    0.000; 1.37000
 364.11;   -6.460;   -0.330;    0.000;-6.13000
 364.41;   -8.620;   -7.080;    0.000;-1.54000
 364.70;   -7.960;   -9.350;    0.000; 1.39000
 365.00;    8.800;    2.780;    0.000; 6.02000
 365.29;    0.440;   -8.860;    0.000; 9.30000
 365.59;   -7.590;   -0.230;    0.000;-7.36000
 365.88;   -2.830;  -13.770;    0.000;10.94000
 366.18;    3.420;   -0.050;    0.000; 3.47000
 366.47;   -5.710;   -8.130;    0.000; 2.42000
 366.77;   -0.280;    1.200;    0.000;-1.48000
 367.06;   -3.620;   -5.020;    0.000; 1.40000
 367.36;    6.210;    8.050;    0.000;-1.84000
 367.65;    4.080;   -3.440;    0.000; 7.52000
 367.95;   -7.990;   -3.460;    0.000;-4.53000
 368.24;   -0.390;   -6.160;    0.000; 5.77000
 368.54;   -4.180;   -1.860;    0.000;-2.32000
 368.83;    1.570;    4.430;    0.000;-2.86000
 369.13;    1.130;    3.080;    0.000;-1.95000
 369.42;    1.740;   -7.200;    0.000; 8.94000
 369.72;   -3.070;    1.890;    0.000;-4.96000
 370.01;   -2.140;   -8.200;    0.000; 6.06000
 370.31;    7.170;    5.490;    0.000; 1.68000
 370.60;   13.900;    5.190;    0.000; 8.71000
 370.90;    2.370;    2.280;    0.000; 0.09000
 371.19;   -8.440;  -14.890;    0.000; 6.45000
 371.49;   -1.550;   -5.010;    0.000; 3.46000
 371.78;   -3.440;  -15.390;    0.000;11.95000
 372.08;    5.040;   -0.720;    0.000; 5.76000
 372.37;  -10.610;   -7.980;    0.000;-2.63000
 372.67;    5.570;    7.150;    0.000;-1.58000
 372.96;   -6.880;   -8.630;    0.000; 1.75000
 373.26;   -3.020;   -6.050;    0.000; 3.03000
 373.55;   -7.360;  -10.400;    0.000; 3.04000
 373.85;   -6.210;   -8.440;    0.000; 2.23000
 374.14;    0.000;   -7.130;    0.000; 7.13000
 374.43;   -7.420;    6.000;    0.000;-13.42000
 374.73;  -10.120;   -8.200;    0.000;-1.92000
 375.02;    2.170;    6.040;    0.000;-3.87000
 375.32;  -14.380;   -8.280;    0.000;-6.10000
 375.61;   -2.350;   -4.320;    0.000; 1.97000
 375.91;   -3.620;  -10.610;    0.000; 6.99000
 376.20;   -7.890;  -11.900;    0.000; 4.01000
 376.50;  -10.130;   -8.930;    0.000;-1.20000
 376.79;  -16.980;  -11.570;    0.000;-5.41000
 377.08;   -6.430;  -17.270;    0.000;10.84000
 377.38;   -7.140;    3.140;    0.000;-10.28000
 377.67;  -12.710;   -4.850;    0.000;-7.86000
 377.97;  -10.300;   -6.580;    0.000;-3.72000
 378.26;   -6.250;  -11.160;    0.000; 4.91000
 378.56;   -9.130;  -10.070;    0.000; 0.94000
 378.85;   -2.820;   -2.180;    0.000;-0.64000
 379.14;   -1.940;   -4.480;    0.000; 2.54000
 379.44;   -6.060;  -12.520;    0.000; 6.46000
 379.73;    0.220;   -1.390;    0.000; 1.61000
 380.03;    1.330;    1.420;    0.000;-0.09000
 380.32;    0.320;   -7.470;    0.000; 7.79000
 380.62;   -7.760;  -18.470;    0.000;10.71000
 380.91;    7.370;    0.800;    0.000; 6.57000
 381.20;  -12.290;  -15.290;    0.000; 3.00000
 381.50;   -4.940;   -1.950;    0.000;-2.99000
 381.79;   -6.680;  -15.050;    0.000; 8.37000
 382.09;   -0.280;    1.220;    0.000;-1.50000
 382.38;   -8.050;   -8.980;    0.000; 0.93000
 382.67;   -1.140;   -6.760;    0.000; 5.62000
 382.97;   -3.820;   -7.720;    0.000; 3.90000
 383.26;    3.330;    1.020;    0.000; 2.31000
 383.56;    4.660;  -10.020;    0.000;14.68000
 383.85;   -2.520;   -6.070;    0.000; 3.55000
 384.14;   -4.910;  -14.150;    0.000; 9.24000
 384.44;   -2.360;   -0.890;    0.000;-1.47000
 384.73;   -8.070;   -7.150;    0.000;-0.92000
 385.02;    2.850;   -2.920;    0.000; 5.77000
 385.32;   -4.700;   -3.830;    0.000;-0.87000
 385.61;   -7.720;  -13.580;    0.000; 5.86000
 385.91;   -0.410;   -9.020;    0.000; 8.61000
 386.20;   -6.490;  -14.970;    0.000; 8.48000
 386.49;  -14.070;  -15.310;    0.000; 1.24000
 386.79;   -3.530;   -6.270;    0.000; 2.74000
 387.08;  -12.540;  -10.690;    0.000;-1.85000
 387.37;   -2.390;   -4.540;    0.000; 2.15000
 387.67;  -11.050;  -13.490;    0.000; 2.44000
 387.96;   -8.030;   -7.140;    0.000;-0.89000
 388.25;   -9.890;  -13.000;    0.000; 3.11000
 388.55;  -12.700;  -11.590;    0.000;-1.11000
 388.84;   -7.310;  -13.480;    0.000; 6.17000
 389.14;   -1.090;   -4.870;    0.000; 3.78000
 389.43;   -6.740;   -7.270;    0.000; 0.53000
 389.72;   -2.670;   -3.600;    0.000; 0.93000
 390.02;  -14.520;  -15.150;    0.000; 0.63000
 390.31;    1.130;   -3.970;    0.000; 5.10000
 390.60;   -8.560;   -9.800;    0.000; 1.24000
 390.90;   -1.210;   -1.730;    0.000; 0.52000
 391.19;  -17.810;  -13.590;    0.000;-4.22000
 391.48;   -2.630;   -4.990;    0.000; 2.36000
 391.78;  -12.840;   -6.390;    0.000;-6.45000
 392.07;   41.220;   36.750;    0.000; 4.47000
 392.36;   -1.020;  -11.230;    0.000;10.21000
 392.66;   -7.580;   -8.300;    0.000; 0.72000
 392.95;   -5.410;  -19.820;    0.000;14.41000
 393.24;  -10.630;  -11.730;    0.000; 1.10000
 393.53;  -13.350;  -15.730;    0.000; 2.38000
 393.83;  -13.010;  -10.950;    0.000;-2.06000
 394.12;  -12.020;  -16.390;    0.000; 4.37000
 394.41;   -6.020;   -7.450;    0.000; 1.43000
 394.71;   -2.720;  -12.950;    0.000;10.23000
 395.00;   -9.480;   -7.620;    0.000;-1.86000
 395.29;   -6.060;   -8.310;    0.000; 2.25000
 395.59;  -11.630;  -13.230;    0.000; 1.60000
 395.88;  -16.520;   -9.550;    0.000;-6.97000
 396.17;   -8.250;  -10.600;    0.000; 2.35000
 396.46;   -3.170;   -2.150;    0.000;-1.02000
 396.76;   -8.340;   -5.400;    0.000;-2.94000
 397.05;    9.110;    1.250;    0.000; 7.86000
 397.34;   -8.140;  -12.160;    0.000; 4.02000
 397.64;   -3.140;  -11.990;    0.000; 8.85000
 397.93;   -6.840;  -10.290;    0.000; 3.45000
 398.22;  -15.690;  -20.930;    0.000; 5.24000
 398.51;   -4.320;   -7.580;    0.000; 3.26000
 398.81;  -16.930;  -17.770;    0.000; 0.84000
 399.10;   -8.970;   -1.830;    0.000;-7.14000
 399.39;  -11.290;  -18.860;    0.000; 7.57000
 399.69;   -1.080;   -9.380;    0.000; 8.30000
 399.98;    0.790;  -11.540;    0.000;12.33000
 400.27;  -14.990;  -15.330;    0.000; 0.34000
 400.56;   -9.830;  -12.910;    0.000; 3.08000
 400.86;   -5.460;  -10.400;    0.000; 4.94000
 401.15;   -3.630;   -6.510;    0.000; 2.88000
 401.44;  -13.930;  -10.610;    0.000;-3.32000
 401.73;   -0.720;   -7.690;    0.000; 6.97000
 402.03;   -2.620;   -4.040;    0.000; 1.42000
 402.32;  -20.420;  -19.160;    0.000;-1.26000
 402.61;  -12.100;   -1.730;    0.000;-10.37000
 402.90;   -7.920;  -16.990;    0.000; 9.07000
 403.20;   -3.230;   -2.910;    0.000;-0.32000
 403.49;   -8.180;   -9.760;    0.000; 1.58000
 403.78;   -6.760;  -11.610;    0.000; 4.85000
 404.07;  -17.680;  -22.560;    0.000; 4.88000
 404.37;   -6.320;  -12.400;    0.000; 6.08000
 404.66;  -11.550;  -17.920;    0.000; 6.37000
 404.95;    0.070;   -3.130;    0.000; 3.20000
 405.24;  -12.070;  -14.390;    0.000; 2.32000
 405.53;   -6.910;   -6.780;    0.000;-0.13000
 405.83;   -6.010;  -12.330;    0.000; 6.32000
 406.12;  -15.400;  -19.690;    0.000; 4.29000
 406.41;   -5.060;   -3.820;    0.000;-1.24000
 406.70;   -1.650;   -6.390;    0.000; 4.74000
 407.00;   -6.650;  -17.760;    0.000;11.11000
 407.29;   -4.940;   -5.640;    0.000; 0.70000
 407.58;  -15.920;  -18.150;    0.000; 2.23000
 407.87;   -8.270;  -10.380;    0.000; 2.11000
 408.16;  -17.120;  -17.260;    0.000; 0.14000
 408.46;   -7.560;  -12.130;    0.000; 4.57000
 408.75;   -8.910;  -15.780;    0.000; 6.87000
 409.04;   -3.910;   -1.600;    0.000;-2.31000
 409.33;  -10.020;  -13.340;    0.000; 3.32000
 409.62;   -1.140;   -2.450;    0.000; 1.31000
 409.92;  -13.880;   -6.880;    0.000;-7.00000
 410.21;   -6.950;  -15.900;    0.000; 8.95000
 410.50;  -16.190;  -20.780;    0.000; 4.59000
 410.79;   -2.590;   -5.100;    0.000; 2.51000
 411.08;  -16.410;  -13.180;    0.000;-3.23000
 411.37;   -7.860;   -8.590;    0.000; 0.73000
 411.67;  -13.130;  -14.900;    0.000; 1.77000
 411.96;   -6.870;  -12.600;    0.000; 5.73000
 412.25;  -13.540;  -17.930;    0.000; 4.39000
 412.54;   -5.020;  -12.620;    0.000; 7.60000
 412.83;  -16.890;  -16.690;    0.000;-0.20000
 413.13;   -4.190;   -9.100;    0.000; 4.91000
 413.42;  -12.830;  -21.200;    0.000; 8.37000
 413.71;   -1.410;   -1.600;    0.000; 0.19000
 414.00;  -14.030;  -26.150;    0.000;12.12000
 414.29;   -8.270;   -3.360;    0.000;-4.91000
 414.58;  -13.220;  -19.610;    0.000; 6.39000
 414.87;  -12.050;  -12.000;    0.000;-0.05000
 415.17;  -16.580;  -17.230;    0.000; 0.65000
 415.46;  -13.820;   -8.680;    0.000;-5.14000
 415.75;   -4.680;   -6.700;    0.000; 2.02000
 416.04;   -6.920;  -10.910;    0.000; 3.99000
 416.33;   -9.130;  -11.250;    0.000; 2.12000
 416.62;   -8.680;  -15.020;    0.000; 6.34000
 416.91;  -15.710;  -12.540;    0.000;-3.17000
 417.21;  -10.400;  -13.820;    0.000; 3.42000
 417.50;  -10.480;  -22.670;    0.000;12.19000
 417.79;  -13.300;  -14.150;    0.000; 0.85000
 418.08;  -15.300;  -22.610;    0.000; 7.31000
 418.37;   -2.150;   -8.440;    0.000; 6.29000
 418.66;   -9.200;  -12.690;    0.000; 3.49000
 418.95;    0.340;   -4.060;    0.000; 4.40000
 419.24;  -10.760;  -16.540;    0.000; 5.78000
 419.54;   -5.760;   -4.710;    0.000;-1.05000
 419.83;   -9.990;  -17.210;    0.000; 7.22000
 420.12;   -6.310;   -9.330;    0.000; 3.02000
 420.41;    0.980;   -1.720;    0.000; 2.70000
 420.70;  -15.790;  -12.920;    0.000;-2.87000
 420.99;   -9.570;  -13.160;    0.000; 3.59000
 421.28;   -4.590;   -9.530;    0.000; 4.94000
 421.57;   -8.170;  -19.200;    0.000;11.03000
 421.86;    1.890;   -0.530;    0.000; 2.42000
 422.16;   -3.350;  -11.590;    0.000; 8.24000
 422.45;   -8.990;  -15.740;    0.000; 6.75000
 422.74;   -7.450;  -14.600;    0.000; 7.15000
 423.03;   -8.450;   -1.000;    0.000;-7.45000
 423.32;  -15.170;  -19.120;    0.000; 3.95000
 423.61;   -2.740;   -1.410;    0.000;-1.33000
 423.90;   -6.300;  -14.280;    0.000; 7.98000
 424.19;   19.120;   17.330;    0.000; 1.79000
 424.48;  -17.600;  -13.500;    0.000;-4.10000
 424.77;   -9.380;   -7.810;    0.000;-1.57000
 425.06;   -9.380;  -11.550;    0.000; 2.17000
 425.35;    0.550;   -2.890;    0.000; 3.44000
 425.65;  -15.510;  -19.130;    0.000; 3.62000
 425.94;  -10.770;  -14.880;    0.000; 4.11000
 426.23;  -22.990;  -24.160;    0.000; 1.17000
 426.52;  -13.620;  -15.130;    0.000; 1.51000
 426.81;    6.040;   -2.380;    0.000; 8.42000
 427.10;  -17.850;  -14.170;    0.000;-3.68000
 427.39;   -3.720;  -18.300;    0.000;14.58000
 427.68;   -1.660;   -9.370;    0.000; 7.71000
 427.97;   -4.140;  -14.330;    0.000;10.19000
 428.26;  -14.130;  -19.050;    0.000; 4.92000
 428.55;   -0.080;   -8.910;    0.000; 8.83000
 428.84;    1.230;   -4.380;    0.000; 5.61000
 429.13;  -14.760;  -14.120;    0.000;-0.64000
 429.42;   -9.270;   -1.830;    0.000;-7.44000
 429.71;   -9.460;  -11.710;    0.000; 2.25000
 430.00;  -13.260;  -13.910;    0.000; 0.65000
 430.29;  -19.150;  -25.330;    0.000; 6.18000
 430.58;  -11.940;  -14.890;    0.000; 2.95000
 430.87;  -13.040;  -16.420;    0.000; 3.38000
 431.16;  -13.910;  -20.530;    0.000; 6.62000
 431.46;   -8.860;  -12.910;    0.000; 4.05000
 431.75;   -8.120;  -19.130;    0.000;11.01000
 432.04;   -4.790;   -8.890;    0.000; 4.10000
 432.33;  -15.120;  -20.210;    0.000; 5.09000
 432.62;   -8.440;   -9.300;    0.000; 0.86000
 432.91;  -11.080;  -13.020;    0.000; 1.94000
 433.20;  -15.750;  -18.270;    0.000; 2.52000
 433.49;   -7.210;  -14.130;    0.000; 6.92000
 433.78;  -17.160;  -23.820;    0.000; 6.66000
 434.07;   -7.290;  -16.610;    0.000; 9.32000
 434.36;  -17.690;  -16.950;    0.000;-0.74000
 434.65;  -17.060;  -27.030;    0.000; 9.97000
 434.94;  -10.140;  -19.310;    0.000; 9.17000
 435.23;   -7.040;   -5.090;    0.000;-1.95000
 435.52;   -9.970;  -13.640;    0.000; 3.67000
 435.81;  -10.440;   -6.560;    0.000;-3.88000
 436.10;  -12.070;  -18.360;    0.000; 6.29000
 436.39;   -0.790;   -1.810;    0.000; 1.02000
 436.68;   -5.680;  -11.450;    0.000; 5.77000
 436.97;  -10.870;  -11.940;    0.000; 1.07000
 437.26;  -17.440;  -15.160;    0.000;-2.28000
 437.55;   -8.830;   -9.340;    0.000; 0.51000
 437.83;  -20.680;  -24.130;    0.000; 3.45000
 438.12;  -15.390;  -18.050;    0.000; 2.66000
 438.41;   -7.940;  -16.450;    0.000; 8.51000
 438.70;    4.610;    5.100;    0.000;-0.49000
 438.99;    4.020;   -6.560;    0.000;10.58000
 439.28;   -5.140;  -16.310;    0.000;11.17000
 439.57;  -14.590;  -26.570;    0.000;11.98000
 439.86;   -9.600;  -22.850;    0.000;13.25000
 440.15;   -9.520;  -18.290;    0.000; 8.77000
 440.44;  -10.310;  -10.400;    0.000; 0.09000
 440.73;  -16.880;  -18.710;    0.000; 1.83000
 441.02;  -13.790;  -12.870;    0.000;-0.92000
 441.31;   -7.810;  -12.510;    0.000; 4.70000
 441.60;   -1.060;   -5.700;    0.000; 4.64000
 441.89;  -12.470;  -20.000;    0.000; 7.53000
 442.18;  -10.170;  -17.290;    0.000; 7.12000
 442.47;  -15.370;  -23.560;    0.000; 8.19000
 442.76;  -12.950;  -22.050;    0.000; 9.10000
 443.05;  -10.820;  -10.700;    0.000;-0.12000
 443.34;   -8.930;  -15.160;    0.000; 6.23000
 443.63;  -12.370;  -23.400;    0.000;11.03000
 443.91;  -10.380;  -12.690;    0.000; 2.31000
 444.20;  -13.610;  -20.000;    0.000; 6.39000
 444.49;  -11.600;  -19.950;    0.000; 8.35000
 444.78;   -9.470;  -18.340;    0.000; 8.87000
 445.07;    0.900;   -5.870;    0.000; 6.77000
 445.36;  -13.950;  -26.980;    0.000;13.03000
 445.65;   -7.190;  -13.340;    0.000; 6.15000
 445.94;  -16.020;  -18.160;    0.000; 2.14000
 446.23;   -3.690;  -10.830;    0.000; 7.14000
 446.52;   -0.940;  -19.630;    0.000;18.69000
 446.81;   -0.610;   -3.250;    0.000; 2.64000
 447.10;  -12.860;  -16.850;    0.000; 3.99000
 447.38;  -10.700;   -9.000;    0.000;-1.70000
 447.67;   -5.860;  -16.460;    0.000;10.60000
 447.96;   -8.990;  -15.930;    0.000; 6.94000
 448.25;  -13.060;  -11.520;    0.000;-1.54000
 448.54;  -11.970;  -14.940;    0.000; 2.97000
 448.83;  -11.610;  -23.010;    0.000;11.40000
 449.12;  -16.050;  -12.830;    0.000;-3.22000
 449.41;  -11.470;  -21.820;    0.000;10.35000
 449.70;  -15.850;  -15.120;    0.000;-0.73000
 449.98;  -12.920;  -24.820;    0.000;11.90000
 450.27;  -10.250;  -10.730;    0.000; 0.48000
 450.56;  -20.340;  -32.070;    0.000;11.73000
 450.85;  -12.000;  -17.010;    0.000; 5.01000
 451.14;  -28.650;  -19.960;    0.000;-8.69000
 451.43;  -21.980;  -22.330;    0.000; 0.35000
 451.72;  -17.970;  -25.220;    0.000; 7.25000
 452.01;   -1.290;   -8.480;    0.000; 7.19000
 452.29;  -23.460;  -25.040;    0.000; 1.58000
 452.58;  -19.810;  -19.810;    0.000; 0.00000
 452.87;  -17.150;  -25.340;    0.000; 8.19000
 453.16;  -10.400;  -19.590;    0.000; 9.19000
 453.45;   -2.010;  -18.650;    0.000;16.64000
 453.74;  -11.010;  -12.950;    0.000; 1.94000
 454.03;   -6.390;  -24.100;    0.000;17.71000
 454.31;  -14.760;  -16.240;    0.000; 1.48000
 454.60;  -13.700;  -19.330;    0.000; 5.63000
 454.89;   -2.400;  -11.120;    0.000; 8.72000
 455.18;  -19.420;  -27.130;    0.000; 7.71000
 455.47;  -16.920;  -21.170;    0.000; 4.25000
 455.76;  -19.100;  -24.610;    0.000; 5.51000
 456.04;   -7.870;  -11.030;    0.000; 3.16000
 456.33;  -16.910;  -18.760;    0.000; 1.85000
 456.62;   -9.190;  -19.610;    0.000;10.42000
 456.91;  -26.490;  -28.380;    0.000; 1.89000
 457.20;   -1.750;   -5.630;    0.000; 3.88000
 457.49;  -15.560;  -27.200;    0.000;11.64000
 457.77;  -15.870;  -17.300;    0.000; 1.43000
 458.06;   -9.970;  -18.500;    0.000; 8.53000
 458.35;  -18.470;  -17.400;    0.000;-1.07000
 458.64;  -15.000;  -24.560;    0.000; 9.56000
 458.93;   -9.810;  -18.030;    0.000; 8.22000
 459.21;  -20.140;  -24.490;    0.000; 4.35000
 459.50;  -10.550;  -10.930;    0.000; 0.38000
 459.79;  -22.500;  -29.690;    0.000; 7.19000
 460.08;  -18.490;  -20.110;    0.000; 1.62000
 460.37;  -14.130;  -20.120;    0.000; 5.99000
 460.65;  -14.880;  -13.690;    0.000;-1.19000
 460.94;  -15.330;  -23.190;    0.000; 7.86000
 461.23;   -8.900;  -21.260;    0.000;12.36000
 461.52;   -6.300;   -7.100;    0.000; 0.80000
 461.81;  -12.050;  -22.900;    0.000;10.85000
 462.09;  -11.200;  -18.640;    0.000; 7.44000
 462.38;  -21.780;  -21.600;    0.000;-0.18000
 462.67;  -17.710;  -27.600;    0.000; 9.89000
 462.96;  -15.000;  -18.400;    0.000; 3.40000
 463.24;  -17.160;  -21.500;    0.000; 4.34000
 463.53;  -11.590;  -11.730;    0.000; 0.14000
 463.82;  -17.250;  -24.760;    0.000; 7.51000
 464.11;  -19.150;  -21.340;    0.000; 2.19000
 464.40;  -11.820;  -28.780;    0.000;16.96000
 464.68;  -21.120;  -25.400;    0.000; 4.28000
 464.97;  -14.390;  -22.490;    0.000; 8.10000
 465.26;   -3.610;  -12.310;    0.000; 8.70000
 465.55;  -14.950;  -25.340;    0.000;10.39000
 465.83;  -14.520;  -16.630;    0.000; 2.11000
 466.12;  -22.610;  -27.950;    0.000; 5.34000
 466.41;   -2.940;  -13.760;    0.000;10.82000
 466.70;  -17.480;  -27.320;    0.000; 9.84000
 466.98;  -22.110;  -19.100;    0.000;-3.01000
 467.27;  -11.620;  -15.890;    0.000; 4.27000
 467.56;    1.100;   -3.140;    0.000; 4.24000
 467.85;   -8.660;  -21.160;    0.000;12.50000
 468.13;   -9.810;  -10.210;    0.000; 0.40000
 468.42;  -16.600;  -21.810;    0.000; 5.21000
 468.71;  -13.130;  -21.960;    0.000; 8.83000
 468.99;  -17.040;  -23.670;    0.000; 6.63000
 469.28;   -8.590;  -23.740;    0.000;15.15000
 469.57;  -19.220;  -24.310;    0.000; 5.09000
 469.86;   -8.870;  -17.130;    0.000; 8.26000
 470.14;  -28.970;  -27.390;    0.000;-1.58000
 470.43;   -4.300;   -3.080;    0.000;-1.22000
 470.72;  -23.850;  -30.520;    0.000; 6.67000
 471.00;  -16.480;  -27.340;    0.000;10.86000
 471.29;    2.500;  -16.820;    0.000;19.32000
 471.58;    2.480;   -1.770;    0.000; 4.25000
 471.87;  -16.190;  -23.530;    0.000; 7.34000
 472.15;   -5.260;  -20.140;    0.000;14.88000
 472.44;   -5.640;  -10.790;    0.000; 5.15000
 472.73;  -20.380;  -24.380;    0.000; 4.00000
 473.01;  -21.440;  -31.480;    0.000;10.04000
 473.30;  -11.050;  -18.050;    0.000; 7.00000
 473.59;  -15.260;  -21.600;    0.000; 6.34000
 473.87;  -10.310;  -20.000;    0.000; 9.69000
 474.16;  -19.230;  -31.170;    0.000;11.94000
 474.45;  -13.860;  -20.640;    0.000; 6.78000
 474.74;  -21.680;  -32.260;    0.000;10.58000
 475.02;   -9.000;  -12.660;    0.000; 3.66000
 475.31;  -18.070;  -19.370;    0.000; 1.30000
 475.60;   -5.700;  -16.310;    0.000;10.61000
 475.88;  -10.850;  -28.060;    0.000;17.21000
 476.17;   -1.700;   -7.100;    0.000; 5.40000
 476.46;  -14.040;  -25.100;    0.000;11.06000
 476.74;  -12.910;  -16.590;    0.000; 3.68000
 477.03;  -19.320;  -32.260;    0.000;12.94000
 477.32;  -10.340;   -9.990;    0.000;-0.35000
 477.60;  -14.100;  -25.170;    0.000;11.07000
 477.89;   -8.440;  -14.410;    0.000; 5.97000
 478.18;  -14.870;  -24.840;    0.000; 9.97000
 478.46;  -10.930;  -12.980;    0.000; 2.05000
 478.75;  -10.700;  -26.450;    0.000;15.75000
 479.03;  -16.420;  -18.610;    0.000; 2.19000
 479.32;   -8.180;  -18.010;    0.000; 9.83000
 479.61;  -14.980;  -17.740;    0.000; 2.76000
 479.89;  -13.060;  -32.470;    0.000;19.41000
 480.18;   -5.800;  -19.180;    0.000;13.38000
 480.47;   -7.720;  -19.530;    0.000;11.81000
 480.75;   -9.410;  -21.460;    0.000;12.05000
 481.04;   -9.170;  -21.890;    0.000;12.72000
 481.33;  -10.420;  -19.190;    0.000; 8.77000
 481.61;  -11.370;  -26.000;    0.000;14.63000
 481.90;  -18.230;  -24.330;    0.000; 6.10000
 482.18;   -3.310;  -12.870;    0.000; 9.56000
 482.47;   -4.940;   -9.230;    0.000; 4.29000
 482.76;  -21.960;  -27.380;    0.000; 5.42000
 483.04;   -5.290;  -19.970;    0.000;14.68000
 483.33;  -15.960;  -36.330;    0.000;20.37000
 483.61;   -6.590;  -21.150;    0.000;14.56000
 483.90;   -9.010;  -27.790;    0.000;18.78000
 484.19;  -15.810;  -28.550;    0.000;12.74000
 484.47;  -13.290;  -29.920;    0.000;16.63000
 484.76;   -7.940;  -26.270;    0.000;18.33000
 485.05;   -1.760;  -21.290;    0.000;19.53000
 485.33;   -8.060;  -21.790;    0.000;13.73000
 485.62;  -14.990;  -30.440;    0.000;15.45000
 485.90;    0.370;  -21.610;    0.000;21.98000
 486.19;   -5.980;  -28.210;    0.000;22.23000
 486.47;   18.650;   -4.970;    0.000;23.62000
 486.76;   -7.380;  -33.520;    0.000;26.14000
 487.05;   14.060;  -17.370;    0.000;31.43000
 487.33;    1.010;  -27.740;    0.000;28.75000
 487.62;   11.170;  -25.220;    0.000;36.39000
 487.90;    7.880;  -24.810;    0.000;32.69000
 488.19;   23.010;  -10.100;    0.000;33.11000
 488.47;   22.330;  -22.810;    0.000;45.14000
 488.76;   24.140;  -18.670;    0.000;42.81000
 489.05;   37.070;  -15.140;    0.000;52.21000
 489.33;   37.130;  -21.140;    0.000;58.27000
 489.62;   34.520;  -24.230;    0.000;58.75000
 489.90;   35.120;  -27.030;    0.000;62.15000
 490.19;   48.820;  -30.750;    0.000;79.57000
 490.47;   64.460;  -22.180;    0.000;86.64000
 490.76;   65.720;  -22.340;    0.000;88.06000
 491.05;   78.020;  -12.260;    0.000;90.28000
 491.33;   82.650;  -22.510;    0.000;105.16000
 491.62;   90.500;  -21.570;    0.000;112.07000
 491.90;  100.850;  -26.480;    0.000;127.33000
 492.19;  115.480;  -26.160;    0.000;141.64000
 492.47;  112.760;  -30.670;    0.000;143.43000
 492.76;  135.190;  -23.690;    0.000;158.88000
 493.04;  152.270;  -20.900;    0.000;173.17000
 493.33;  160.890;  -27.540;    0.000;188.43000
 493.61;  180.960;  -29.360;    0.000;210.32001
 493.90;  209.520;  -15.540;    0.000;225.06000
 494.18;  210.720;  -20.750;    0.000;231.47000
 494.47;  238.910;  -30.060;    0.000;268.97000
 494.75;  244.920;  -29.080;    0.000;274.00000
 495.04;  280.070;  -18.440;    0.000;298.51001
 495.32;  289.820;  -33.110;    0.000;322.93001
 495.61;  313.870;  -28.570;    0.000;342.43999
 495.89;  334.360;  -37.530;    0.000;371.88998
 496.18;  362.980;  -23.250;    0.000;386.23001
 496.46;  392.730;  -23.180;    0.000;415.91001
 496.75;  418.570;  -21.450;    0.000;440.02001
 497.03;  434.860;  -28.260;    0.000;463.11999
 497.32;  476.110;  -24.590;    0.000;500.69999
 497.60;  487.830;  -31.160;    0.000;518.98999
 497.89;  531.470;  -20.470;    0.000;551.93997
 498.17;  560.050;  -31.270;    0.000;591.31999
 498.46;  595.000;  -22.930;    0.000;617.93000
 498.74;  640.360;  -23.650;    0.000;664.00998
 499.03;  663.070;  -20.030;    0.000;683.10001
 499.31;  699.510;  -31.270;    0.000;730.78001
 499.60;  744.960;  -18.610;    0.000;763.57002
 499.88;  798.630;  -10.980;    0.000;809.61000
 500.17;  823.000;  -24.320;    0.000;847.32000
 500.45;  872.270;  -35.700;    0.000;907.97002
 500.74;  911.060;  -22.620;    0.000;933.68000
 501.02;  945.140;  -33.630;    0.000;978.77002
 501.31;  997.240;  -17.610;    0.000;1014.84999
 501.59; 1052.750;  -29.560;    0.000;1082.31000
 501.88; 1089.820;  -13.950;    0.000;1103.76995
 502.16; 1136.870;  -34.760;    0.000;1171.62999
 502.45; 1195.230;  -16.300;    0.000;1211.52998
 502.73; 1247.120;  -30.760;    0.000;1277.88000
 503.01; 1294.700;  -24.340;    0.000;1319.03995
 503.30; 1342.120;  -37.940;    0.000;1380.05999
 503.58; 1397.230;  -23.090;    0.000;1420.31998
 503.87; 1464.100;  -21.060;    0.000;1485.15998
 504.15; 1507.800;  -30.190;    0.000;1537.99005
 504.44; 1562.260;  -27.590;    0.000;1589.85001
 504.72; 1638.620;  -10.570;    0.000;1649.18999
 505.00; 1664.870;  -34.250;    0.000;1699.12000
 505.29; 1757.110;   -9.520;    0.000;1766.62999
 505.57; 1790.750;  -29.130;    0.000;1819.88000
 505.86; 1859.330;  -27.820;    0.000;1887.14996
 506.14; 1930.720;  -35.780;    0.000;1966.49997
 506.43; 1991.240;  -12.910;    0.000;2004.14999
 506.71; 2036.230;  -34.180;    0.000;2070.40998
 506.99; 2101.500;  -30.960;    0.000;2132.46000
 507.28; 2171.680;  -19.100;    0.000;2190.77993
 507.56; 2234.600;  -24.830;    0.000;2259.43010
 507.85; 2307.270;  -37.590;    0.000;2344.86002
 508.13; 2381.550;  -19.100;    0.000;2400.65005
 508.41; 2447.430;  -12.480;    0.000;2459.90993
 508.70; 2500.470;  -25.360;    0.000;2525.82997
 508.98; 2556.580;  -28.380;    0.000;2584.96008
 509.27; 2651.880;  -20.760;    0.000;2672.63988
 509.55; 2689.550;  -24.450;    0.000;2714.00005
 509.83; 2770.800;  -25.210;    0.000;2796.01005
 510.12; 2842.480;  -32.590;    0.000;2875.06998
 510.40; 2902.970;  -21.830;    0.000;2924.79997
 510.69; 2977.470;  -24.150;    0.000;3001.61997
 510.97; 3057.250;  -16.710;    0.000;3073.96000
 511.25; 3107.070;  -35.350;    0.000;3142.42007
 511.54; 3186.520;  -25.090;    0.000;3211.61002
 511.82; 3260.210;  -17.590;    0.000;3277.79996
 512.11; 3300.390;  -22.350;    0.000;3322.73989
 512.39; 3368.390;  -32.070;    0.000;3400.45989
 512.67; 3437.680;  -25.880;    0.000;3463.55993
 512.96; 3524.800;  -28.850;    0.000;3553.65005
 513.24; 3588.750;  -17.400;    0.000;3606.15000
 513.52; 3616.660;  -26.700;    0.000;3643.35991
 513.81; 3702.660;  -12.470;    0.000;3715.12991
 514.09; 3734.610;  -39.120;    0.000;3773.73011
 514.37; 3809.700;  -27.600;    0.000;3837.29995
 514.66; 3844.370;  -17.040;    0.000;3861.41012
 514.94; 3938.530;  -21.390;    0.000;3959.92003
 515.22; 3995.490;  -27.790;    0.000;4023.27999
 515.51; 4054.340;  -29.040;    0.000;4083.38009
 515.79; 4117.420;  -28.800;    0.000;4146.21992
 516.07; 4202.670;  -17.270;    0.000;4219.93992
 516.36; 4241.960;  -41.720;    0.000;4283.67996
 516.64; 4311.610;  -19.320;    0.000;4330.92986
 516.92; 4388.450;  -31.610;    0.000;4420.06020
 517.21; 4451.740;  -33.320;    0.000;4485.06023
 517.49; 4532.740;  -31.350;    0.000;4564.09023
 517.77; 4630.640;  -19.740;    0.000;4650.38014
 518.06; 4666.940;  -30.270;    0.000;4697.20994
 518.34; 4725.130;  -12.260;    0.000;4737.38988
 518.62; 4782.570;  -21.610;    0.000;4804.17982
 518.91; 4844.480;  -12.930;    0.000;4857.40998
 519.19; 4904.210;  -34.590;    0.000;4938.79996
 519.47; 4986.110;  -20.490;    0.000;5006.59986
 519.76; 5025.420;  -21.550;    0.000;5046.96992
 520.04; 5079.770;  -14.340;    0.000;5094.11002
 520.32; 5156.280;  -23.830;    0.000;5180.10979
 520.61; 5205.510;   -5.440;    0.000;5210.94977
 520.89; 5268.350;  -37.640;    0.000;5305.99010
 521.17; 5329.430;  -26.850;    0.000;5356.28018
 521.45; 5372.810;  -23.640;    0.000;5396.45006
 521.74; 5433.640;  -17.740;    0.000;5451.38014
 522.02; 5485.290;  -26.720;    0.000;5512.01004
 522.30; 5544.190;  -14.940;    0.000;5559.12994
 522.59; 5596.700;  -21.350;    0.000;5618.05020
 522.87; 5606.500;  -32.120;    0.000;5638.62000
 523.15; 5706.660;  -18.770;    0.000;5725.43016
 523.43; 5737.950;  -28.200;    0.000;5766.15020
 523.72; 5802.550;  -31.700;    0.000;5834.24981
 524.00; 5863.720;  -22.390;    0.000;5886.11021
 524.28; 5891.080;  -27.040;    0.000;5918.12008
 524.57; 5969.220;  -20.090;    0.000;5989.31021
 524.85; 5960.530;  -34.840;    0.000;5995.36979
 525.13; 6058.970;  -17.120;    0.000;6076.09022
 525.41; 6071.440;  -19.600;    0.000;6091.03994
 525.70; 6153.090;  -20.520;    0.000;6173.60984
 525.98; 6177.400;  -37.750;    0.000;6215.14990
 526.26; 6247.650;  -23.650;    0.000;6271.29990
 526.54; 6324.070;  -26.170;    0.000;6350.23982
 526.83; 6312.340;  -28.490;    0.000;6340.82984
 527.11; 6393.480;  -27.630;    0.000;6421.10998
 527.39; 6418.200;  -17.980;    0.000;6436.18019
 527.67; 6461.180;  -25.250;    0.000;6486.43018
 527.96; 6518.000;  -18.240;    0.000;6536.24000
 528.24; 6531.100;  -32.040;    0.000;6563.14010
 528.52; 6613.190;  -22.060;    0.000;6635.24994
 528.80; 6659.100;  -16.360;    0.000;6675.46010
 529.08; 6730.720;  -24.400;    0.000;6755.12021
 529.37; 6780.030;  -29.260;    0.000;6809.28979
 529.65; 6804.580;  -13.830;    0.000;6818.41008
 529.93; 6848.430;  -22.430;    0.000;6870.86018
 530.21; 6880.330;  -21.460;    0.000;6901.79008
 530.50; 6938.110;  -30.250;    0.000;6968.35986
 530.78; 6954.900;  -14.630;    0.000;6969.52990
 531.06; 7009.930;  -20.080;    0.000;7030.01018
 531.34; 7035.540;  -25.820;    0.000;7061.36004
 531.62; 7108.080;  -31.660;    0.000;7139.74008
 531.91; 7116.810;  -15.940;    0.000;7132.75006
 532.19; 7155.610;  -25.720;    0.000;7181.32986
 532.47; 7223.780;  -18.110;    0.000;7241.88979
 532.75; 7263.420;  -21.440;    0.000;7284.85992
 533.03; 7271.990;  -17.220;    0.000;7289.21023
 533.32; 7339.610;  -17.810;    0.000;7357.41986
 533.60; 7367.620;   -9.970;    0.000;7377.59012
 533.88; 7412.740;  -15.710;    0.000;7428.45023
 534.16; 7455.070;  -18.090;    0.000;7473.15982
 534.44; 7498.480;  -10.590;    0.000;7509.06998
 534.72; 7546.020;  -23.730;    0.000;7569.75002
 535.01; 7539.880;  -27.150;    0.000;7567.02988
 535.29; 7586.910;  -21.960;    0.000;7608.87016
 535.57; 7593.060;  -23.210;    0.000;7616.27006
 535.85; 7639.550;  -13.690;    0.000;7653.23980
 536.13; 7665.230;  -28.500;    0.000;7693.72998
 536.42; 7710.730;  -21.980;    0.000;7732.70998
 536.70; 7737.850;  -24.950;    0.000;7762.80010
 536.98; 7784.360;  -20.220;    0.000;7804.57986
 537.26; 7807.820;  -29.690;    0.000;7837.50982
 537.54; 7842.780;  -20.250;    0.000;7863.02979
 537.82; 7917.800;  -25.520;    0.000;7943.31981
 538.10; 7923.690;  -26.660;    0.000;7950.34994
 538.39; 7947.110;  -21.750;    0.000;7968.85986
 538.67; 7982.050;  -22.250;    0.000;8004.29980
 538.95; 7988.110;  -30.330;    0.000;8018.43986
 539.23; 8038.930;  -19.740;    0.000;8058.67018
 539.51; 8088.190;  -23.770;    0.000;8111.95994
 539.79; 8098.130;  -24.990;    0.000;8123.11988
 540.07; 8103.490;  -36.040;    0.000;8139.53024
 540.36; 8177.510;  -32.000;    0.000;8209.50977
 540.64; 8165.680;  -27.990;    0.000;8193.67018
 540.92; 8202.030;  -16.720;    0.000;8218.75027
 541.20; 8253.570;  -22.670;    0.000;8276.24031
 541.48; 8324.500;   -5.030;    0.000;8329.53000
 541.76; 8318.080;  -30.870;    0.000;8348.95008
 542.04; 8356.060;  -20.340;    0.000;8376.39957
 542.32; 8381.940;  -29.390;    0.000;8411.33043
 542.61; 8407.260;  -19.070;    0.000;8426.32977
 542.89; 8432.640;  -13.970;    0.000;8446.60965
 543.17; 8420.740;  -18.380;    0.000;8439.12023
 543.45; 8456.970;  -27.300;    0.000;8484.26973
 543.73; 8506.080;  -30.880;    0.000;8536.96008
 544.01; 8544.200;  -28.330;    0.000;8572.53020
 544.29; 8571.360;  -23.230;    0.000;8594.59035
 544.57; 8570.910;  -30.670;    0.000;8601.58016
 544.85; 8614.860;  -31.850;    0.000;8646.71035
 545.13; 8634.540;  -29.720;    0.000;8664.26004
 545.42; 8607.410;  -22.510;    0.000;8629.92016
 545.70; 8681.940;  -25.810;    0.000;8707.75043
 545.98; 8702.690;  -29.460;    0.000;8732.15043
 546.26; 8693.520;  -23.710;    0.000;8717.22953
 546.54; 8706.770;  -27.350;    0.000;8734.11953
 546.82; 8751.710;  -27.350;    0.000;8779.05996
 547.10; 8756.150;  -28.060;    0.000;8784.21039
 547.38; 8750.540;  -26.980;    0.000;8777.52004
 547.66; 8788.710;  -20.600;    0.000;8809.30996
 547.94; 8804.430;  -26.620;    0.000;8831.04969
 548.22; 8826.720;  -18.210;    0.000;8844.92973
 548.50; 8797.380;  -33.930;    0.000;8831.30988
 548.78; 8875.130;  -19.160;    0.000;8894.28988
 549.06; 8848.720;  -26.480;    0.000;8875.19973
 549.34; 8884.770;  -26.050;    0.000;8910.81953
 549.63; 8918.910;  -22.420;    0.000;8941.33016
 549.91; 8908.310;  -20.450;    0.000;8928.75957
 550.19; 8932.880;  -20.960;    0.000;8953.83988
 550.47; 8923.880;  -23.490;    0.000;8947.36988
 550.75; 8943.650;  -35.020;    0.000;8978.67039
 551.03; 8965.710;  -20.560;    0.000;8986.26996
 551.31; 9018.320;  -24.020;    0.000;9042.34031
 551.59; 9016.630;  -16.240;    0.000;9032.86988
 551.87; 9000.740;  -23.530;    0.000;9024.27024
 552.15; 9030.060;  -28.140;    0.000;9058.19957
 552.43; 9015.690;  -14.870;    0.000;9030.56043
 552.71; 9049.500;  -21.280;    0.000;9070.78000
 552.99; 9064.900;  -21.520;    0.000;9086.42039
 553.27; 9039.540;  -25.870;    0.000;9065.41004
 553.55; 9061.870;  -23.860;    0.000;9085.73012
 553.83; 9070.470;  -19.210;    0.000;9089.67973
 554.11; 9079.780;  -21.190;    0.000;9100.97027
 554.39; 9113.450;  -17.150;    0.000;9130.60019
 554.67; 9136.750;  -26.640;    0.000;9163.39000
 554.95; 9132.270;    3.920;    0.000;9128.34953
 555.23; 9097.560;  -11.960;    0.000;9109.51957
 555.51; 9125.220;  -21.900;    0.000;9147.11973
 555.79; 9122.220;  -23.970;    0.000;9146.18973
 556.07; 9143.960;  -19.910;    0.000;9163.86996
 556.35; 9114.590;  -18.640;    0.000;9133.22984
 556.63; 9139.720;  -12.070;    0.000;9151.78973
 556.91; 9122.400;   -1.640;    0.000;9124.04039
 557.19; 9138.940;  -13.940;    0.000;9152.88043
 557.47; 9127.180;  -13.060;    0.000;9140.23969
 557.75; 9151.270;  -15.340;    0.000;9166.60953
 558.03; 9130.190;  -13.480;    0.000;9143.67043
 558.31; 9170.610;  -19.320;    0.000;9189.93035
 558.59; 9183.460;  -31.280;    0.000;9214.73996
 558.87; 9166.210;  -13.310;    0.000;9179.51996
 559.15; 9166.680;  -29.070;    0.000;9195.74969
 559.43; 9180.500;  -25.000;    0.000;9205.50000
 559.71; 9166.510;  -21.670;    0.000;9188.17977
 559.99; 9178.820;  -21.350;    0.000;9200.17031
 560.27; 9189.900;  -24.410;    0.000;9214.31039
 560.55; 9214.310;  -16.770;    0.000;9231.07957
 560.82; 9175.340;  -40.520;    0.000;9215.85984
 561.10; 9182.340;  -21.030;    0.000;9203.36984
 561.38; 9176.070;  -31.620;    0.000;9207.69031
 561.66; 9166.360;  -19.200;    0.000;9185.56035
 561.94; 9114.730;  -32.500;    0.000;9147.23047
 562.22; 9171.790;  -18.950;    0.000;9190.74004
 562.50; 9158.570;  -22.930;    0.000;9181.50031
 562.78; 9165.510;  -21.880;    0.000;9187.38976
 563.06; 9131.300;  -25.020;    0.000;9156.31981
 563.34; 9138.320;  -23.340;    0.000;9161.66031
 563.62; 9112.060;  -28.600;    0.000;9140.65957
 563.90; 9112.580;  -24.780;    0.000;9137.36008
 564.18; 9083.070;  -23.890;    0.000;9106.96031
 564.46; 9091.620;  -31.800;    0.000;9123.42012
 564.74; 9084.710;  -36.810;    0.000;9121.51996
 565.01; 9046.210;  -18.650;    0.000;9064.85996
 565.29; 9051.570;  -31.200;    0.000;9082.77031
 565.57; 9030.730;  -24.140;    0.000;9054.87047
 565.85; 8997.660;  -30.170;    0.000;9027.83016
 566.13; 9014.610;  -25.400;    0.000;9040.01035
 566.41; 9019.120;  -20.760;    0.000;9039.88012
 566.69; 8990.450;  -20.180;    0.000;9010.63020
 566.97; 8961.080;  -29.100;    0.000;8990.18008
 567.25; 9003.710;  -23.320;    0.000;9027.02996
 567.53; 8967.980;  -37.960;    0.000;9005.94047
 567.80; 8977.930;  -17.520;    0.000;8995.44969
 568.08; 8934.550;  -24.640;    0.000;8959.18980
 568.36; 8917.750;  -31.890;    0.000;8949.64000
 568.64; 8901.150;  -36.700;    0.000;8937.85039
 568.92; 8871.870;  -19.060;    0.000;8890.93012
 569.20; 8877.150;  -33.620;    0.000;8910.77039
 569.48; 8836.780;  -28.970;    0.000;8865.75027
 569.76; 8817.670;  -38.390;    0.000;8856.05992
 570.03; 8827.530;  -30.740;    0.000;8858.27027
 570.31; 8778.030;  -26.680;    0.000;8804.71027
 570.59; 8771.970;  -30.140;    0.000;8802.10973
 570.87; 8780.130;  -36.880;    0.000;8817.00988
 571.15; 8715.470;  -34.680;    0.000;8750.14973
 571.43; 8698.990;  -25.070;    0.000;8724.06023
 571.71; 8702.110;  -27.830;    0.000;8729.94035
 571.98; 8687.410;  -36.950;    0.000;8724.36016
 572.26; 8653.810;  -31.860;    0.000;8685.66957
 572.54; 8622.610;  -30.510;    0.000;8653.12035
 572.82; 8612.060;  -26.230;    0.000;8638.28957
 573.10; 8557.850;  -29.670;    0.000;8587.51961
 573.38; 8573.000;  -24.500;    0.000;8597.50000
 573.66; 8539.910;  -37.870;    0.000;8577.78016
 573.93; 8516.960;  -25.520;    0.000;8542.47996
 574.21; 8482.680;  -44.710;    0.000;8527.38969
 574.49; 8478.240;  -29.650;    0.000;8507.89023
 574.77; 8432.940;  -29.070;    0.000;8462.01043
 575.05; 8460.770;  -17.380;    0.000;8478.14953
 575.33; 8381.720;  -34.780;    0.000;8416.49973
 575.60; 8366.040;  -27.030;    0.000;8393.07004
 575.88; 8374.320;  -27.440;    0.000;8401.76031
 576.16; 8297.570;  -28.700;    0.000;8326.27031
 576.44; 8269.910;  -26.920;    0.000;8296.83016
 576.72; 8263.850;  -35.650;    0.000;8299.49961
 576.99; 8216.100;  -36.450;    0.000;8252.54961
 577.27; 8211.210;  -27.480;    0.000;8238.68996
 577.55; 8210.960;  -21.740;    0.000;8232.69996
 577.83; 8164.150;  -27.910;    0.000;8192.05990
 578.11; 8147.740;  -39.940;    0.000;8187.68023
 578.38; 8112.990;  -31.370;    0.000;8144.36024
 578.66; 8077.860;  -41.950;    0.000;8119.80986
 578.94; 8015.620;  -30.900;    0.000;8046.52012
 579.22; 8009.440;  -31.660;    0.000;8041.09994
 579.50; 7980.220;  -15.330;    0.000;7995.55021
 579.77; 7973.830;  -36.810;    0.000;8010.64008
 580.05; 7957.360;  -29.770;    0.000;7987.12986
 580.33; 7875.560;  -40.660;    0.000;7916.22006
 580.61; 7889.620;  -26.940;    0.000;7916.56012
 580.88; 7856.180;  -32.860;    0.000;7889.04018
 581.16; 7816.280;  -27.910;    0.000;7844.18979
 581.44; 7750.380;  -27.700;    0.000;7778.07988
 581.72; 7737.010;  -32.140;    0.000;7769.14977
 581.99; 7692.310;  -30.970;    0.000;7723.28006
 582.27; 7681.600;  -33.160;    0.000;7714.76010
 582.55; 7613.190;  -39.520;    0.000;7652.70994
 582.83; 7608.980;  -24.610;    0.000;7633.58998
 583.10; 7569.170;  -35.980;    0.000;7605.14992
 583.38; 7575.450;  -34.240;    0.000;7609.69020
 583.66; 7511.530;  -27.940;    0.000;7539.46979
 583.94; 7476.820;  -30.520;    0.000;7507.33982
 584.21; 7448.830;  -39.870;    0.000;7488.70008
 584.49; 7413.700;  -38.450;    0.000;7452.15020
 584.77; 7356.770;  -46.110;    0.000;7402.88002
 585.05; 7333.070;  -30.740;    0.000;7363.80982
 585.32; 7284.010;  -45.880;    0.000;7329.88977
 585.60; 7253.370;  -33.420;    0.000;7286.79012
 585.88; 7221.530;  -33.880;    0.000;7255.40979
 586.16; 7219.390;  -31.230;    0.000;7250.62014
 586.43; 7172.360;  -24.760;    0.000;7197.11986
 586.71; 7124.640;  -23.950;    0.000;7148.59014
 586.99; 7084.360;  -40.780;    0.000;7125.13986
 587.26; 7032.770;  -34.250;    0.000;7067.02002
 587.54; 7019.160;  -31.250;    0.000;7050.41016
 587.82; 7012.100;  -24.780;    0.000;7036.88010
 588.10; 6911.070;  -38.030;    0.000;6949.09982
 588.37; 6899.090;  -25.200;    0.000;6924.28984
 588.65; 6893.040;  -42.610;    0.000;6935.65004
 588.93; 6823.580;  -27.880;    0.000;6851.46008
 589.20; 6799.830;  -34.530;    0.000;6834.36008
 589.48; 6754.430;  -23.660;    0.000;6778.09018
 589.76; 6714.390;  -21.600;    0.000;6735.99014
 590.03; 6702.620;  -37.140;    0.000;6739.76012
 590.31; 6638.780;  -37.740;    0.000;6676.51979
 590.59; 6601.300;  -19.850;    0.000;6621.14981
 590.86; 6586.750;  -35.440;    0.000;6622.19000
 591.14; 6526.270;  -32.470;    0.000;6558.74002
 591.42; 6499.930;  -42.520;    0.000;6542.45018
 591.70; 6455.930;  -28.630;    0.000;6484.56017
 591.97; 6402.240;  -41.090;    0.000;6443.33023
 592.25; 6360.950;  -31.770;    0.000;6392.72020
 592.53; 6366.670;  -34.330;    0.000;6400.99992
 592.80; 6287.300;  -27.170;    0.000;6314.46980
 593.08; 6255.730;  -36.980;    0.000;6292.70998
 593.36; 6250.780;  -29.710;    0.000;6280.48978
 593.63; 6203.120;  -31.670;    0.000;6234.79012
 593.91; 6171.450;  -37.820;    0.000;6209.27020
 594.18; 6106.800;  -29.310;    0.000;6136.10980
 594.46; 6058.720;  -32.730;    0.000;6091.45021
 594.74; 6042.720;  -39.980;    0.000;6082.70021
 595.01; 5992.320;  -41.290;    0.000;6033.60983
 595.29; 5922.000;  -42.620;    0.000;5964.62000
 595.57; 5943.700;  -26.370;    0.000;5970.07020
 595.84; 5892.070;  -44.010;    0.000;5936.07982
 596.12; 5862.300;  -26.910;    0.000;5889.20980
 596.40; 5784.730;  -47.870;    0.000;5832.59998
 596.67; 5749.340;  -30.050;    0.000;5779.38984
 596.95; 5725.930;  -32.450;    0.000;5758.38018
 597.22; 5673.620;  -36.470;    0.000;5710.09012
 597.50; 5655.550;  -30.000;    0.000;5685.54980
 597.78; 5615.130;  -26.450;    0.000;5641.57988
 598.05; 5571.390;  -38.050;    0.000;5609.44014
 598.33; 5532.850;  -35.310;    0.000;5568.16010
 598.61; 5489.340;  -40.030;    0.000;5529.36984
 598.88; 5449.790;  -34.500;    0.000;5484.29004
 599.16; 5417.580;  -33.800;    0.000;5451.38008
 599.43; 5385.040;  -34.760;    0.000;5419.80004
 599.71; 5349.980;  -33.630;    0.000;5383.60998
 599.99; 5311.990;  -39.260;    0.000;5351.25023
 600.26; 5272.540;  -35.270;    0.000;5307.81004
 600.54; 5251.990;  -23.060;    0.000;5275.05023
 600.81; 5233.730;  -22.730;    0.000;5256.45998
 601.09; 5151.910;  -31.880;    0.000;5183.79016
 601.36; 5112.340;  -41.720;    0.000;5154.05984
 601.64; 5079.010;  -26.930;    0.000;5105.93977
 601.92; 5035.610;  -40.110;    0.000;5075.71986
 602.19; 4999.690;  -33.850;    0.000;5033.53994
 602.47; 4981.210;  -42.910;    0.000;5024.11996
 602.74; 4924.680;  -30.200;    0.000;4954.88018
 603.02; 4898.050;  -37.710;    0.000;4935.75980
 603.29; 4891.660;  -31.120;    0.000;4922.78016
 603.57; 4825.790;  -46.120;    0.000;4871.91004
 603.85; 4806.590;  -37.100;    0.000;4843.68984
 604.12; 4804.570;  -30.010;    0.000;4834.57982
 604.40; 4747.590;  -42.650;    0.000;4790.23985
 604.67; 4698.350;  -33.630;    0.000;4731.98010
 604.95; 4709.190;  -37.310;    0.000;4746.49994
 605.22; 4666.590;  -40.580;    0.000;4707.16985
 605.50; 4635.270;  -29.990;    0.000;4665.26002
 605.77; 4585.970;  -34.720;    0.000;4620.69022
 606.05; 4554.500;  -31.660;    0.000;4586.16000
 606.33; 4522.220;  -32.560;    0.000;4554.78022
 606.60; 4502.760;  -34.370;    0.000;4537.12976
 606.88; 4464.760;  -37.980;    0.000;4502.73977
 607.15; 4460.680;  -26.270;    0.000;4486.95018
 607.43; 4420.030;  -39.250;    0.000;4459.27979
 607.70; 4389.410;  -18.560;    0.000;4407.97016
 607.98; 4348.960;  -49.000;    0.000;4397.95996
 608.25; 4323.360;  -34.350;    0.000;4357.70986
 608.53; 4276.360;  -49.930;    0.000;4326.28986
 608.80; 4265.920;  -33.950;    0.000;4299.86992
 609.08; 4262.740;  -48.850;    0.000;4311.59023
 609.35; 4238.240;  -35.970;    0.000;4274.21024
 609.63; 4207.330;  -47.350;    0.000;4254.68008
 609.90; 4166.870;  -35.810;    0.000;4202.68012
 610.18; 4149.650;  -33.780;    0.000;4183.42990
 610.45; 4117.650;  -37.870;    0.000;4155.51990
 610.73; 4092.540;  -41.280;    0.000;4133.82004
 611.00; 4090.610;  -22.200;    0.000;4112.81011
 611.28; 4044.060;  -42.300;    0.000;4086.36006
 611.55; 4048.350;  -43.860;    0.000;4092.21010
 611.83; 4001.880;  -51.020;    0.000;4052.89988
 612.10; 3960.580;  -43.340;    0.000;4003.92008
 612.38; 3952.030;  -42.020;    0.000;3994.05003
 612.65; 3929.640;  -35.390;    0.000;3965.02989
 612.93; 3882.320;  -49.670;    0.000;3931.99007
 613.20; 3886.190;  -40.010;    0.000;3926.19994
 613.48; 3853.590;  -50.070;    0.000;3903.66009
 613.75; 3848.760;  -39.000;    0.000;3887.76001
 614.03; 3829.760;  -33.860;    0.000;3863.62001
 614.30; 3815.780;  -48.420;    0.000;3864.20003
 614.57; 3787.390;  -48.760;    0.000;3836.14989
 614.85; 3762.330;  -33.970;    0.000;3796.30008
 615.12; 3756.880;  -45.710;    0.000;3802.58988
 615.40; 3725.710;  -47.900;    0.000;3773.60996
 615.67; 3703.970;  -47.350;    0.000;3751.31997
 615.95; 3677.700;  -35.100;    0.000;3712.79995
 616.22; 3664.430;  -46.180;    0.000;3710.60993
 616.50; 3631.170;  -41.480;    0.000;3672.64992
 616.77; 3593.770;  -43.960;    0.000;3637.73002
 617.05; 3613.750;  -21.360;    0.000;3635.11000
 617.32; 3549.250;  -43.180;    0.000;3592.43000
 617.59; 3508.440;  -33.460;    0.000;3541.89994
 617.87; 3485.650;  -54.150;    0.000;3539.79990
 618.14; 3466.730;  -35.260;    0.000;3501.98998
 618.42; 3415.040;  -47.110;    0.000;3462.15004
 618.69; 3376.710;  -43.470;    0.000;3420.17996
 618.97; 3338.720;  -47.040;    0.000;3385.75997
 619.24; 3316.970;  -36.430;    0.000;3353.39997
 619.51; 3274.290;  -36.430;    0.000;3310.72004
 619.79; 3211.050;  -37.530;    0.000;3248.58005
 620.06; 3162.550;  -41.100;    0.000;3203.65005
 620.34; 3112.800;  -42.490;    0.000;3155.29005
 620.61; 3055.150;  -39.810;    0.000;3094.95990
 620.88; 3034.520;  -42.270;    0.000;3076.79002
 621.16; 3086.880;  -43.080;    0.000;3129.95988
 621.43; 3088.530;  -35.920;    0.000;3124.45003
 621.71; 3071.920;  -35.190;    0.000;3107.10992
 621.98; 3055.110;  -35.890;    0.000;3091.00011
 622.25; 3005.580;  -43.810;    0.000;3049.39008
 622.53; 3017.290;  -33.350;    0.000;3050.64004
 622.80; 2966.830;  -46.030;    0.000;3012.86008
 623.08; 2962.370;  -41.160;    0.000;3003.53012
 623.35; 2965.520;  -47.690;    0.000;3013.21002
 623.62; 2935.460;  -44.660;    0.000;2980.11996
 623.90; 2919.700;  -42.660;    0.000;2962.35995
 624.17; 2903.530;  -28.880;    0.000;2932.41003
 624.44; 2875.600;  -38.740;    0.000;2914.34010
 624.72; 2874.670;  -34.060;    0.000;2908.72992
 624.99; 2863.010;  -49.930;    0.000;2912.94001
 625.26; 2877.820;  -49.640;    0.000;2927.46007
 625.54; 2889.040;  -33.530;    0.000;2922.57004
 625.81; 2901.320;  -44.770;    0.000;2946.09007
 626.09; 2894.080;  -49.480;    0.000;2943.56008
 626.36; 2896.700;  -44.100;    0.000;2940.79995
 626.63; 2875.160;  -41.510;    0.000;2916.66991
 626.91; 2881.120;  -47.370;    0.000;2928.49012
 627.18; 2870.940;  -38.040;    0.000;2908.97994
 627.45; 2863.830;  -37.530;    0.000;2901.36008
 627.73; 2862.960;  -44.610;    0.000;2907.56996
 628.00; 2844.260;  -37.550;    0.000;2881.81001
 628.27; 2830.910;  -36.200;    0.000;2867.10991
 628.55; 2841.700;  -42.700;    0.000;2884.39995
 628.82; 2811.780;  -53.070;    0.000;2864.85003
 629.09; 2813.580;  -41.330;    0.000;2854.91008
 629.37; 2795.550;  -53.690;    0.000;2849.24005
 629.64; 2802.140;  -37.610;    0.000;2839.74989
 629.91; 2796.050;  -55.250;    0.000;2851.30005
 630.18; 2767.520;  -39.470;    0.000;2806.99002
 630.46; 2771.800;  -41.710;    0.000;2813.51005
 630.73; 2737.140;  -35.240;    0.000;2772.37989
 631.00; 2752.380;  -42.180;    0.000;2794.55988
 631.28; 2720.510;  -48.540;    0.000;2769.05001
 631.55; 2709.670;  -44.940;    0.000;2754.60992
 631.82; 2711.380;  -34.080;    0.000;2745.45988
 632.10; 2692.920;  -41.710;    0.000;2734.62992
 632.37; 2687.670;  -41.490;    0.000;2729.15992
 632.64; 2669.380;  -37.410;    0.000;2706.78988
 632.91; 2663.010;  -31.710;    0.000;2694.72001
 633.19; 2646.680;  -44.670;    0.000;2691.34993
 633.46; 2640.700;  -48.740;    0.000;2689.43995
 633.73; 2625.640;  -47.490;    0.000;2673.12989
 634.01; 2629.750;  -40.410;    0.000;2670.16000
 634.28; 2639.440;  -52.520;    0.000;2691.95994
 634.55; 2638.070;  -28.350;    0.000;2666.42007
 634.82; 2614.720;  -47.550;    0.000;2662.26997
 635.10; 2597.440;  -38.050;    0.000;2635.48994
 635.37; 2584.510;  -52.120;    0.000;2636.63001
 635.64; 2581.970;  -44.700;    0.000;2626.66997
 635.91; 2588.390;  -59.310;    0.000;2647.69989
 636.19; 2578.820;  -40.580;    0.000;2619.40007
 636.46; 2564.580;  -43.850;    0.000;2608.43008
 636.73; 2601.800;  -36.090;    0.000;2637.89005
 637.00; 2580.260;  -46.460;    0.000;2626.72001
 637.28; 2607.840;  -43.610;    0.000;2651.45009
 637.55; 2598.890;  -37.690;    0.000;2636.57989
 637.82; 2555.110;  -41.660;    0.000;2596.77011
 638.09; 2528.730;  -42.000;    0.000;2570.72998
 638.37; 2483.570;  -47.010;    0.000;2530.58007
 638.64; 2473.520;  -50.120;    0.000;2523.64002
 638.91; 2458.580;  -40.580;    0.000;2499.16008
 639.18; 2461.590;  -47.270;    0.000;2508.86009
 639.46; 2427.130;  -42.930;    0.000;2470.05988
 639.73; 2436.210;  -42.730;    0.000;2478.93996
 640.00; 2411.600;  -44.600;    0.000;2456.20010
 640.27; 2393.060;  -49.850;    0.000;2442.91006
 640.54; 2381.160;  -37.760;    0.000;2418.91991
 640.82; 2367.370;  -43.030;    0.000;2410.40012
 641.09; 2348.550;  -40.550;    0.000;2389.10005
 641.36; 2332.520;  -52.060;    0.000;2384.58002
 641.63; 2295.680;  -39.770;    0.000;2335.44993
 641.91; 2257.490;  -47.290;    0.000;2304.77999
 642.18; 2259.860;  -43.100;    0.000;2302.96011
 642.45; 2212.670;  -60.380;    0.000;2273.04992
 642.72; 2195.640;  -45.200;    0.000;2240.83989
 642.99; 2187.000;  -32.230;    0.000;2219.23000
 643.26; 2173.330;  -39.200;    0.000;2212.53008
 643.54; 2149.810;  -42.510;    0.000;2192.32006
 643.81; 2131.780;  -48.280;    0.000;2180.06003
 644.08; 2129.050;  -46.440;    0.000;2175.49005
 644.35; 2095.190;  -43.440;    0.000;2138.62994
 644.62; 2072.510;  -60.750;    0.000;2133.26001
 644.90; 2071.720;  -37.720;    0.000;2109.43997
 645.17; 2068.340;  -50.870;    0.000;2119.21009
 645.44; 2036.240;  -40.710;    0.000;2076.94999
 645.71; 2024.190;  -54.220;    0.000;2078.40994
 645.98; 2010.600;  -46.590;    0.000;2057.18998
 646.25; 2005.370;  -56.450;    0.000;2061.82000
 646.53; 1970.480;  -49.790;    0.000;2020.26998
 646.80; 1973.870;  -52.340;    0.000;2026.21000
 647.07; 1967.640;  -52.900;    0.000;2020.54002
 647.34; 1950.120;  -42.670;    0.000;1992.78999
 647.61; 1939.320;  -38.320;    0.000;1977.63995
 647.88; 1967.480;  -32.630;    0.000;2000.10998
 648.15; 1899.310;  -45.180;    0.000;1944.49006
 648.43; 1904.270;  -51.280;    0.000;1955.55002
 648.70; 1892.940;  -44.950;    0.000;1937.88994
 648.97; 1876.340;  -50.060;    0.000;1926.39997
 649.24; 1857.670;  -37.760;    0.000;1895.43004
 649.51; 1845.390;  -59.320;    0.000;1904.71001
 649.78; 1838.990;  -49.050;    0.000;1888.03999
 650.05; 1841.640;  -38.830;    0.000;1880.47002
 650.32; 1866.890;    3.430;    0.000;1863.46001
 650.60; 1800.690;  -49.520;    0.000;1850.20994
 650.87; 1803.940;  -40.720;    0.000;1844.65994
 651.14; 1783.910;  -49.080;    0.000;1832.99004
 651.41; 1785.760;  -40.880;    0.000;1826.64001
 651.68; 1752.950;  -51.850;    0.000;1804.79995
 651.95; 1756.250;  -32.540;    0.000;1788.79000
 652.22; 1732.790;  -46.770;    0.000;1779.56004
 652.49; 1733.740;  -47.170;    0.000;1780.90999
 652.76; 1713.850;  -56.460;    0.000;1770.30997
 653.03; 1721.440;  -52.290;    0.000;1773.72994
 653.31; 1693.160;  -54.730;    0.000;1747.89003
 653.58; 1688.600;  -44.140;    0.000;1732.73997
 653.85; 1671.800;  -55.300;    0.000;1727.10005
 654.12; 1668.060;  -40.030;    0.000;1708.09006
 654.39; 1664.870;  -59.010;    0.000;1723.87999
 654.66; 1662.850;  -34.440;    0.000;1697.28997
 654.93; 1634.370;  -43.990;    0.000;1678.36000
 655.20; 1615.030;  -46.980;    0.000;1662.01003
 655.47; 1615.390;  -52.660;    0.000;1668.05001
 655.74; 1619.280;  -38.310;    0.000;1657.59003
 656.01; 1572.230;  -57.940;    0.000;1630.16998
 656.28; 1586.470;  -40.430;    0.000;1626.89997
 656.55; 1581.580;  -48.760;    0.000;1630.33995
 656.83; 1549.530;  -44.830;    0.000;1594.36003
 657.10; 1536.100;  -55.800;    0.000;1591.89997
 657.37; 1549.240;  -46.440;    0.000;1595.67999
 657.64; 1524.130;  -56.320;    0.000;1580.45000
 657.91; 1499.110;  -47.700;    0.000;1546.80999
 658.18; 1508.310;  -47.460;    0.000;1555.77006
 658.45; 1495.860;  -51.440;    0.000;1547.29998
 658.72; 1489.820;  -50.290;    0.000;1540.10995
 658.99; 1478.300;  -40.260;    0.000;1518.56005
 659.26; 1470.780;  -41.670;    0.000;1512.45003
 659.53; 1465.020;  -53.720;    0.000;1518.74002
 659.80; 1454.980;  -60.520;    0.000;1515.49998
 660.07; 1451.250;  -48.260;    0.000;1499.51000
 660.34; 1419.710;  -52.100;    0.000;1471.80996
 660.61; 1423.520;  -51.720;    0.000;1475.24002
 660.88; 1426.310;  -47.250;    0.000;1473.56006
 661.15; 1409.270;  -34.510;    0.000;1443.78002
 661.42; 1401.900;  -53.270;    0.000;1455.17002
 661.69; 1368.300;  -53.400;    0.000;1421.70005
 661.96; 1360.700;  -60.350;    0.000;1421.04995
 662.23; 1369.390;  -46.130;    0.000;1415.52002
 662.50; 1359.300;  -53.060;    0.000;1412.36005
 662.77; 1344.830;  -47.970;    0.000;1392.79996
 663.04; 1326.850;  -55.560;    0.000;1382.40998
 663.31; 1335.950;  -48.380;    0.000;1384.32995
 663.58; 1347.020;  -48.060;    0.000;1395.08002
 663.85; 1310.680;  -46.560;    0.000;1357.24006
 664.12; 1298.610;  -50.850;    0.000;1349.45998
 664.39; 1275.980;  -51.040;    0.000;1327.01998
 664.66; 1272.510;  -59.340;    0.000;1331.85001
 664.93; 1259.540;  -53.960;    0.000;1313.50004
 665.20; 1261.960;  -53.460;    0.000;1315.41996
 665.47; 1268.870;  -47.830;    0.000;1316.70000
 665.74; 1234.160;  -60.190;    0.000;1294.35003
 666.01; 1243.500;  -44.910;    0.000;1288.41000
 666.28; 1211.350;  -62.110;    0.000;1273.45998
 666.55; 1225.310;  -47.720;    0.000;1273.03006
 666.82; 1196.020;  -61.520;    0.000;1257.54002
 667.09; 1216.290;  -45.890;    0.000;1262.18004
 667.36; 1184.280;  -54.560;    0.000;1238.84003
 667.63; 1185.380;  -43.790;    0.000;1229.17001
 667.90; 1185.510;  -51.910;    0.000;1237.42001
 668.16; 1182.320;  -40.660;    0.000;1222.97995
 668.43; 1150.500;  -53.130;    0.000;1203.63000
 668.70; 1155.640;  -47.080;    0.000;1202.72002
 668.97; 1150.260;  -59.160;    0.000;1209.42001
 669.24; 1129.780;  -43.280;    0.000;1173.06003
 669.51; 1123.790;  -51.700;    0.000;1175.49004
 669.78; 1133.440;  -49.880;    0.000;1183.31994
 670.05; 1111.300;  -54.220;    0.000;1165.52005
 670.32; 1130.070;  -41.260;    0.000;1171.32994
 670.59; 1101.290;  -58.230;    0.000;1159.52004
 670.86; 1100.440;  -44.790;    0.000;1145.22994
 671.13; 1077.460;  -51.170;    0.000;1128.62996
 671.40; 1067.350;  -50.870;    0.000;1118.21997
 671.67; 1079.260;  -39.480;    0.000;1118.74001
 671.93; 1063.370;  -50.050;    0.000;1113.41999
 672.20; 1035.680;  -62.530;    0.000;1098.21005
 672.47; 1038.000;  -51.630;    0.000;1089.63000
 672.74; 1026.920;  -58.180;    0.000;1085.10004
 673.01; 1033.150;  -52.500;    0.000;1085.65002
 673.28; 1025.730;  -48.790;    0.000;1074.51998
 673.55; 1004.450;  -56.290;    0.000;1060.74001
 673.82;  990.800;  -57.450;    0.000;1048.24999
 674.09;  987.090;  -47.520;    0.000;1034.61003
 674.35;  956.880;  -52.050;    0.000;1008.93000
 674.62;  986.980;  -40.650;    0.000;1027.62998
 674.89;  968.660;  -56.110;    0.000;1024.76997
 675.16;  977.450;  -46.170;    0.000;1023.62001
 675.43;  952.210;  -57.390;    0.000;1009.60002
 675.70;  971.070;  -32.700;    0.000;1003.77001
 675.97;  927.840;  -53.910;    0.000;981.75003
 676.24;  938.870;  -47.160;    0.000;986.02999
 676.50;  914.630;  -58.400;    0.000;973.03001
 676.77;  922.690;  -48.110;    0.000;970.80000
 677.04;  915.970;  -55.880;    0.000;971.84997
 677.31;  896.610;  -53.920;    0.000;950.52998
 677.58;  908.060;  -50.120;    0.000;958.18000
 677.85;  897.600;  -44.200;    0.000;941.79998
 678.12;  885.410;  -55.690;    0.000;941.09997
 678.38;  889.230;  -42.970;    0.000;932.19998
 678.65;  861.690;  -64.680;    0.000;926.37000
 678.92;  881.560;  -54.550;    0.000;936.11000
 679.19;  864.850;  -39.690;    0.000;904.53997
 679.46;  859.960;  -47.550;    0.000;907.51002
 679.73;  835.250;  -59.220;    0.000;894.47000
 679.99;  823.730;  -50.410;    0.000;874.13998
 680.26;  835.750;  -62.850;    0.000;898.60000
 680.53;  827.090;  -49.460;    0.000;876.55003
 680.80;  811.330;  -57.820;    0.000;869.15002
 681.07;  821.040;  -44.180;    0.000;865.21998
 681.33;  808.990;  -51.070;    0.000;860.05999
 681.60;  811.120;  -48.710;    0.000;859.82999
 681.87;  778.570;  -62.990;    0.000;841.56001
 682.14;  796.010;  -46.370;    0.000;842.38001
 682.41;  776.300;  -55.150;    0.000;831.44999
 682.67;  789.280;  -43.000;    0.000;832.28003
 682.94;  763.160;  -68.110;    0.000;831.26997
 683.21;  763.070;  -55.460;    0.000;818.53001
 683.48;  756.610;  -57.760;    0.000;814.36998
 683.75;  758.400;  -47.900;    0.000;806.30003
 684.01;  748.880;  -55.520;    0.000;804.40001
 684.28;  729.980;  -55.430;    0.000;785.40998
 684.55;  733.210;  -49.130;    0.000;782.34002
 684.82;  724.960;  -58.800;    0.000;783.76002
 685.09;  719.840;  -52.990;    0.000;772.83003
 685.35;  723.800;  -48.550;    0.000;772.34999
 685.62;  711.590;  -54.740;    0.000;766.33003
 685.89;  726.250;  -44.100;    0.000;770.35000
 686.16;  688.070;  -63.070;    0.000;751.14001
 686.42;  698.890;  -46.900;    0.000;745.79002
 686.69;  694.640;  -44.640;    0.000;739.28001
 686.96;  676.740;  -61.770;    0.000;738.50999
 687.23;  683.020;  -43.540;    0.000;726.56002
 687.49;  684.200;  -35.390;    0.000;719.59001
 687.76;  662.030;  -62.140;    0.000;724.17003
 688.03;  660.270;  -50.100;    0.000;710.37002
 688.30;  647.780;  -64.450;    0.000;712.23003
 688.56;  644.140;  -52.870;    0.000;697.01001
 688.83;  632.210;  -60.550;    0.000;692.76002
 689.10;  632.700;  -53.890;    0.000;686.59001
 689.37;  617.990;  -70.030;    0.000;688.01999
 689.63;  627.470;  -48.550;    0.000;676.01997
 689.90;  617.630;  -53.230;    0.000;670.86000
 690.17;  608.520;  -49.050;    0.000;657.57002
 690.44;  595.590;  -58.840;    0.000;654.43003
 690.70;  594.390;  -52.720;    0.000;647.11002
 690.97;  589.080;  -53.770;    0.000;642.85002
 691.24;  598.620;  -47.860;    0.000;646.48000
 691.50;  579.870;  -59.530;    0.000;639.39999
 691.77;  575.000;  -56.310;    0.000;631.31000
 692.04;  575.130;  -59.430;    0.000;634.56001
 692.30;  559.470;  -57.620;    0.000;617.08997
 692.57;  560.090;  -60.930;    0.000;621.02003
 692.84;  548.380;  -56.380;    0.000;604.76001
 693.11;  551.950;  -67.750;    0.000;619.70001
 693.37;  550.550;  -50.830;    0.000;601.37999
 693.64;  521.730;  -63.140;    0.000;584.86998
 693.91;  532.960;  -51.900;    0.000;584.86002
 694.17;  529.200;  -47.910;    0.000;577.11001
 694.44;  527.360;  -47.070;    0.000;574.42999
 694.71;  527.620;  -61.340;    0.000;588.96000
 694.97;  511.930;  -52.260;    0.000;564.18999
 695.24;  504.570;  -63.910;    0.000;568.48001
 695.51;  492.270;  -62.980;    0.000;555.24999
 695.77;  480.030;  -59.670;    0.000;539.70000
 696.04;  488.840;  -52.380;    0.000;541.22000
 696.31;  461.680;  -66.480;    0.000;528.16000
 696.57;  488.930;  -38.310;    0.000;527.23999
 696.84;  471.000;  -52.850;    0.000;523.85000
 697.11;  480.540;  -54.240;    0.000;534.78001
 697.37;  469.420;  -51.920;    0.000;521.34001
 697.64;  456.210;  -53.060;    0.000;509.26999
 697.91;  445.510;  -60.220;    0.000;505.73001
 698.17;  444.190;  -54.270;    0.000;498.46000
 698.44;  440.330;  -63.030;    0.000;503.35999
 698.71;  443.400;  -49.550;    0.000;492.94999
 698.97;  429.640;  -54.580;    0.000;484.22002
 699.24;  426.370;  -45.040;    0.000;471.41000
 699.50;  411.170;  -64.050;    0.000;475.22002
 699.77;  407.260;  -49.010;    0.000;456.27001
 700.04;  390.910;  -64.650;    0.000;455.56001
 700.30;  395.840;  -61.870;    0.000;457.71000
 700.57;  393.380;  -63.250;    0.000;456.63000
 700.84;  404.160;  -41.730;    0.000;445.89000
 701.10;  372.950;  -62.570;    0.000;435.52001
 701.37;  381.660;  -60.320;    0.000;441.98000
 701.63;  361.560;  -59.440;    0.000;421.00000
 701.90;  377.180;  -53.830;    0.000;431.00999
 702.17;  368.130;  -49.470;    0.000;417.60001
 702.43;  355.990;  -55.120;    0.000;411.10999
 702.70;  352.620;  -53.740;    0.000;406.36000
 702.96;  338.830;  -60.640;    0.000;399.46999
 703.23;  326.830;  -59.120;    0.000;385.94999
 703.50;  311.140;  -56.130;    0.000;367.27002
 703.76;  320.870;  -52.510;    0.000;373.37999
 704.03;  325.700;  -42.210;    0.000;367.91001
 704.29;  318.180;  -51.680;    0.000;369.85999
 704.56;  311.940;  -59.410;    0.000;371.35000
 704.82;  297.370;  -60.620;    0.000;357.98999
 705.09;  304.050;  -50.430;    0.000;354.47999
 705.36;  281.510;  -62.970;    0.000;344.48001
 705.62;  296.590;  -33.310;    0.000;329.90000
 705.89;  273.660;  -59.100;    0.000;332.76000
 706.15;  273.720;  -48.880;    0.000;322.60000
 706.42;  274.040;  -57.690;    0.000;331.73001
 706.68;  259.320;  -56.700;    0.000;316.02001
 706.95;  250.990;  -57.630;    0.000;308.62001
 707.21;  248.510;  -58.650;    0.000;307.16000
 707.48;  246.220;  -61.920;    0.000;308.14000
 707.75;  247.980;  -50.800;    0.000;298.77999
 708.01;  238.170;  -61.080;    0.000;299.25000
 708.28;  241.220;  -51.820;    0.000;293.04000
 708.54;  225.180;  -63.220;    0.000;288.39999
 708.81;  240.150;  -44.090;    0.000;284.23999
 709.07;  216.460;  -62.050;    0.000;278.51001
 709.34;  217.810;  -61.410;    0.000;279.22000
 709.60;  203.240;  -68.660;    0.000;271.90001
 709.87;  214.960;  -48.490;    0.000;263.45001
 710.13;  202.760;  -66.420;    0.000;269.17999
 710.40;  200.060;  -64.680;    0.000;264.74000
 710.66;  198.810;  -62.120;    0.000;260.93000
 710.93;  204.040;  -55.610;    0.000;259.64999
 711.19;  191.550;  -63.730;    0.000;255.28000
 711.46;  202.270;  -48.890;    0.000;251.16000
 711.72;  193.570;  -58.100;    0.000;251.67001
 711.99;  193.620;  -47.670;    0.000;241.28999
 712.25;  176.390;  -61.830;    0.000;238.22000
 712.52;  201.290;  -40.700;    0.000;241.98999
 712.78;  189.210;  -56.040;    0.000;245.25001
 713.05;  178.300;  -54.940;    0.000;233.24000
 713.31;  175.440;  -58.190;    0.000;233.63000
 713.58;  176.840;  -51.770;    0.000;228.61000
 713.84;  165.960;  -61.840;    0.000;227.80001
 714.11;  170.270;  -54.940;    0.000;225.21000
 714.37;  164.600;  -57.910;    0.000;222.51001
 714.64;  166.290;  -56.410;    0.000;222.69999
 714.90;  163.840;  -55.060;    0.000;218.90000
 715.17;  161.520;  -59.790;    0.000;221.31001
 715.43;  157.890;  -60.320;    0.000;218.21000
 715.70;  163.310;  -53.640;    0.000;216.95000
 715.96;  153.210;  -60.380;    0.000;213.59001
 716.22;  158.350;  -56.780;    0.000;215.13000
 716.49;  153.190;  -68.920;    0.000;222.11000
 716.75;  146.130;  -64.590;    0.000;210.72000
 717.02;  145.410;  -56.200;    0.000;201.61000
 717.28;  148.150;  -59.350;    0.000;207.49999
 717.55;  141.130;  -69.660;    0.000;210.79001
 717.81;  146.740;  -55.520;    0.000;202.26001
 718.08;  141.040;  -60.370;    0.000;201.40999
 718.34;  147.850;  -59.980;    0.000;207.83001
 718.60;  146.710;  -56.160;    0.000;202.87001
 718.87;  148.700;  -53.350;    0.000;202.05000
 719.13;  135.650;  -62.460;    0.000;198.10999
 719.40;  142.220;  -51.850;    0.000;194.07000
 719.66;  136.900;  -64.270;    0.000;201.16999
 719.93;  145.880;  -47.770;    0.000;193.65001
 720.19;  131.700;  -70.590;    0.000;202.28999
 720.45;  132.840;  -58.110;    0.000;190.95000
 720.72;  139.950;  -60.550;    0.000;200.50000
 720.98;  143.510;  -56.440;    0.000;199.94999
 721.25;  119.840;  -72.700;    0.000;192.53999
 721.51;  129.660;  -61.040;    0.000;190.70000
 721.77;  131.570;  -62.760;    0.000;194.33001
 722.04;  148.390;  -46.700;    0.000;195.09000
 722.30;  138.860;  -58.310;    0.000;197.17000
 722.57;  140.890;  -52.890;    0.000;193.78000
 722.83;  136.580;  -62.730;    0.000;199.31000
 723.09;  121.050;  -56.910;    0.000;177.96000
 723.36;  127.500;  -59.400;    0.000;186.90000
 723.62;  134.140;  -51.840;    0.000;185.98000
 723.88;  128.290;  -59.890;    0.000;188.17999
 724.15;  133.330;  -49.500;    0.000;182.83000
 724.41;  126.370;  -65.630;    0.000;192.00000
 724.68;  126.650;  -59.360;    0.000;186.01000
 724.94;  140.340;  -48.690;    0.000;189.02999
 725.20;  133.280;  -56.210;    0.000;189.49000
 725.47;  124.740;  -62.730;    0.000;187.47000
 725.73;  127.520;  -64.430;    0.000;191.95000
 725.99;  124.700;  -71.790;    0.000;196.49000
 726.26;  134.510;  -50.060;    0.000;184.57000
 726.52;  121.690;  -63.590;    0.000;185.28000
 726.78;  131.160;  -52.290;    0.000;183.45000
 727.05;  123.760;  -61.380;    0.000;185.14000
 727.31;  119.120;  -52.170;    0.000;171.29000
 727.57;  123.460;  -63.730;    0.000;187.19000
 727.84;  123.920;  -53.340;    0.000;177.26000
 728.10;  117.020;  -60.120;    0.000;177.14000
 728.36;  120.030;  -53.710;    0.000;173.74000
 728.63;  122.250;  -62.820;    0.000;185.07000
 728.89;  112.460;  -60.280;    0.000;172.74000
 729.15;  114.310;  -65.040;    0.000;179.35000
 729.42;  115.190;  -60.470;    0.000;175.66000
 729.68;  120.780;  -54.970;    0.000;175.75000
 729.94;  105.760;  -68.100;    0.000;173.86000
 730.21;  117.690;  -64.640;    0.000;182.33000
 730.47;  110.690;  -63.530;    0.000;174.22000
 730.73;  105.350;  -66.260;    0.000;171.61000
 731.00;  116.240;  -57.360;    0.000;173.60000
 731.26;  108.210;  -57.540;    0.000;165.75000
 731.52;  114.030;  -58.280;    0.000;172.31000
 731.78;   95.740;  -66.450;    0.000;162.18999
 732.05;   99.160;  -65.530;    0.000;164.69000
 732.31;  104.630;  -59.070;    0.000;163.70000
 732.57;  112.210;  -54.620;    0.000;166.83000
 732.84;   94.110;  -70.510;    0.000;164.62000
 733.10;  100.340;  -57.600;    0.000;157.93999
 733.36;   91.220;  -70.050;    0.000;161.27000
 733.62;   93.490;  -62.500;    0.000;155.99000
 733.89;   94.480;  -59.180;    0.000;153.66000
 734.15;   98.640;  -61.340;    0.000;159.98000
 734.41;   90.950;  -61.790;    0.000;152.74000
 734.67;   91.730;  -50.600;    0.000;142.33000
 734.94;   88.300;  -63.880;    0.000;152.18000
 735.20;   98.650;  -57.270;    0.000;155.92000
 735.46;   88.620;  -68.040;    0.000;156.66000
 735.73;   97.600;  -54.400;    0.000;152.00000
 735.99;   91.180;  -71.180;    0.000;162.36000
 736.25;   90.060;  -55.920;    0.000;145.98000
 736.51;   87.110;  -61.210;    0.000;148.32000
 736.77;   89.620;  -54.920;    0.000;144.54000
 737.04;   87.000;  -62.400;    0.000;149.40000
 737.30;   79.690;  -58.680;    0.000;138.37000
 737.56;   81.160;  -58.620;    0.000;139.78000
 737.82;   78.220;  -58.750;    0.000;136.97000
 738.09;   75.060;  -70.360;    0.000;145.42000
 738.35;   77.420;  -63.970;    0.000;141.39000
 738.61;   80.070;  -61.870;    0.000;141.94000
 738.87;   83.840;  -52.450;    0.000;136.29000
 739.14;   75.230;  -61.560;    0.000;136.79000
 739.40;   68.490;  -64.850;    0.000;133.34000
 739.66;   70.680;  -68.810;    0.000;139.49000
 739.92;   72.490;  -63.470;    0.000;135.96000
 740.18;   68.780;  -64.080;    0.000;132.86000
 740.45;   69.540;  -61.060;    0.000;130.60000
 740.71;   73.320;  -53.970;    0.000;127.29000
 740.97;   70.590;  -55.520;    0.000;126.11000
 741.23;   61.590;  -74.870;    0.000;136.46000
 741.49;   64.530;  -59.120;    0.000;123.65000
 741.76;   52.950;  -76.640;    0.000;129.59000
 742.02;   65.070;  -68.540;    0.000;133.61000
 742.28;   59.470;  -68.520;    0.000;127.99000
 742.54;   60.330;  -57.000;    0.000;117.33000
 742.80;   49.240;  -70.310;    0.000;119.55000
 743.06;   60.710;  -54.290;    0.000;115.00000
 743.33;   57.900;  -60.930;    0.000;118.83000
 743.59;   63.030;  -62.190;    0.000;125.22000
 743.85;   53.630;  -73.310;    0.000;126.94000
 744.11;   47.030;  -63.690;    0.000;110.72000
 744.37;   60.090;  -58.170;    0.000;118.26000
 744.63;   50.230;  -65.230;    0.000;115.46000
 744.90;   41.770;  -72.800;    0.000;114.57000
 745.16;   37.630;  -57.920;    0.000;95.55000
 745.42;   49.660;  -62.790;    0.000;112.45000
 745.68;   54.070;  -55.010;    0.000;109.08000
 745.94;   55.650;  -55.100;    0.000;110.75000
 746.20;   50.930;  -54.310;    0.000;105.24000
 746.46;   50.610;  -60.150;    0.000;110.76000
 746.72;   50.020;  -51.640;    0.000;101.66000
 746.99;   45.070;  -60.120;    0.000;105.19000
 747.25;   51.180;  -53.010;    0.000;104.19000
 747.51;   46.140;  -65.470;    0.000;111.61000
 747.77;   52.010;  -60.410;    0.000;112.42000
 748.03;   40.020;  -67.950;    0.000;107.97000
 748.29;   44.470;  -58.140;    0.000;102.61000
 748.55;   36.790;  -70.260;    0.000;107.05000
 748.81;   31.850;  -63.530;    0.000;95.38000
 749.08;   28.910;  -67.880;    0.000;96.79000
 749.34;   28.240;  -63.460;    0.000;91.70000
 749.60;   34.860;  -60.810;    0.000;95.67000
 749.86;   48.040;  -53.480;    0.000;101.52000
 750.12;   27.060;  -69.350;    0.000;96.41000
 750.38;   33.090;  -65.040;    0.000;98.13000
 750.64;   20.740;  -75.360;    0.000;96.10000
 750.90;   30.290;  -57.730;    0.000;88.02000
 751.16;   18.450;  -72.650;    0.000;91.10000
 751.42;   26.770;  -66.050;    0.000;92.82000
 751.68;   20.360;  -55.770;    0.000;76.13000
 751.95;   17.300;  -68.120;    0.000;85.42000
 752.21;   13.700;  -73.710;    0.000;87.41000
 752.47;   19.520;  -65.780;    0.000;85.30000
 752.73;    8.720;  -68.460;    0.000;77.18000
 752.99;   16.360;  -65.620;    0.000;81.98000
 753.25;   14.220;  -71.920;    0.000;86.14000
 753.51;   18.150;  -65.730;    0.000;83.88000
 753.77;    9.220;  -65.570;    0.000;74.79000
 754.03;    9.120;  -62.250;    0.000;71.37000
 754.29;    9.260;  -73.500;    0.000;82.76000
 754.55;    8.940;  -62.200;    0.000;71.14000
 754.81;    3.640;  -67.770;    0.000;71.41000
 755.07;   11.360;  -63.760;    0.000;75.12000
 755.33;   12.750;  -72.470;    0.000;85.22000
 755.59;   11.520;  -62.720;    0.000;74.24000
 755.85;    2.260;  -72.300;    0.000;74.56000
 756.11;    7.320;  -63.710;    0.000;71.03000
 756.37;   -6.260;  -65.050;    0.000;58.79000
 756.63;   23.320;  -46.260;    0.000;69.58000
 756.89;   -1.160;  -68.760;    0.000;67.60000
 757.15;    4.620;  -63.070;    0.000;67.69000
 757.41;   15.130;  -60.190;    0.000;75.32000
 757.68;    3.680;  -60.550;    0.000;64.23000
 757.94;   10.910;  -62.430;    0.000;73.34000
 758.20;   13.810;  -50.770;    0.000;64.58000
 758.46;  -10.840;  -72.870;    0.000;62.03000
 758.72;    2.650;  -60.630;    0.000;63.28000
 758.98;    5.440;  -67.190;    0.000;72.63000
 759.24;    4.760;  -60.950;    0.000;65.71000
 759.50;    1.360;  -65.080;    0.000;66.44000
 759.76;   10.530;  -52.950;    0.000;63.48000
 760.02;   -2.010;  -68.640;    0.000;66.63000
 760.27;    2.730;  -66.730;    0.000;69.46000
 760.53;   -4.660;  -63.330;    0.000;58.67000
 760.79;    2.950;  -55.120;    0.000;58.07000
 761.05;  -10.950;  -65.560;    0.000;54.61000
 761.31;   -1.130;  -50.350;    0.000;49.22000
 761.57;   -2.980;  -60.250;    0.000;57.27000
 761.83;   -8.020;  -64.180;    0.000;56.16000
 762.09;  -18.160;  -69.040;    0.000;50.88000
 762.35;   -5.250;  -66.860;    0.000;61.61000
 762.61;   -9.380;  -67.680;    0.000;58.30000
 762.87;  -10.570;  -58.700;    0.000;48.13000
 763.13;  -21.150;  -71.060;    0.000;49.91000
 763.39;    5.810;  -47.730;    0.000;53.54000
 763.65;  -11.030;  -71.990;    0.000;60.96000
 763.91;   -6.750;  -68.860;    0.000;62.11000
 764.17;   -9.440;  -60.390;    0.000;50.95000
 764.43;   -7.630;  -62.800;    0.000;55.17000
 764.69;  -15.270;  -70.830;    0.000;55.56000
 764.95;   -0.910;  -57.460;    0.000;56.55000
 765.21;  -22.590;  -75.860;    0.000;53.27000
 765.47;   -2.580;  -58.260;    0.000;55.68000
 765.73;   -6.610;  -64.620;    0.000;58.01000
 765.98;   -9.240;  -50.970;    0.000;41.73000
 766.24;  -19.850;  -70.810;    0.000;50.96000
 766.50;  -10.970;  -70.380;    0.000;59.41000
 766.76;   -9.180;  -65.780;    0.000;56.60000
 767.02;  -17.320;  -70.800;    0.000;53.48000
 767.28;  -16.670;  -68.300;    0.000;51.63000
 767.54;   -8.880;  -62.740;    0.000;53.86000
 767.80;  -11.630;  -64.940;    0.000;53.31000
 768.06;  -10.460;  -54.110;    0.000;43.65000
 768.32;  -11.220;  -65.490;    0.000;54.27000
 768.58;  -20.400;  -66.120;    0.000;45.72000
 768.83;  -24.240;  -64.670;    0.000;40.43000
 769.09;  -25.760;  -63.170;    0.000;37.41000
 769.35;  -22.860;  -65.700;    0.000;42.84000
 769.61;  -18.210;  -57.700;    0.000;39.49000
 769.87;  -18.170;  -67.850;    0.000;49.68000
 770.13;  -14.470;  -57.810;    0.000;43.34000
 770.39;  -29.180;  -80.360;    0.000;51.18000
 770.65;  -16.380;  -65.130;    0.000;48.75000
 770.90;  -30.220;  -68.230;    0.000;38.01000
 771.16;  -23.740;  -68.730;    0.000;44.99000
 771.42;  -23.120;  -66.270;    0.000;43.15000
 771.68;  -19.060;  -66.190;    0.000;47.13000
 771.94;  -24.690;  -65.460;    0.000;40.77000
 772.20;  -27.750;  -69.220;    0.000;41.47000
 772.46;  -27.640;  -75.740;    0.000;48.10000
 772.71;  -23.040;  -60.950;    0.000;37.91000
 772.97;  -14.940;  -60.710;    0.000;45.77000
 773.23;  -23.050;  -62.140;    0.000;39.09000
 773.49;  -14.810;  -62.530;    0.000;47.72000
 773.75;  -21.040;  -61.650;    0.000;40.61000
 774.01;  -32.700;  -75.240;    0.000;42.54000
 774.26;  -35.320;  -71.900;    0.000;36.58000
 774.52;  -27.220;  -61.130;    0.000;33.91000
 774.78;  -31.090;  -67.460;    0.000;36.37000
 775.04;  -17.240;  -50.810;    0.000;33.57000
 775.30;  -34.280;  -66.290;    0.000;32.01000
 775.56;  -35.350;  -73.310;    0.000;37.96000
 775.81;  -27.820;  -66.090;    0.000;38.27000
 776.07;  -34.470;  -75.370;    0.000;40.90000
 776.33;  -28.240;  -68.460;    0.000;40.22000
 776.59;  -33.990;  -66.250;    0.000;32.26000
 776.85;  -32.370;  -65.230;    0.000;32.86000
 777.10;  -27.760;  -66.530;    0.000;38.77000
 777.36;  -31.910;  -76.320;    0.000;44.41000
 777.62;  -29.530;  -71.140;    0.000;41.61000
 777.88;  -38.380;  -67.550;    0.000;29.17000
 778.14;  -31.700;  -71.280;    0.000;39.58000
 778.39;  -28.100;  -59.350;    0.000;31.25000
 778.65;  -36.170;  -76.080;    0.000;39.91000
 778.91;  -35.280;  -69.460;    0.000;34.18000
 779.17;  -26.810;  -65.910;    0.000;39.10000
 779.42;  -40.850;  -70.000;    0.000;29.15000
 779.68;  -42.350;  -72.550;    0.000;30.20000
 779.94;  -36.740;  -61.510;    0.000;24.77000
 780.20;  -36.840;  -68.870;    0.000;32.03000
 780.46;  -37.280;  -64.180;    0.000;26.90000
 780.71;  -36.040;  -62.960;    0.000;26.92000
 780.97;  -33.530;  -64.720;    0.000;31.19000
 781.23;  -39.100;  -78.300;    0.000;39.20000
 781.49;  -36.810;  -56.640;    0.000;19.83000
 781.74;  -36.010;  -74.730;    0.000;38.72001
 782.00;  -36.900;  -75.150;    0.000;38.25000
 782.26;  -39.550;  -68.030;    0.000;28.48000
 782.52;  -39.770;  -62.660;    0.000;22.89000
 782.77;  -38.560;  -68.100;    0.000;29.54000
 783.03;  -44.450;  -69.130;    0.000;24.68000
 783.29;  -40.260;  -71.240;    0.000;30.98000
 783.54;  -31.450;  -62.780;    0.000;31.33000
 783.80;  -32.110;  -68.050;    0.000;35.94000
 784.06;  -37.440;  -63.550;    0.000;26.11000
 784.32;  -44.430;  -72.520;    0.000;28.09000
 784.57;  -14.870;  -47.820;    0.000;32.95000
 784.83;  -47.090;  -76.230;    0.000;29.14000
 785.09;  -51.610;  -76.220;    0.000;24.61000
 785.34;  -39.650;  -72.440;    0.000;32.79000
 785.60;  -36.640;  -59.580;    0.000;22.94000
 785.86;  -42.210;  -71.820;    0.000;29.61000
 786.12;  -32.860;  -61.570;    0.000;28.71000
 786.37;  -37.600;  -65.600;    0.000;28.00000
 786.63;  -51.040;  -71.170;    0.000;20.13000
 786.89;  -41.100;  -68.790;    0.000;27.69000
 787.14;  -36.800;  -54.860;    0.000;18.06000
 787.40;  -44.820;  -71.540;    0.000;26.72000
 787.66;  -43.450;  -65.770;    0.000;22.32000
 787.91;  -28.080;  -52.860;    0.000;24.78000
 788.17;  -44.650;  -65.710;    0.000;21.06000
 788.43;  -44.320;  -73.180;    0.000;28.86000
 788.68;  -43.330;  -71.660;    0.000;28.33000
 788.94;  -46.710;  -74.750;    0.000;28.04000
 789.20;  -39.540;  -64.840;    0.000;25.30000
 789.45;  -55.660;  -74.230;    0.000;18.57000
 789.71;  -45.670;  -67.010;    0.000;21.34000
 789.97;  -33.440;  -63.030;    0.000;29.59000
 790.22;  -49.070;  -65.710;    0.000;16.64000
 790.48;  -48.330;  -74.810;    0.000;26.48000
 790.74;  -41.730;  -63.640;    0.000;21.91000
 790.99;  -51.200;  -72.490;    0.000;21.29000
 791.25;  -40.000;  -64.710;    0.000;24.71000
 791.51;  -52.480;  -73.530;    0.000;21.05000
 791.76;  -41.640;  -59.650;    0.000;18.01000
 792.02;  -46.480;  -74.710;    0.000;28.23000
 792.27;  -34.540;  -54.830;    0.000;20.29000
 792.53;  -48.360;  -68.030;    0.000;19.67000
 792.79;  -46.650;  -66.160;    0.000;19.51000
 793.04;  -48.580;  -68.920;    0.000;20.34000
 793.30;  -46.960;  -70.820;    0.000;23.86000
 793.56;  -53.660;  -75.870;    0.000;22.21000
 793.81;  -29.180;  -50.310;    0.000;21.13000
 794.07;  -48.330;  -79.000;    0.000;30.67000
 794.32;  -46.760;  -65.900;    0.000;19.14000
 794.58;  -55.160;  -77.010;    0.000;21.85000
 794.84;  -49.810;  -60.880;    0.000;11.07000
 795.09;  -40.530;  -69.020;    0.000;28.49000
 795.35;  -42.030;  -61.980;    0.000;19.95000
 795.60;  -45.080;  -70.560;    0.000;25.48000
 795.86;  -42.900;  -63.860;    0.000;20.96000
 796.12;  -55.060;  -78.510;    0.000;23.45000
 796.37;  -55.120;  -68.490;    0.000;13.37000
 796.63;  -57.530;  -69.590;    0.000;12.06000
 796.88;  -52.460;  -65.560;    0.000;13.10000
 797.14;  -44.310;  -70.280;    0.000;25.97000
 797.39;  -39.930;  -65.640;    0.000;25.71000
 797.65;  -46.180;  -72.970;    0.000;26.79000
 797.91;  -49.530;  -73.160;    0.000;23.63000
 798.16;  -49.420;  -74.870;    0.000;25.45000
 798.42;  -52.720;  -70.790;    0.000;18.07000
 798.67;  -53.100;  -79.900;    0.000;26.80000
 798.93;  -49.090;  -66.230;    0.000;17.14000
 799.18;  -63.910;  -75.680;    0.000;11.77000
 799.44;  -56.610;  -66.210;    0.000; 9.60000
 799.69;  -55.650;  -73.250;    0.000;17.60000
 799.95;  -52.530;  -73.750;    0.000;21.22000
 800.21;  -56.460;  -76.850;    0.000;20.39000
 800.46;  -36.090;  -51.900;    0.000;15.81000
 800.72;  -61.610;  -71.510;    0.000; 9.90000
 800.97;  -55.160;  -72.510;    0.000;17.35000
 801.23;  -54.430;  -80.470;    0.000;26.04000
 801.48;  -60.240;  -76.540;    0.000;16.30000
 801.74;  -59.730;  -74.340;    0.000;14.61000
 801.99;  -50.510;  -63.730;    0.000;13.22000
 802.25;  -59.870;  -70.040;    0.000;10.17000
 802.50;  -49.690;  -65.610;    0.000;15.92000
 802.76;  -51.030;  -72.120;    0.000;21.09000
 803.01;  -54.750;  -74.290;    0.000;19.54000
 803.27;  -60.480;  -73.240;    0.000;12.76000
 803.52;  -54.130;  -60.520;    0.000; 6.39000
 803.78;  -50.930;  -66.200;    0.000;15.27000
 804.03;  -47.870;  -59.220;    0.000;11.35000
 804.29;  -64.950;  -80.530;    0.000;15.58000
 804.54;  -56.500;  -66.360;    0.000; 9.86000
 804.80;  -56.530;  -75.680;    0.000;19.15000
 805.05;  -54.520;  -69.490;    0.000;14.97000
 805.31;  -51.100;  -66.970;    0.000;15.87000
 805.56;  -48.350;  -58.470;    0.000;10.12000
 805.82;  -69.650;  -79.550;    0.000; 9.90000
 806.07;  -54.170;  -62.310;    0.000; 8.14000
 806.33;  -63.860;  -76.230;    0.000;12.37000
 806.58;  -57.850;  -74.560;    0.000;16.71000
 806.84;  -50.220;  -69.680;    0.000;19.46000
 807.09;  -55.500;  -67.630;    0.000;12.13000
 807.34;  -60.270;  -76.660;    0.000;16.39000
 807.60;  -47.690;  -58.680;    0.000;10.99000
 807.85;  -50.890;  -73.670;    0.000;22.78000
 808.11;  -52.670;  -69.550;    0.000;16.88000
 808.36;  -57.100;  -70.980;    0.000;13.88000
 808.62;  -49.710;  -71.470;    0.000;21.76000
 808.87;  -49.750;  -74.120;    0.000;24.37000
 809.13;  -53.730;  -74.600;    0.000;20.87000
 809.38;  -46.020;  -66.100;    0.000;20.08000
 809.63;  -55.880;  -67.340;    0.000;11.46000
 809.89;  -50.540;  -70.460;    0.000;19.92000
 810.14;  -59.360;  -68.440;    0.000; 9.08000
 810.40;  -54.600;  -76.650;    0.000;22.05000
 810.65;  -48.580;  -67.160;    0.000;18.58000
 810.91;  -65.380;  -74.900;    0.000; 9.52000
 811.16;  -50.430;  -63.330;    0.000;12.90000
 811.41;  -56.390;  -72.490;    0.000;16.10000
 811.67;  -63.520;  -74.880;    0.000;11.36000
 811.92;  -56.410;  -68.170;    0.000;11.76000
 812.18;  -46.710;  -67.550;    0.000;20.84000
 812.43;  -57.730;  -76.000;    0.000;18.27000
 812.68;  -55.050;  -66.340;    0.000;11.29000
 812.94;  -60.520;  -71.130;    0.000;10.61000
 813.19;  -57.320;  -71.760;    0.000;14.44000
 813.45;  -41.590;  -50.730;    0.000; 9.14000
 813.70;  -52.150;  -72.270;    0.000;20.12000
 813.95;  -51.050;  -74.870;    0.000;23.82000
 814.21;  -56.530;  -61.840;    0.000; 5.31000
 814.46;  -69.260;  -74.680;    0.000; 5.42000
 814.71;  -67.320;  -74.920;    0.000; 7.60000
 814.97;  -64.570;  -79.920;    0.000;15.35000
 815.22;  -62.340;  -71.060;    0.000; 8.72000
 815.48;  -64.730;  -77.050;    0.000;12.32000
 815.73;  -52.350;  -64.440;    0.000;12.09000
 815.98;  -64.000;  -78.160;    0.000;14.16000
 816.24;  -59.510;  -70.740;    0.000;11.23000
 816.49;  -58.880;  -70.330;    0.000;11.45000
 816.74;  -58.420;  -68.280;    0.000; 9.86000
 817.00;  -44.930;  -60.660;    0.000;15.73000
 817.25;  -56.670;  -70.740;    0.000;14.07000
 817.50;  -61.020;  -73.190;    0.000;12.17000
 817.76;  -61.930;  -71.160;    0.000; 9.23000
 818.01;  -67.110;  -80.910;    0.000;13.80000
 818.26;  -60.150;  -69.950;    0.000; 9.80000
 818.52;  -64.390;  -74.150;    0.000; 9.76000
 818.77;  -57.120;  -73.060;    0.000;15.94000
 819.02;   43.880;   29.560;    0.000;14.32000
 819.28;  -52.140;  -64.620;    0.000;12.48000
 819.53;  -64.130;  -79.640;    0.000;15.51000
 819.78;  -55.990;  -63.410;    0.000; 7.42000
 820.04;  -57.550;  -80.400;    0.000;22.85000
 820.29;  -65.140;  -69.270;    0.000; 4.13000
 820.54;  -60.680;  -72.870;    0.000;12.19000
 820.79;  -52.330;  -63.880;    0.000;11.55000
 821.05;  -70.330;  -78.920;    0.000; 8.59000
 821.30;  -49.070;  -57.000;    0.000; 7.93000
 821.55;  -50.840;  -67.530;    0.000;16.69000
 821.81;  -62.910;  -65.110;    0.000; 2.20000
 822.06;  -66.290;  -69.700;    0.000; 3.41000
 822.31;  -44.930;  -54.340;    0.000; 9.41000
 822.56;  -68.280;  -77.970;    0.000; 9.69000
 822.82;  -65.400;  -69.810;    0.000; 4.41000
 823.07;  -71.980;  -89.380;    0.000;17.39999
 823.32;  -71.270;  -75.860;    0.000; 4.59000
 823.58;  -66.760;  -70.420;    0.000; 3.66000
 823.83;  -63.300;  -70.980;    0.000; 7.68000
 824.08;  -61.300;  -78.660;    0.000;17.36000
 824.33;  -68.400;  -75.510;    0.000; 7.11000
 824.59;  -68.790;  -83.240;    0.000;14.45000
 824.84;  -65.260;  -69.990;    0.000; 4.73000
 825.09;  -63.930;  -83.730;    0.000;19.80000
 825.34;  -65.700;  -74.630;    0.000; 8.93000
 825.60;  -68.050;  -84.950;    0.000;16.89999
 825.85;  -65.100;  -74.770;    0.000; 9.67000
 826.10;  -75.550;  -85.230;    0.000; 9.68000
 826.35;  -62.930;  -69.940;    0.000; 7.01000
 826.61;  -68.050;  -80.400;    0.000;12.35000
 826.86;  -68.700;  -79.490;    0.000;10.79000
 827.11;  -71.530;  -86.280;    0.000;14.75000
 827.36;  -72.730;  -71.910;    0.000;-0.82000
 827.61;  -72.120;  -84.850;    0.000;12.73000
 827.87;  -66.100;  -71.570;    0.000; 5.47000
 828.12;  -67.110;  -78.830;    0.000;11.72000
 828.37;  -65.220;  -68.330;    0.000; 3.11000
 828.62;  -66.170;  -77.270;    0.000;11.10000
 828.88;  -57.660;  -60.210;    0.000; 2.55000
 829.13;  -61.240;  -70.740;    0.000; 9.50000
 829.38;  -68.910;  -69.280;    0.000; 0.37000
 829.63;  -72.430;  -83.630;    0.000;11.20000
 829.88;  -68.410;  -69.950;    0.000; 1.53999
 830.14;  -70.310;  -81.910;    0.000;11.60001
 830.39;  -56.610;  -58.230;    0.000; 1.62000
 830.64;  -76.630;  -82.670;    0.000; 6.04000
 830.89;  -58.900;  -62.930;    0.000; 4.03000
 831.14;  -68.790;  -71.790;    0.000; 3.00000
 831.39;  -76.260;  -73.460;    0.000;-2.80000
 831.65;  -74.870;  -85.810;    0.000;10.93999
 831.90;  -75.590;  -75.250;    0.000;-0.34000
 832.15;  -71.470;  -75.760;    0.000; 4.29000
 832.40;  -60.620;  -68.560;    0.000; 7.94000
 832.65;  -74.300;  -76.110;    0.000; 1.81000
 832.90;  -68.810;  -74.690;    0.000; 5.88000
 833.16;  -70.580;  -72.190;    0.000; 1.61000
 833.41;  -68.680;  -74.650;    0.000; 5.97000
 833.66;  -77.540;  -75.930;    0.000;-1.61000
 833.91;  -61.770;  -67.900;    0.000; 6.13000
 834.16;  -81.050;  -86.950;    0.000; 5.89999
 834.41;  -64.320;  -77.320;    0.000;13.00000
 834.66;  -73.940;  -80.900;    0.000; 6.96000
 834.92;  -67.050;  -78.390;    0.000;11.34000
 835.17;  -73.350;  -83.210;    0.000; 9.86000
 835.42;  -78.860;  -71.510;    0.000;-7.35000
 835.67;  -70.880;  -72.580;    0.000; 1.70000
 835.92;  -72.650;  -66.140;    0.000;-6.51000
 836.17;  -73.380;  -85.970;    0.000;12.59000
 836.42;  -69.960;  -76.440;    0.000; 6.48000
 836.67;  -70.600;  -84.830;    0.000;14.23000
 836.93;  -71.900;  -73.590;    0.000; 1.68999
 837.18;  -64.270;  -72.250;    0.000; 7.98000
 837.43;  -68.790;  -78.260;    0.000; 9.47000
 837.68;  -67.410;  -82.050;    0.000;14.64000
 837.93;  -70.500;  -76.650;    0.000; 6.15000
 838.18;  -71.890;  -83.090;    0.000;11.20000
 838.43;  -74.550;  -77.150;    0.000; 2.60000
 838.68;  -77.720;  -79.940;    0.000; 2.22000
 838.93;  -76.550;  -79.860;    0.000; 3.31000
 839.18;  -69.590;  -78.450;    0.000; 8.86000
 839.43;  -68.940;  -61.670;    0.000;-7.27000
 839.69;  -81.150;  -86.230;    0.000; 5.08000
 839.94;  -79.970;  -73.790;    0.000;-6.18000
 840.19;  -72.890;  -77.230;    0.000; 4.34000
 840.44;  -63.890;  -72.120;    0.000; 8.23000
 840.69;  -64.850;  -81.760;    0.000;16.91000
 840.94;  -67.550;  -66.470;    0.000;-1.08000
 841.19;  -63.170;  -64.420;    0.000; 1.25000
 841.44;  -62.090;  -68.610;    0.000; 6.52000
 841.69;  -64.540;  -64.030;    0.000;-0.51000
 841.94;  -70.290;  -75.480;    0.000; 5.19000
 842.19;  -70.850;  -83.640;    0.000;12.79000
 842.44;  -70.650;  -85.160;    0.000;14.51000
 842.69;  -73.590;  -77.660;    0.000; 4.07001
 842.94;  -73.740;  -78.190;    0.000; 4.45000
 843.19;  -75.410;  -78.290;    0.000; 2.88000
 843.44;  -74.160;  -75.980;    0.000; 1.82000
 843.69;  -75.300;  -86.680;    0.000;11.38000
 843.94;  -36.730;  -39.320;    0.000; 2.59000
 844.19;  -79.600;  -86.460;    0.000; 6.86000
 844.44;  -55.030;  -55.430;    0.000; 0.40000
 844.69;  -74.360;  -79.810;    0.000; 5.45000
 844.95;  -63.530;  -73.690;    0.000;10.16000
 845.20;  -83.440;  -89.580;    0.000; 6.14000
 845.45;  -60.430;  -62.840;    0.000; 2.41000
 845.70;  -71.990;  -79.910;    0.000; 7.92001
 845.95;  -77.330;  -67.470;    0.000;-9.86000
 846.20;  -67.260;  -81.520;    0.000;14.25999
 846.45;  -71.350;  -76.240;    0.000; 4.89000
 846.70;  -78.020;  -83.210;    0.000; 5.19000
 846.95;  -80.810;  -72.270;    0.000;-8.54000
 847.20;  -76.970;  -81.890;    0.000; 4.92000
 847.44;  -53.790;  -55.120;    0.000; 1.33000
 847.69;  -76.300;  -84.720;    0.000; 8.42000
 847.94;  -64.860;  -67.830;    0.000; 2.97000
 848.19;  -78.580;  -79.830;    0.000; 1.25000
 848.44;  -63.780;  -67.870;    0.000; 4.09000
 848.69;  -79.320;  -78.940;    0.000;-0.38000
 848.94;  -69.540;  -68.220;    0.000;-1.32000
 849.19;  -70.900;  -80.140;    0.000; 9.24000
 849.44;  -73.970;  -72.650;    0.000;-1.32000
 849.69;  -78.300;  -71.590;    0.000;-6.71001
 849.94;  -72.800;  -76.930;    0.000; 4.13000
 850.19;  -66.170;  -73.360;    0.000; 7.19000
 850.44;  -72.660;  -66.290;    0.000;-6.37000
 850.69;  -82.550;  -82.280;    0.000;-0.27000
 850.94;  -74.580;  -74.510;    0.000;-0.07000
 851.19;  -74.280;  -79.970;    0.000; 5.69000
 851.44;  -74.740;  -74.230;    0.000;-0.50999
 851.69;  -77.270;  -88.970;    0.000;11.70000
 851.94;  -77.470;  -72.250;    0.000;-5.22000
 852.19;  -80.710;  -76.110;    0.000;-4.60000
 852.44;  -63.180;  -71.950;    0.000; 8.77000
 852.68;  -79.020;  -80.960;    0.000; 1.94000
 852.93;  -65.140;  -68.910;    0.000; 3.77000
 853.18;  -78.030;  -81.380;    0.000; 3.35000
 853.43;  -76.920;  -78.500;    0.000; 1.58000
 853.68;  -71.150;  -81.760;    0.000;10.61000
 853.93;  -64.090;  -64.570;    0.000; 0.48000
 854.18;  -68.260;  -68.640;    0.000; 0.38000
 854.43;  -73.470;  -71.570;    0.000;-1.90000
 854.68;  -78.020;  -81.760;    0.000; 3.74001
 854.93;  -66.180;  -62.170;    0.000;-4.01000
 855.18;  -75.600;  -77.640;    0.000; 2.04000
 855.42;  -65.170;  -66.050;    0.000; 0.88000
 855.67;  -80.600;  -78.320;    0.000;-2.28000
 855.92;  -75.810;  -82.080;    0.000; 6.27000
 856.17;  -71.950;  -75.620;    0.000; 3.67001
 856.42;  -70.420;  -75.370;    0.000; 4.95000
 856.67;  -76.940;  -83.310;    0.000; 6.37000
 856.92;  -71.780;  -76.990;    0.000; 5.21000
 857.17;  -79.090;  -85.010;    0.000; 5.92001
 857.41;  -65.980;  -78.320;    0.000;12.34000
 857.66;  -74.530;  -73.210;    0.000;-1.32000
 857.91;  -69.980;  -66.900;    0.000;-3.08000
 858.16;  -76.090;  -79.660;    0.000; 3.57001
 858.41;  -77.340;  -73.780;    0.000;-3.56000
 858.66;  -78.230;  -75.720;    0.000;-2.51000
 858.91;  -63.030;  -68.300;    0.000; 5.27000
 859.15;  -79.270;  -87.480;    0.000; 8.21001
 859.40;  -63.270;  -62.810;    0.000;-0.46000
 859.65;  -75.720;  -77.170;    0.000; 1.45000
 859.90;  -76.350;  -73.530;    0.000;-2.82000
 860.15;  -77.130;  -77.320;    0.000; 0.19000
 860.40;  -64.790;  -61.790;    0.000;-3.00000
 860.64;  -68.210;  -74.900;    0.000; 6.69000
 860.89;  -77.320;  -74.710;    0.000;-2.61000
 861.14;  -70.460;  -82.280;    0.000;11.82000
 861.39;  -66.340;  -66.620;    0.000; 0.28001
 861.64;  -77.940;  -83.440;    0.000; 5.50000
 861.88;  -64.970;  -63.350;    0.000;-1.62000
 862.13;  -72.470;  -79.620;    0.000; 7.15000
 862.38;  -74.780;  -72.850;    0.000;-1.93000
 862.63;  -80.150;  -90.030;    0.000; 9.88000
 862.88;  -72.090;  -78.150;    0.000; 6.06001
 863.12;  -68.830;  -78.270;    0.000; 9.43999
 863.37;  -74.860;  -70.270;    0.000;-4.59000
 863.62;  -79.610;  -80.030;    0.000; 0.42000
 863.87;  -87.640;  -77.710;    0.000;-9.93000
 864.12;  -75.450;  -81.170;    0.000; 5.72000
 864.36;  -76.170;  -74.740;    0.000;-1.43000
 864.61;  -73.350;  -80.430;    0.000; 7.08000
 864.86;  -78.870;  -75.370;    0.000;-3.50000
 865.11;  -68.570;  -80.000;    0.000;11.43000
 865.35;  -71.370;  -69.330;    0.000;-2.04000
 865.60;  -76.260;  -80.180;    0.000; 3.92000
 865.85;  -64.420;  -69.460;    0.000; 5.04000
 866.10;  -77.640;  -78.520;    0.000; 0.88000
 866.34;  -74.140;  -70.970;    0.000;-3.17000
 866.59;  -61.570;  -72.940;    0.000;11.37000
 866.84;  -73.800;  -80.580;    0.000; 6.78000
 867.09;  -75.800;  -73.660;    0.000;-2.14000
 867.33;  -70.740;  -80.890;    0.000;10.15000
 867.58;  -71.070;  -79.090;    0.000; 8.02000
 867.83;  -77.110;  -76.030;    0.000;-1.08000
 868.08;  -70.600;  -75.930;    0.000; 5.33000
 868.32;  -78.770;  -77.890;    0.000;-0.88000
 868.57;  -76.110;  -80.570;    0.000; 4.46000
 868.82;  -65.340;  -70.280;    0.000; 4.94000
 869.07;  -84.020;  -88.570;    0.000; 4.55000
 869.31;  -71.080;  -71.860;    0.000; 0.78000
 869.56;  -84.690;  -85.510;    0.000; 0.82000
 869.81;  -73.390;  -69.110;    0.000;-4.28000
 870.05;  -86.030;  -88.690;    0.000; 2.66000
 870.30;  -68.010;  -71.000;    0.000; 2.99000
 870.55;  -72.500;  -73.990;    0.000; 1.49000
 870.80;  -67.690;  -67.800;    0.000; 0.11000
 871.04;  -72.990;  -74.740;    0.000; 1.75000
 871.29;  -72.240;  -71.980;    0.000;-0.25999
 871.54;  -71.090;  -81.420;    0.000;10.33000
 871.78;  -80.810;  -80.770;    0.000;-0.04000
 872.03;  -69.710;  -80.330;    0.000;10.62000
 872.28;  -71.590;  -69.600;    0.000;-1.99000
 872.52;  -66.360;  -82.020;    0.000;15.66000
 872.77;  -71.560;  -71.450;    0.000;-0.11000
 873.02;  -85.390;  -84.180;    0.000;-1.21000
 873.26;  -73.720;  -76.170;    0.000; 2.45000
 873.51;  -70.180;  -72.470;    0.000; 2.29000
 873.76;  -70.810;  -73.320;    0.000; 2.51000
 874.00;  -70.140;  -73.990;    0.000; 3.85000
 874.25;  -77.850;  -81.590;    0.000; 3.74000
 874.50;  -82.030;  -83.150;    0.000; 1.12000
 874.74;  -78.320;  -73.370;    0.000;-4.95000
 874.99;  -83.610;  -84.660;    0.000; 1.05000
 875.24;  -53.540;  -56.740;    0.000; 3.20000
 875.48;  -76.230;  -83.860;    0.000; 7.63000
 875.73;  -77.890;  -76.130;    0.000;-1.76000
 875.98;  -75.630;  -87.110;    0.000;11.48000
 876.22;  -70.290;  -67.050;    0.000;-3.24000
 876.47;  -72.600;  -73.650;    0.000; 1.05000
 876.71;  -70.130;  -72.930;    0.000; 2.80000
 876.96;  -65.440;  -71.230;    0.000; 5.79000
 877.21;  -68.850;  -72.970;    0.000; 4.12000
 877.45;  -79.610;  -90.180;    0.000;10.57000
 877.70;  -70.070;  -75.560;    0.000; 5.49000
 877.95;  -73.990;  -77.820;    0.000; 3.83000
 878.19;  -63.320;  -61.360;    0.000;-1.96000
 878.44;  -74.560;  -81.190;    0.000; 6.63000
 878.68;  -54.270;  -57.170;    0.000; 2.90000
 878.93;  -74.900;  -78.570;    0.000; 3.67000
 879.18;  -68.190;  -62.160;    0.000;-6.03000
 879.42;  -73.180;  -79.490;    0.000; 6.31000
 879.67;  -79.100;  -77.840;    0.000;-1.26000
 879.91;  -64.220;  -69.200;    0.000; 4.98000
 880.16;  -62.670;  -68.380;    0.000; 5.71000
 880.40;  -68.560;  -76.600;    0.000; 8.04000
 880.65;  -70.480;  -68.110;    0.000;-2.37000
 880.90;  -68.150;  -70.920;    0.000; 2.77000
 881.14;  -57.150;  -63.690;    0.000; 6.54000
 881.39;  -73.590;  -79.520;    0.000; 5.93000
 881.63;  -66.450;  -68.090;    0.000; 1.64000
 881.88;  -65.170;  -73.090;    0.000; 7.92000
 882.12;  -70.090;  -68.080;    0.000;-2.00999
 882.37;  -72.050;  -77.030;    0.000; 4.98000
 882.62;  -76.760;  -77.360;    0.000; 0.60000
 882.86;  -67.340;  -78.920;    0.000;11.58000
 883.11;  -66.580;  -70.390;    0.000; 3.81000
 883.35;  -67.040;  -74.500;    0.000; 7.46000
 883.60;  -52.460;  -66.560;    0.000;14.10000
 883.84;  -70.210;  -73.180;    0.000; 2.97000
 884.09;  -68.770;  -70.450;    0.000; 1.68000
 884.33;  -75.960;  -77.520;    0.000; 1.56000
 884.58;  -59.460;  -68.190;    0.000; 8.73000
 884.82;  -81.170;  -79.030;    0.000;-2.14000
 885.07;  -71.010;  -71.510;    0.000; 0.50000
 885.31;  -71.490;  -74.710;    0.000; 3.22000
 885.56;  -57.520;  -64.690;    0.000; 7.17000
 885.80;  -73.280;  -83.130;    0.000; 9.85000
 886.05;  -68.170;  -80.190;    0.000;12.02000
 886.29;  -66.000;  -74.270;    0.000; 8.27000
 886.54;  -66.640;  -72.290;    0.000; 5.65000
 886.78;  -72.890;  -72.100;    0.000;-0.79000
 887.03;  -59.810;  -62.750;    0.000; 2.94000
 887.27;  -55.780;  -62.270;    0.000; 6.49000
 887.52;  -69.670;  -68.600;    0.000;-1.07000
 887.76;  -63.880;  -70.110;    0.000; 6.23000
 888.01;  -66.640;  -72.830;    0.000; 6.19000
 888.25;  -67.510;  -76.670;    0.000; 9.16000
 888.50;  -62.740;  -65.300;    0.000; 2.56000
 888.74;  -62.700;  -73.030;    0.000;10.33000
 888.99;  -66.050;  -68.560;    0.000; 2.50999
 889.23;  -68.410;  -74.740;    0.000; 6.32999
 889.48;  -76.720;  -67.330;    0.000;-9.39000
 889.72;  -62.860;  -65.430;    0.000; 2.57000
 889.97;  -62.340;  -65.610;    0.000; 3.27000
 890.21;  -60.640;  -69.450;    0.000; 8.81000
 890.46;  -54.720;  -61.290;    0.000; 6.57000
 890.70;  -67.510;  -79.650;    0.000;12.14000
 890.94;  -63.300;  -61.400;    0.000;-1.90000
 891.19;  -66.810;  -69.150;    0.000; 2.34000
 891.43;  -50.490;  -57.360;    0.000; 6.87000
 891.68;  -56.140;  -55.550;    0.000;-0.59000
 891.92;  -62.110;  -60.700;    0.000;-1.41000
 892.17;  -65.400;  -66.860;    0.000; 1.46000
 892.41;  -59.580;  -59.720;    0.000; 0.14000
 892.66;  -72.160;  -76.190;    0.000; 4.03000
 892.90;  -39.450;  -40.820;    0.000; 1.37000
 893.14;  -66.510;  -75.130;    0.000; 8.62000
 893.39;  -48.330;  -60.740;    0.000;12.41000
 893.63;  -65.540;  -77.900;    0.000;12.36000
 893.88;  -58.410;  -69.930;    0.000;11.52000
 894.12;  -65.300;  -70.570;    0.000; 5.27000
 894.36;  -59.170;  -57.010;    0.000;-2.16000
 894.61;  -61.390;  -65.570;    0.000; 4.18000
 894.85;  -55.290;  -57.860;    0.000; 2.57000
 895.10;  -55.690;  -63.260;    0.000; 7.57000
 895.34;  -58.580;  -66.190;    0.000; 7.61000
 895.58;  -64.080;  -69.510;    0.000; 5.43000
 895.83;  -57.370;  -58.440;    0.000; 1.07000
 896.07;  -60.130;  -67.190;    0.000; 7.06000
 896.32;  -54.510;  -56.170;    0.000; 1.66000
 896.56;  -54.590;  -71.090;    0.000;16.50000
 896.80;  -59.390;  -60.750;    0.000; 1.36000
 897.05;  -61.960;  -71.180;    0.000; 9.22000
 897.29;  -55.050;  -50.870;    0.000;-4.18000
 897.53;  -63.390;  -67.890;    0.000; 4.50000
 897.78;  -58.290;  -59.750;    0.000; 1.46000
 898.02;  -47.310;  -54.440;    0.000; 7.13000
 898.26;  -61.520;  -60.460;    0.000;-1.06000
 898.51;  -57.750;  -69.080;    0.000;11.33000
 898.75;  -54.940;  -54.110;    0.000;-0.83000
 898.99;  -54.350;  -62.590;    0.000; 8.24000
 899.24;  -47.450;  -50.380;    0.000; 2.93000
 899.48;  -48.610;  -65.060;    0.000;16.45000
 899.73;  -50.740;  -51.990;    0.000; 1.25000
 899.97;  -37.900;  -46.710;    0.000; 8.81000
 900.21;  -35.240;  -46.190;    0.000;10.95000
 900.46;  -44.900;  -42.660;    0.000;-2.24000
 900.70;  -23.240;  -32.140;    0.000; 8.90000
 900.94;  -41.770;  -52.880;    0.000;11.11000
 901.18;  -30.030;  -32.620;    0.000; 2.59000
 901.43;  -28.330;  -49.310;    0.000;20.98000
 901.67;  -35.700;  -40.040;    0.000; 4.34000
 901.91;  -36.380;  -38.500;    0.000; 2.12000
 902.16;  -31.670;  -26.680;    0.000;-4.99000
 902.40;  -28.250;  -25.580;    0.000;-2.67000
 902.64;  -15.390;  -27.800;    0.000;12.41000
 902.89;  -23.380;  -30.210;    0.000; 6.83000
 903.13;  -19.440;  -14.870;    0.000;-4.57000
 903.37;  -11.080;  -27.280;    0.000;16.20000
 903.61;    9.440;    0.170;    0.000; 9.27000
 903.86;    0.720;  -13.960;    0.000;14.68000
 904.10;    4.740;    7.550;    0.000;-2.81000
 904.34;   12.410;    7.360;    0.000; 5.05000
 904.59;   27.670;   19.820;    0.000; 7.85000
 904.83;   33.970;   28.120;    0.000; 5.85000
 905.07;   42.520;   43.760;    0.000;-1.24000
 905.31;   60.530;   52.600;    0.000; 7.93000
 905.56;   78.460;   74.450;    0.000; 4.01000
 905.80;   98.980;   83.880;    0.000;15.10001

