
Integration time [ms]:  10.000
Averaging Nr. [scans]: 100
Smoothing Nr. [pixels]: 0
Data measured with spectrometer [name]: 1307078U2
Wave   ;Sample   ;Dark     ;Reference;Scope Corrected for Dark
[nm]   ;[counts] ;[counts] ;[counts] 

 351.07;   10.750;    1.990;    0.000; 8.76000
 351.37;    9.580;    2.840;    0.000; 6.74000
 351.66;   13.360;    9.940;    0.000; 3.42000
 351.95;   -0.360;   -4.530;    0.000; 4.17000
 352.24;    2.830;  -15.890;    0.000;18.72000
 352.54;   -6.890;  -10.120;    0.000; 3.23000
 352.83;    7.210;    0.130;    0.000; 7.08000
 353.12;   12.730;    2.830;    0.000; 9.90000
 353.42;   -5.500;  -15.300;    0.000; 9.80000
 353.71;   11.000;  -10.820;    0.000;21.82000
 354.00;   11.660;    4.470;    0.000; 7.19000
 354.30;    4.950;   -9.470;    0.000;14.42000
 354.59;   -2.470;   -6.260;    0.000; 3.79000
 354.88;   -1.820;   -7.830;    0.000; 6.01000
 355.17;   -7.070;  -11.980;    0.000; 4.91000
 355.47;   -8.160;  -12.230;    0.000; 4.07000
 355.76;    7.310;   -0.430;    0.000; 7.74000
 356.05;    7.290;   -0.120;    0.000; 7.41000
 356.35;    1.980;  -10.970;    0.000;12.95000
 356.64;   18.080;    4.260;    0.000;13.82000
 356.93;   -4.570;   -5.560;    0.000; 0.99000
 357.22;   18.030;   11.340;    0.000; 6.69000
 357.52;   -3.560;   -5.230;    0.000; 1.67000
 357.81;    9.910;    3.000;    0.000; 6.91000
 358.10;    3.730;  -11.750;    0.000;15.48000
 358.39;    9.550;    3.750;    0.000; 5.80000
 358.69;    4.070;   -2.590;    0.000; 6.66000
 358.98;   -5.610;  -10.110;    0.000; 4.50000
 359.27;    4.550;   -5.380;    0.000; 9.93000
 359.57;   11.140;    5.370;    0.000; 5.77000
 359.86;   -7.450;  -11.540;    0.000; 4.09000
 360.15;   12.910;    2.780;    0.000;10.13000
 360.44;    3.730;  -14.280;    0.000;18.01000
 360.74;    7.530;   -1.840;    0.000; 9.37000
 361.03;    2.890;   -8.680;    0.000;11.57000
 361.32;    0.080;  -10.790;    0.000;10.87000
 361.61;   -1.160;  -11.050;    0.000; 9.89000
 361.91;    4.350;    0.980;    0.000; 3.37000
 362.20;   -7.130;  -11.360;    0.000; 4.23000
 362.49;    7.960;   -6.030;    0.000;13.99000
 362.78;    7.360;   -1.640;    0.000; 9.00000
 363.08;    2.530;   -9.640;    0.000;12.17000
 363.37;    2.960;  -12.520;    0.000;15.48000
 363.66;   12.250;    4.960;    0.000; 7.29000
 363.95;   -1.660;  -13.210;    0.000;11.55000
 364.24;    3.940;   -3.870;    0.000; 7.81000
 364.54;  -10.020;   -4.510;    0.000;-5.51000
 364.83;    0.690;  -11.190;    0.000;11.88000
 365.12;  -11.600;  -14.530;    0.000; 2.93000
 365.41;    4.920;    2.210;    0.000; 2.71000
 365.71;   -2.780;  -12.970;    0.000;10.19000
 366.00;    1.890;  -13.330;    0.000;15.22000
 366.29;  -12.160;  -12.070;    0.000;-0.09000
 366.58;    3.920;   -8.210;    0.000;12.13000
 366.87;    9.590;   -4.330;    0.000;13.92000
 367.17;   16.660;   10.550;    0.000; 6.11000
 367.46;   -3.940;  -15.680;    0.000;11.74000
 367.75;    7.050;   -9.440;    0.000;16.49000
 368.04;    5.750;  -14.310;    0.000;20.06000
 368.34;    4.880;   -3.350;    0.000; 8.23000
 368.63;    0.850;   -5.870;    0.000; 6.72000
 368.92;   12.600;    4.770;    0.000; 7.83000
 369.21;    8.510;   -4.180;    0.000;12.69000
 369.50;   12.640;    6.490;    0.000; 6.15000
 369.80;    6.880;   -9.770;    0.000;16.65000
 370.09;   -3.890;   -3.650;    0.000;-0.24000
 370.38;   -4.730;  -11.370;    0.000; 6.64000
 370.67;   -6.500;  -10.340;    0.000; 3.84000
 370.96;   -0.810;  -10.990;    0.000;10.18000
 371.26;   -0.850;  -10.670;    0.000; 9.82000
 371.55;  -10.060;  -18.820;    0.000; 8.76000
 371.84;   -6.880;   -3.730;    0.000;-3.15000
 372.13;    1.350;   -8.840;    0.000;10.19000
 372.42;    7.990;    1.670;    0.000; 6.32000
 372.71;    8.020;   -5.020;    0.000;13.04000
 373.01;    1.440;   -9.790;    0.000;11.23000
 373.30;  -12.460;  -18.500;    0.000; 6.04000
 373.59;    8.180;    1.490;    0.000; 6.69000
 373.88;    9.640;   -2.930;    0.000;12.57000
 374.17;    7.740;   -3.020;    0.000;10.76000
 374.46;    4.650;  -12.260;    0.000;16.91000
 374.76;   16.100;    9.200;    0.000; 6.90000
 375.05;   10.720;    6.350;    0.000; 4.37000
 375.34;    8.450;   -7.790;    0.000;16.24000
 375.63;    0.630;  -11.110;    0.000;11.74000
 375.92;    1.990;   -5.550;    0.000; 7.54000
 376.21;   -3.360;  -15.000;    0.000;11.64000
 376.51;   -3.660;  -10.860;    0.000; 7.20000
 376.80;    0.090;   -1.600;    0.000; 1.69000
 377.09;   -0.380;  -15.780;    0.000;15.40000
 377.38;    1.340;   -5.020;    0.000; 6.36000
 377.67;    1.100;   -1.550;    0.000; 2.65000
 377.96;   -3.560;   -8.760;    0.000; 5.20000
 378.25;   -0.710;   -7.470;    0.000; 6.76000
 378.55;   -3.640;  -17.830;    0.000;14.19000
 378.84;   -3.930;  -10.140;    0.000; 6.21000
 379.13;   -5.580;   -3.610;    0.000;-1.97000
 379.42;   -2.970;  -13.640;    0.000;10.67000
 379.71;    5.150;   -9.550;    0.000;14.70000
 380.00;    8.580;    4.600;    0.000; 3.98000
 380.29;   -7.680;  -20.900;    0.000;13.22000
 380.59;   -0.860;  -13.550;    0.000;12.69000
 380.88;   -7.950;  -11.250;    0.000; 3.30000
 381.17;   -8.060;  -14.120;    0.000; 6.06000
 381.46;    8.340;   -1.490;    0.000; 9.83000
 381.75;    4.220;   -6.720;    0.000;10.94000
 382.04;    5.850;   -6.950;    0.000;12.80000
 382.33;    4.690;   -8.710;    0.000;13.40000
 382.62;   -9.490;  -17.870;    0.000; 8.38000
 382.91;   10.070;   -4.340;    0.000;14.41000
 383.21;   -5.260;  -15.710;    0.000;10.45000
 383.50;  -15.620;  -13.910;    0.000;-1.71000
 383.79;   -2.120;   -7.940;    0.000; 5.82000
 384.08;   -1.250;  -17.080;    0.000;15.83000
 384.37;   -8.660;   -8.960;    0.000; 0.30000
 384.66;   -1.670;   -5.480;    0.000; 3.81000
 384.95;   -6.160;  -18.320;    0.000;12.16000
 385.24;   -8.790;  -10.570;    0.000; 1.78000
 385.53;   -8.470;  -10.020;    0.000; 1.55000
 385.83;   -7.930;  -19.960;    0.000;12.03000
 386.12;    0.740;   -7.370;    0.000; 8.11000
 386.41;  -11.300;  -15.640;    0.000; 4.34000
 386.70;   -1.070;  -22.760;    0.000;21.69000
 386.99;   -0.190;   -5.870;    0.000; 5.68000
 387.28;   14.910;   -9.050;    0.000;23.96000
 387.57;    3.200;   -8.090;    0.000;11.29000
 387.86;  -10.780;  -13.520;    0.000; 2.74000
 388.15;    2.290;  -11.820;    0.000;14.11000
 388.44;   -8.550;  -13.510;    0.000; 4.96000
 388.73;    0.050;   -9.650;    0.000; 9.70000
 389.02;   -7.270;  -12.670;    0.000; 5.40000
 389.31;  -12.080;  -17.780;    0.000; 5.70000
 389.61;    1.650;  -12.580;    0.000;14.23000
 389.90;   -1.510;   -1.550;    0.000; 0.04000
 390.19;   -5.290;  -17.080;    0.000;11.79000
 390.48;    8.490;   -7.260;    0.000;15.75000
 390.77;   -8.360;  -16.370;    0.000; 8.01000
 391.06;    0.030;  -14.890;    0.000;14.92000
 391.35;   -2.350;  -20.660;    0.000;18.31000
 391.64;   10.970;    3.120;    0.000; 7.85000
 391.93;  -11.540;  -27.680;    0.000;16.14000
 392.22;   -4.710;   -4.250;    0.000;-0.46000
 392.51;    7.590;   -0.480;    0.000; 8.07000
 392.80;    8.470;    0.130;    0.000; 8.34000
 393.09;  -10.840;  -17.160;    0.000; 6.32000
 393.38;   -1.950;   -5.590;    0.000; 3.64000
 393.67;   -6.050;  -11.850;    0.000; 5.80000
 393.96;    6.370;   -3.580;    0.000; 9.95000
 394.25;    4.350;   -5.270;    0.000; 9.62000
 394.54;   -0.580;  -10.940;    0.000;10.36000
 394.83;  -18.950;  -26.700;    0.000; 7.75000
 395.13;   -3.710;  -17.240;    0.000;13.53000
 395.42;   -1.200;  -12.590;    0.000;11.39000
 395.71;   -0.850;   -4.120;    0.000; 3.27000
 396.00;    0.440;   -6.090;    0.000; 6.53000
 396.29;    5.580;   -2.370;    0.000; 7.95000
 396.58;   -7.270;  -14.700;    0.000; 7.43000
 396.87;   -3.620;  -12.070;    0.000; 8.45000
 397.16;   -3.530;  -17.540;    0.000;14.01000
 397.45;   -3.320;   -9.060;    0.000; 5.74000
 397.74;   -6.040;  -14.860;    0.000; 8.82000
 398.03;   -4.790;  -11.180;    0.000; 6.39000
 398.32;  -13.050;  -21.950;    0.000; 8.90000
 398.61;   -4.640;  -13.140;    0.000; 8.50000
 398.90;   -2.580;  -10.560;    0.000; 7.98000
 399.19;   -1.150;   -7.320;    0.000; 6.17000
 399.48;   -5.270;  -15.870;    0.000;10.60000
 399.77;    4.500;  -12.280;    0.000;16.78000
 400.06;    3.380;  -14.080;    0.000;17.46000
 400.35;   -2.190;  -10.410;    0.000; 8.22000
 400.64;   -7.760;  -17.960;    0.000;10.20000
 400.93;    6.030;   -6.800;    0.000;12.83000
 401.22;  -15.260;  -17.840;    0.000; 2.58000
 401.51;   -0.200;  -13.020;    0.000;12.82000
 401.80;  -12.360;  -16.350;    0.000; 3.99000
 402.09;   -8.320;  -14.710;    0.000; 6.39000
 402.38;   -2.930;  -16.230;    0.000;13.30000
 402.67;    3.700;   -7.210;    0.000;10.91000
 402.96;    0.620;   -7.580;    0.000; 8.20000
 403.25;   14.820;    5.550;    0.000; 9.27000
 403.54;    3.330;   -7.190;    0.000;10.52000
 403.83;   -6.490;  -11.910;    0.000; 5.42000
 404.12;   -4.640;  -13.410;    0.000; 8.77000
 404.41;    0.380;   -0.210;    0.000; 0.59000
 404.70;   -3.030;  -17.410;    0.000;14.38000
 404.98;    2.040;  -14.010;    0.000;16.05000
 405.27;  -13.330;  -14.400;    0.000; 1.07000
 405.56;   16.240;    4.220;    0.000;12.02000
 405.85;  -12.770;  -15.830;    0.000; 3.06000
 406.14;   -2.600;  -13.630;    0.000;11.03000
 406.43;   -6.470;  -10.620;    0.000; 4.15000
 406.72;    2.820;  -12.290;    0.000;15.11000
 407.01;   -9.980;  -21.100;    0.000;11.12000
 407.30;   -5.070;  -20.190;    0.000;15.12000
 407.59;   -4.390;  -19.810;    0.000;15.42000
 407.88;    1.580;   -8.870;    0.000;10.45000
 408.17;  -14.170;  -17.110;    0.000; 2.94000
 408.46;   14.000;   -4.060;    0.000;18.06000
 408.75;    4.330;   -4.650;    0.000; 8.98000
 409.04;   -3.540;  -19.590;    0.000;16.05000
 409.33;   -8.380;  -19.630;    0.000;11.25000
 409.62;    5.530;   -2.110;    0.000; 7.64000
 409.91;   -6.190;  -26.460;    0.000;20.27000
 410.20;   -2.050;   -9.140;    0.000; 7.09000
 410.48;    0.860;   -7.780;    0.000; 8.64000
 410.77;  -10.830;  -13.310;    0.000; 2.48000
 411.06;    1.440;  -11.580;    0.000;13.02000
 411.35;   17.900;    5.610;    0.000;12.29000
 411.64;   -0.970;   -9.610;    0.000; 8.64000
 411.93;   -4.150;  -10.440;    0.000; 6.29000
 412.22;  -12.170;  -19.600;    0.000; 7.43000
 412.51;   -4.490;  -16.220;    0.000;11.73000
 412.80;   -9.810;  -15.400;    0.000; 5.59000
 413.09;   -0.790;  -10.870;    0.000;10.08000
 413.38;   -7.120;  -13.750;    0.000; 6.63000
 413.67;   -8.840;  -21.080;    0.000;12.24000
 413.96;  -22.490;  -31.980;    0.000; 9.49000
 414.24;    4.920;  -19.800;    0.000;24.72000
 414.53;    5.140;  -17.200;    0.000;22.34000
 414.82;    8.730;  -10.120;    0.000;18.85000
 415.11;    3.810;   -0.960;    0.000; 4.77000
 415.40;    4.270;   -8.850;    0.000;13.12000
 415.69;   -8.600;  -15.490;    0.000; 6.89000
 415.98;   -7.640;  -23.990;    0.000;16.35000
 416.27;  -15.550;  -24.270;    0.000; 8.72000
 416.56;    0.230;   -3.280;    0.000; 3.51000
 416.84;   -8.170;  -19.790;    0.000;11.62000
 417.13;   -7.940;  -14.540;    0.000; 6.60000
 417.42;    2.210;   -8.280;    0.000;10.49000
 417.71;    0.560;   -8.120;    0.000; 8.68000
 418.00;    2.740;  -16.780;    0.000;19.52000
 418.29;   -5.570;   -4.550;    0.000;-1.02000
 418.58;   -2.490;  -16.490;    0.000;14.00000
 418.87;   -1.180;  -15.660;    0.000;14.48000
 419.15;   -2.660;  -18.900;    0.000;16.24000
 419.44;   -5.100;  -18.980;    0.000;13.88000
 419.73;   -6.490;  -11.850;    0.000; 5.36000
 420.02;    8.490;   -7.110;    0.000;15.60000
 420.31;  -11.440;  -30.570;    0.000;19.13000
 420.60;    3.640;   -5.040;    0.000; 8.68000
 420.89;  -14.420;  -21.480;    0.000; 7.06000
 421.18;   -0.560;   -9.290;    0.000; 8.73000
 421.46;   -0.150;   -5.340;    0.000; 5.19000
 421.75;   -4.650;  -15.320;    0.000;10.67000
 422.04;  -12.590;  -21.410;    0.000; 8.82000
 422.33;    3.350;    2.320;    0.000; 1.03000
 422.62;   -5.320;  -18.220;    0.000;12.90000
 422.91;  -11.670;  -24.820;    0.000;13.15000
 423.19;  -16.890;  -28.920;    0.000;12.03000
 423.48;   14.070;    0.140;    0.000;13.93000
 423.77;   -9.620;  -18.100;    0.000; 8.48000
 424.06;   -6.170;   -9.180;    0.000; 3.01000
 424.35;  -16.100;  -16.940;    0.000; 0.84000
 424.64;    8.920;   -2.420;    0.000;11.34000
 424.93;  -15.710;  -26.250;    0.000;10.54000
 425.21;   -5.400;  -17.130;    0.000;11.73000
 425.50;    2.190;  -12.130;    0.000;14.32000
 425.79;   -1.270;  -10.680;    0.000; 9.41000
 426.08;   -8.290;  -16.970;    0.000; 8.68000
 426.37;   -2.890;   -9.660;    0.000; 6.77000
 426.65;  -11.000;  -22.930;    0.000;11.93000
 426.94;   -7.970;  -22.840;    0.000;14.87000
 427.23;    3.610;  -15.010;    0.000;18.62000
 427.52;   -8.280;  -11.990;    0.000; 3.71000
 427.81;  -13.630;  -29.120;    0.000;15.49000
 428.10;    3.830;   -4.670;    0.000; 8.50000
 428.38;  -22.710;  -27.520;    0.000; 4.81000
 428.67;    1.900;   -2.590;    0.000; 4.49000
 428.96;  -17.290;  -31.540;    0.000;14.25000
 429.25;   -7.480;  -14.100;    0.000; 6.62000
 429.54;    1.020;  -13.980;    0.000;15.00000
 429.82;   -8.890;   -9.990;    0.000; 1.10000
 430.11;   -5.730;  -17.100;    0.000;11.37000
 430.40;    5.180;  -12.650;    0.000;17.83000
 430.69;   -5.710;  -13.860;    0.000; 8.15000
 430.98;   -1.320;  -21.990;    0.000;20.67000
 431.26;    1.260;   -8.510;    0.000; 9.77000
 431.55;   -2.260;   -6.460;    0.000; 4.20000
 431.84;   -7.330;  -21.790;    0.000;14.46000
 432.13;   -9.480;  -13.900;    0.000; 4.42000
 432.41;   -8.350;  -33.040;    0.000;24.69000
 432.70;   -4.620;  -21.040;    0.000;16.42000
 432.99;    4.730;  -16.870;    0.000;21.60000
 433.28;   -4.800;  -19.660;    0.000;14.86000
 433.57;    0.020;  -10.610;    0.000;10.63000
 433.85;    2.080;  -10.450;    0.000;12.53000
 434.14;  -13.640;  -24.160;    0.000;10.52000
 434.43;    9.140;    1.150;    0.000; 7.99000
 434.72;   -9.510;  -20.670;    0.000;11.16000
 435.00;   -5.130;  -23.620;    0.000;18.49000
 435.29;  -12.020;  -17.490;    0.000; 5.47000
 435.58;   -1.970;   -8.150;    0.000; 6.18000
 435.87;   -9.680;  -25.230;    0.000;15.55000
 436.15;  -10.560;  -22.240;    0.000;11.68000
 436.44;  -11.950;  -20.080;    0.000; 8.13000
 436.73;    3.920;  -15.600;    0.000;19.52000
 437.02;   -5.960;  -19.490;    0.000;13.53000
 437.30;    9.070;   -4.440;    0.000;13.51000
 437.59;   -2.340;  -17.640;    0.000;15.30000
 437.88;   -9.190;   -8.810;    0.000;-0.38000
 438.17;  -18.970;  -28.660;    0.000; 9.69000
 438.45;   -9.440;  -19.800;    0.000;10.36000
 438.74;   -6.150;  -16.400;    0.000;10.25000
 439.03;   -4.530;  -14.480;    0.000; 9.95000
 439.32;  -17.070;  -25.370;    0.000; 8.30000
 439.60;   -8.410;  -22.430;    0.000;14.02000
 439.89;   -7.040;  -18.250;    0.000;11.21000
 440.18;   -9.810;  -20.970;    0.000;11.16000
 440.46;  -19.820;  -29.720;    0.000; 9.90000
 440.75;    5.020;   -6.850;    0.000;11.87000
 441.04;  -16.450;  -28.000;    0.000;11.55000
 441.33;  -11.790;  -17.230;    0.000; 5.44000
 441.61;  -10.620;  -28.680;    0.000;18.06000
 441.90;    3.740;    0.830;    0.000; 2.91000
 442.19;  -19.110;  -30.670;    0.000;11.56000
 442.47;   -5.500;  -10.780;    0.000; 5.28000
 442.76;  -12.080;  -22.750;    0.000;10.67000
 443.05;   -8.160;  -21.380;    0.000;13.22000
 443.34;   -7.500;  -30.430;    0.000;22.93000
 443.62;   -2.620;  -17.090;    0.000;14.47000
 443.91;  -15.620;  -22.620;    0.000; 7.00000
 444.20;   13.770;    4.770;    0.000; 9.00000
 444.48;  -16.960;  -24.400;    0.000; 7.44000
 444.77;   20.840;    9.730;    0.000;11.11000
 445.06;  -20.900;  -26.390;    0.000; 5.49000
 445.34;   -9.400;  -12.470;    0.000; 3.07000
 445.63;  -13.570;  -25.530;    0.000;11.96000
 445.92;   19.900;    6.760;    0.000;13.14000
 446.21;   -0.750;  -22.450;    0.000;21.70000
 446.49;    0.620;  -14.610;    0.000;15.23000
 446.78;   -2.650;  -11.330;    0.000; 8.68000
 447.07;   -7.300;   -9.930;    0.000; 2.63000
 447.35;  -15.220;  -24.390;    0.000; 9.17000
 447.64;   -6.510;   -9.840;    0.000; 3.33000
 447.93;  -10.980;  -24.630;    0.000;13.65000
 448.21;   -5.130;  -21.700;    0.000;16.57000
 448.50;    0.920;  -23.560;    0.000;24.48000
 448.79;   -7.300;  -20.390;    0.000;13.09000
 449.07;   -4.380;  -12.200;    0.000; 7.82000
 449.36;  -12.150;  -25.580;    0.000;13.43000
 449.65;  -22.480;  -25.970;    0.000; 3.49000
 449.93;   -9.480;   -9.050;    0.000;-0.43000
 450.22;   -5.940;  -21.560;    0.000;15.62000
 450.51;  -18.810;  -25.890;    0.000; 7.08000
 450.79;  -15.300;  -27.730;    0.000;12.43000
 451.08;   -7.560;  -16.520;    0.000; 8.96000
 451.36;   -6.710;  -14.260;    0.000; 7.55000
 451.65;   -4.380;  -14.880;    0.000;10.50000
 451.94;  -22.870;  -29.220;    0.000; 6.35000
 452.22;  -18.660;  -25.260;    0.000; 6.60000
 452.51;  -21.050;  -19.340;    0.000;-1.71000
 452.80;   -9.990;  -25.310;    0.000;15.32000
 453.08;  -18.850;  -24.790;    0.000; 5.94000
 453.37;    6.690;   -7.670;    0.000;14.36000
 453.66;  -14.100;  -23.540;    0.000; 9.44000
 453.94;   -1.260;  -22.460;    0.000;21.20000
 454.23;  -14.160;  -32.840;    0.000;18.68000
 454.51;    2.690;  -13.500;    0.000;16.19000
 454.80;  -15.430;  -32.380;    0.000;16.95000
 455.09;  -11.740;  -18.230;    0.000; 6.49000
 455.37;   -1.110;   -9.480;    0.000; 8.37000
 455.66;   -3.790;  -17.710;    0.000;13.92000
 455.95;   -5.300;   -9.720;    0.000; 4.42000
 456.23;   -3.880;  -12.820;    0.000; 8.94000
 456.52;  -19.670;  -24.840;    0.000; 5.17000
 456.80;  -11.550;  -27.870;    0.000;16.32000
 457.09;  -17.620;  -29.660;    0.000;12.04000
 457.38;    7.300;   -4.090;    0.000;11.39000
 457.66;   -5.980;  -22.610;    0.000;16.63000
 457.95;  -12.920;  -23.380;    0.000;10.46000
 458.23;  -19.810;  -25.240;    0.000; 5.43000
 458.52;    1.770;  -13.190;    0.000;14.96000
 458.81;  -11.050;  -23.660;    0.000;12.61000
 459.09;   -7.100;  -19.720;    0.000;12.62000
 459.38;  -12.770;  -30.970;    0.000;18.20000
 459.66;   -9.160;  -24.540;    0.000;15.38000
 459.95;   -6.610;  -17.730;    0.000;11.12000
 460.23;   -2.710;  -19.520;    0.000;16.81000
 460.52;   -6.110;  -20.510;    0.000;14.40000
 460.81;  -13.090;  -27.310;    0.000;14.22000
 461.09;  -21.210;  -28.620;    0.000; 7.41000
 461.38;   -3.360;  -16.580;    0.000;13.22000
 461.66;  -21.440;  -30.120;    0.000; 8.68000
 461.95;   -5.720;  -21.580;    0.000;15.86000
 462.23;   -0.640;  -15.290;    0.000;14.65000
 462.52;  -11.110;  -33.350;    0.000;22.24000
 462.81;  -17.700;  -34.430;    0.000;16.73000
 463.09;   -3.730;  -22.640;    0.000;18.91000
 463.38;  -10.780;  -34.400;    0.000;23.62000
 463.66;  -15.810;  -25.720;    0.000; 9.91000
 463.95;   -1.950;  -23.300;    0.000;21.35000
 464.23;   -0.580;  -13.770;    0.000;13.19000
 464.52;  -11.770;  -25.790;    0.000;14.02000
 464.80;   -8.970;  -22.270;    0.000;13.30000
 465.09;   -4.870;  -15.500;    0.000;10.63000
 465.38;  -12.370;  -31.170;    0.000;18.80000
 465.66;  -10.700;  -34.180;    0.000;23.48000
 465.95;   -2.690;  -13.170;    0.000;10.48000
 466.23;  -21.870;  -39.810;    0.000;17.94000
 466.52;  -11.440;  -26.140;    0.000;14.70000
 466.80;    3.290;   -9.390;    0.000;12.68000
 467.09;   -9.120;  -22.750;    0.000;13.63000
 467.37;  -11.840;  -18.880;    0.000; 7.04000
 467.66;    3.130;  -16.140;    0.000;19.27000
 467.94;  -11.830;  -24.810;    0.000;12.98000
 468.23;  -10.070;  -19.950;    0.000; 9.88000
 468.51;    2.780;  -11.990;    0.000;14.77000
 468.80;  -18.190;  -24.660;    0.000; 6.47000
 469.08;   -7.540;  -22.650;    0.000;15.11000
 469.37;   -3.630;  -15.420;    0.000;11.79000
 469.66;   -7.790;  -25.130;    0.000;17.34000
 469.94;  -17.470;  -22.920;    0.000; 5.45000
 470.23;   -2.240;  -19.480;    0.000;17.24000
 470.51;  -10.980;  -21.700;    0.000;10.72000
 470.80;    1.400;  -14.170;    0.000;15.57000
 471.08;   -2.140;  -24.980;    0.000;22.84000
 471.37;   -9.230;  -22.870;    0.000;13.64000
 471.65;    7.800;  -11.550;    0.000;19.35000
 471.94;  -18.290;  -37.450;    0.000;19.16000
 472.22;  -13.880;  -30.200;    0.000;16.32000
 472.51;   -7.880;  -28.820;    0.000;20.94000
 472.79;   -7.280;  -18.730;    0.000;11.45000
 473.08;  -16.360;  -26.180;    0.000; 9.82000
 473.36;   -0.070;  -10.910;    0.000;10.84000
 473.64;  -10.760;  -26.000;    0.000;15.24000
 473.93;   -4.700;  -26.520;    0.000;21.82000
 474.21;  -14.570;  -32.440;    0.000;17.87000
 474.50;   -3.230;  -22.240;    0.000;19.01000
 474.78;    2.010;   -6.350;    0.000; 8.36000
 475.07;   -6.560;  -21.020;    0.000;14.46000
 475.35;   -2.630;  -19.560;    0.000;16.93000
 475.64;   -9.270;  -26.260;    0.000;16.99000
 475.92;  -16.760;  -28.450;    0.000;11.69000
 476.21;   -7.670;  -26.200;    0.000;18.53000
 476.49;   -6.150;  -22.820;    0.000;16.67000
 476.78;   -9.650;  -24.020;    0.000;14.37000
 477.06;  -15.250;  -26.290;    0.000;11.04000
 477.35;   -7.800;  -24.950;    0.000;17.15000
 477.63;  -14.430;  -31.450;    0.000;17.02000
 477.91;  -11.760;  -21.250;    0.000; 9.49000
 478.20;  -10.170;  -32.050;    0.000;21.88000
 478.48;   -7.150;  -28.860;    0.000;21.71000
 478.77;  -11.640;  -26.670;    0.000;15.03000
 479.05;   -9.750;  -26.730;    0.000;16.98000
 479.34;   -3.900;  -25.260;    0.000;21.36000
 479.62;   -2.430;  -22.540;    0.000;20.11000
 479.91;   -7.800;  -25.850;    0.000;18.05000
 480.19;    4.860;   -6.410;    0.000;11.27000
 480.47;  -24.340;  -31.670;    0.000; 7.33000
 480.76;  -11.010;  -22.550;    0.000;11.54000
 481.04;   -6.870;  -28.450;    0.000;21.58000
 481.33;    2.290;   -5.690;    0.000; 7.98000
 481.61;   -8.120;  -29.120;    0.000;21.00000
 481.90;   -8.840;  -23.420;    0.000;14.58000
 482.18;   -9.700;  -28.430;    0.000;18.73000
 482.46;   -1.460;  -20.570;    0.000;19.11000
 482.75;  -12.700;  -23.240;    0.000;10.54000
 483.03;  -12.310;  -26.580;    0.000;14.27000
 483.32;  -10.860;  -28.070;    0.000;17.21000
 483.60;    0.170;  -23.380;    0.000;23.55000
 483.88;  -14.940;  -40.750;    0.000;25.81000
 484.17;    3.050;  -20.730;    0.000;23.78000
 484.45;   -7.070;  -27.840;    0.000;20.77000
 484.74;   -1.680;  -23.640;    0.000;21.96000
 485.02;    4.940;  -24.600;    0.000;29.54000
 485.30;    6.700;  -23.730;    0.000;30.43000
 485.59;   -3.890;  -23.620;    0.000;19.73000
 485.87;   26.250;  -12.160;    0.000;38.41000
 486.16;   11.570;  -24.400;    0.000;35.97000
 486.44;    7.080;  -25.040;    0.000;32.12000
 486.72;   10.070;  -33.010;    0.000;43.08000
 487.01;   12.010;  -30.210;    0.000;42.22000
 487.29;   17.450;  -22.520;    0.000;39.97000
 487.58;   32.450;  -14.390;    0.000;46.84000
 487.86;   31.950;  -24.810;    0.000;56.76000
 488.14;   28.690;  -31.580;    0.000;60.27000
 488.43;   38.950;  -32.780;    0.000;71.73000
 488.71;   38.800;  -28.340;    0.000;67.14000
 488.99;   46.380;  -24.200;    0.000;70.58000
 489.28;   49.030;  -21.500;    0.000;70.53000
 489.56;   61.560;  -34.720;    0.000;96.28000
 489.85;   63.530;  -32.510;    0.000;96.04000
 490.13;   77.310;  -28.490;    0.000;105.80000
 490.41;   82.510;  -18.750;    0.000;101.26000
 490.70;   92.820;  -31.500;    0.000;124.32000
 490.98;  104.560;  -28.680;    0.000;133.24000
 491.26;  113.450;  -29.990;    0.000;143.44000
 491.55;  133.010;  -30.740;    0.000;163.74999
 491.83;  154.270;  -18.200;    0.000;172.47001
 492.11;  164.930;  -17.410;    0.000;182.33999
 492.40;  178.470;  -23.950;    0.000;202.42000
 492.68;  212.010;  -15.510;    0.000;227.51999
 492.96;  207.420;  -28.490;    0.000;235.91000
 493.25;  236.340;  -23.660;    0.000;260.00000
 493.53;  248.350;  -34.580;    0.000;282.93001
 493.81;  274.000;  -31.170;    0.000;305.17000
 494.10;  303.040;  -24.100;    0.000;327.14001
 494.38;  335.600;  -21.310;    0.000;356.91001
 494.66;  358.860;  -30.330;    0.000;389.18999
 494.95;  396.870;  -28.360;    0.000;425.23000
 495.23;  421.950;  -25.800;    0.000;447.75001
 495.51;  461.080;  -28.470;    0.000;489.54999
 495.80;  486.880;  -39.880;    0.000;526.76001
 496.08;  525.150;  -15.720;    0.000;540.87002
 496.36;  581.440;  -11.590;    0.000;593.03000
 496.65;  594.690;  -24.500;    0.000;619.19000
 496.93;  635.590;  -25.490;    0.000;661.08003
 497.21;  688.150;  -25.560;    0.000;713.71002
 497.50;  737.880;  -21.360;    0.000;759.24001
 497.78;  782.270;  -22.570;    0.000;804.84002
 498.06;  808.310;  -29.040;    0.000;837.35000
 498.34;  884.600;  -26.730;    0.000;911.32998
 498.63;  916.540;  -33.570;    0.000;950.10998
 498.91;  993.120;  -23.580;    0.000;1016.70000
 499.19; 1035.850;  -26.700;    0.000;1062.54998
 499.48; 1106.690;  -25.520;    0.000;1132.20994
 499.76; 1150.820;  -25.150;    0.000;1175.96995
 500.04; 1225.280;  -28.270;    0.000;1253.55003
 500.32; 1299.520;  -14.580;    0.000;1314.10002
 500.61; 1347.590;  -32.320;    0.000;1379.90997
 500.89; 1419.000;  -30.760;    0.000;1449.76000
 501.17; 1474.370;  -30.710;    0.000;1505.07999
 501.46; 1559.650;  -22.350;    0.000;1582.00002
 501.74; 1657.920;  -18.090;    0.000;1676.01004
 502.02; 1741.750;  -15.300;    0.000;1757.05000
 502.30; 1807.440;  -18.010;    0.000;1825.44994
 502.59; 1853.180;  -38.280;    0.000;1891.46005
 502.87; 1947.010;  -29.970;    0.000;1976.98001
 503.15; 2038.800;  -35.630;    0.000;2074.43005
 503.43; 2118.810;  -22.000;    0.000;2140.81006
 503.72; 2219.990;  -30.040;    0.000;2250.02999
 504.00; 2315.480;  -33.470;    0.000;2348.94998
 504.28; 2397.500;  -28.460;    0.000;2425.96000
 504.56; 2504.020;  -28.300;    0.000;2532.32002
 504.85; 2601.950;  -19.360;    0.000;2621.30995
 505.13; 2677.670;  -29.910;    0.000;2707.57992
 505.41; 2801.870;  -30.150;    0.000;2832.02012
 505.69; 2892.090;  -24.400;    0.000;2916.49009
 505.98; 2988.880;  -24.150;    0.000;3013.02988
 506.26; 3113.590;  -22.980;    0.000;3136.57009
 506.54; 3194.950;  -35.460;    0.000;3230.40995
 506.82; 3296.670;  -24.120;    0.000;3320.78992
 507.11; 3399.920;  -31.550;    0.000;3431.46992
 507.39; 3517.030;  -41.840;    0.000;3558.87003
 507.67; 3618.580;  -27.870;    0.000;3646.45008
 507.95; 3757.660;  -32.940;    0.000;3790.59991
 508.23; 3873.120;  -35.230;    0.000;3908.35012
 508.52; 3969.910;  -24.250;    0.000;3994.15991
 508.80; 4067.920;  -31.510;    0.000;4099.42992
 509.08; 4215.160;  -19.620;    0.000;4234.78016
 509.36; 4306.700;  -23.880;    0.000;4330.58019
 509.65; 4419.050;  -23.990;    0.000;4443.03980
 509.93; 4563.200;  -30.950;    0.000;4594.15020
 510.21; 4672.520;  -19.850;    0.000;4692.37002
 510.49; 4781.970;  -30.360;    0.000;4812.33022
 510.77; 4897.910;  -34.430;    0.000;4932.34016
 511.06; 5016.070;  -34.890;    0.000;5050.95982
 511.34; 5146.230;  -27.620;    0.000;5173.84998
 511.62; 5281.370;  -28.950;    0.000;5310.32012
 511.90; 5375.760;  -21.870;    0.000;5397.62977
 512.18; 5487.870;  -24.880;    0.000;5512.75012
 512.47; 5595.060;  -18.980;    0.000;5614.04006
 512.75; 5695.180;  -38.220;    0.000;5733.40018
 513.03; 5850.130;  -23.360;    0.000;5873.48988
 513.31; 5960.970;  -33.010;    0.000;5993.98021
 513.59; 6084.220;  -27.410;    0.000;6111.63021
 513.87; 6209.470;  -27.310;    0.000;6236.78021
 514.16; 6311.040;  -25.240;    0.000;6336.28004
 514.44; 6440.790;  -24.030;    0.000;6464.82004
 514.72; 6559.510;  -25.030;    0.000;6584.53977
 515.00; 6677.300;  -17.810;    0.000;6695.10980
 515.28; 6783.180;  -19.280;    0.000;6802.46018
 515.56; 6889.670;  -27.990;    0.000;6917.65992
 515.85; 6978.510;  -24.510;    0.000;7003.01977
 516.13; 7116.380;  -20.170;    0.000;7136.54988
 516.41; 7246.300;  -39.440;    0.000;7285.73980
 516.69; 7358.440;  -26.690;    0.000;7385.12994
 516.97; 7497.750;  -20.650;    0.000;7518.40000
 517.25; 7579.430;  -27.620;    0.000;7607.05018
 517.54; 7713.560;  -14.870;    0.000;7728.43006
 517.82; 7808.780;  -25.560;    0.000;7834.33978
 518.10; 7937.610;  -12.750;    0.000;7950.35986
 518.38; 8051.940;  -29.460;    0.000;8081.39994
 518.66; 8105.030;  -13.080;    0.000;8118.10979
 518.94; 8216.980;  -33.270;    0.000;8250.25047
 519.22; 8362.140;  -12.810;    0.000;8374.94965
 519.51; 8438.490;  -31.490;    0.000;8469.98023
 519.79; 8538.420;  -30.480;    0.000;8568.89992
 520.07; 8629.000;  -26.870;    0.000;8655.87000
 520.35; 8746.010;  -26.720;    0.000;8772.72976
 520.63; 8828.470;  -23.060;    0.000;8851.52973
 520.91; 8931.980;  -26.770;    0.000;8958.75047
 521.19; 9066.940;  -38.370;    0.000;9105.31043
 521.47; 9130.010;  -34.040;    0.000;9164.04977
 521.75; 9236.620;  -18.800;    0.000;9255.42012
 522.04; 9343.210;  -20.950;    0.000;9364.15996
 522.32; 9439.920;  -28.850;    0.000;9468.76992
 522.60; 9559.450;   -2.200;    0.000;9561.65020
 522.88; 9626.170;  -27.480;    0.000;9653.64992
 523.16; 9693.890;  -30.510;    0.000;9724.39965
 523.44; 9801.010;  -14.660;    0.000;9815.66977
 523.72; 9888.000;  -14.230;    0.000;9902.23000
 524.00; 9996.990;  -19.990;    0.000;10016.98023
 524.28;10069.780;  -13.820;    0.000;10083.60027
 524.57;10172.120;  -19.210;    0.000;10191.33012
 524.85;10244.590;  -18.070;    0.000;10262.65984
 525.13;10318.990;   -7.880;    0.000;10326.87023
 525.41;10403.160;  -15.200;    0.000;10418.36016
 525.69;10504.080;  -22.730;    0.000;10526.81008
 525.97;10609.000;  -11.300;    0.000;10620.30000
 526.25;10653.420;  -30.900;    0.000;10684.31992
 526.53;10757.520;  -24.080;    0.000;10781.59953
 526.81;10808.910;  -32.680;    0.000;10841.59016
 527.09;10855.140;  -18.610;    0.000;10873.74965
 527.37;10993.370;  -33.990;    0.000;11027.36012
 527.65;11068.220;  -20.330;    0.000;11088.54973
 527.93;11144.000;  -30.530;    0.000;11174.53000
 528.22;11196.090;  -21.370;    0.000;11217.45984
 528.50;11300.430;  -30.810;    0.000;11331.23969
 528.78;11360.010;  -19.390;    0.000;11379.39977
 529.06;11433.280;  -18.110;    0.000;11451.39027
 529.34;11520.690;  -12.610;    0.000;11533.30043
 529.62;11540.380;  -25.580;    0.000;11565.95988
 529.90;11682.270;  -18.220;    0.000;11700.48953
 530.18;11703.540;  -16.900;    0.000;11720.44004
 530.46;11833.130;  -12.490;    0.000;11845.61988
 530.74;11905.740;  -16.000;    0.000;11921.74023
 531.02;11956.200;   -8.990;    0.000;11965.19020
 531.30;12021.550;  -17.900;    0.000;12039.44980
 531.58;12080.240;  -22.140;    0.000;12102.38023
 531.86;12142.070;  -16.120;    0.000;12158.19031
 532.14;12210.090;  -14.770;    0.000;12224.85984
 532.42;12293.180;  -15.480;    0.000;12308.65969
 532.70;12356.220;  -15.860;    0.000;12372.07973
 532.98;12418.990;  -16.040;    0.000;12435.03024
 533.26;12479.600;   -9.200;    0.000;12488.79961
 533.54;12517.050;  -13.350;    0.000;12530.39981
 533.82;12613.230;  -12.340;    0.000;12625.57047
 534.10;12659.720;  -20.000;    0.000;12679.71973
 534.38;12779.700;  -16.730;    0.000;12796.43019
 534.66;12844.930;  -19.020;    0.000;12863.94969
 534.94;12848.430;  -15.430;    0.000;12863.85969
 535.22;12931.510;  -25.480;    0.000;12956.98977
 535.50;13017.180;  -16.270;    0.000;13033.44969
 535.78;13037.270;  -35.370;    0.000;13072.63953
 536.06;13123.830;  -21.060;    0.000;13144.89008
 536.34;13142.330;  -27.730;    0.000;13170.06008
 536.62;13238.630;  -21.040;    0.000;13259.66988
 536.90;13288.390;  -23.680;    0.000;13312.06965
 537.18;13343.840;  -20.220;    0.000;13364.05984
 537.46;13368.740;  -32.690;    0.000;13401.43023
 537.74;13455.360;  -25.030;    0.000;13480.39035
 538.02;13514.070;  -23.550;    0.000;13537.62031
 538.30;13618.980;   -6.860;    0.000;13625.84047
 538.58;13620.660;  -30.360;    0.000;13651.02016
 538.86;13705.070;   -6.790;    0.000;13711.86031
 539.14;13719.800;  -24.250;    0.000;13744.04980
 539.42;13775.300;    7.090;    0.000;13768.20980
 539.70;13869.190;  -28.650;    0.000;13897.84043
 539.98;13946.840;   -6.010;    0.000;13952.84984
 540.26;13942.260;  -20.240;    0.000;13962.49977
 540.54;14004.290;  -28.370;    0.000;14032.66004
 540.82;14066.760;  -30.880;    0.000;14097.63976
 541.10;14109.330;  -11.720;    0.000;14121.05008
 541.38;14204.550;  -29.890;    0.000;14234.43980
 541.66;14255.450;  -19.600;    0.000;14275.05020
 541.94;14254.040;  -20.400;    0.000;14274.44004
 542.22;14330.060;  -22.450;    0.000;14352.50957
 542.50;14365.730;  -25.920;    0.000;14391.65047
 542.78;14385.080;  -22.300;    0.000;14407.38008
 543.06;14499.320;  -24.780;    0.000;14524.10031
 543.34;14517.550;  -13.100;    0.000;14530.64981
 543.62;14598.410;  -22.330;    0.000;14620.74016
 543.90;14623.850;  -21.000;    0.000;14644.84961
 544.17;14670.970;  -28.870;    0.000;14699.83973
 544.45;14709.460;  -25.940;    0.000;14735.39996
 544.73;14751.620;  -19.130;    0.000;14770.75012
 545.01;14824.340;  -25.070;    0.000;14849.40984
 545.29;14820.440;  -23.350;    0.000;14843.79043
 545.57;14902.220;  -13.760;    0.000;14915.97973
 545.85;14927.240;  -16.940;    0.000;14944.18023
 546.13;14924.720;  -27.870;    0.000;14952.58973
 546.41;15000.760;  -16.310;    0.000;15017.06977
 546.69;15014.060;  -32.210;    0.000;15046.26957
 546.97;15040.460;  -24.550;    0.000;15065.00996
 547.25;15113.330;  -27.210;    0.000;15140.54008
 547.52;15125.020;  -26.500;    0.000;15151.51953
 547.80;15178.230;  -20.870;    0.000;15199.10047
 548.08;15222.790;  -23.140;    0.000;15245.93004
 548.36;15230.790;  -18.030;    0.000;15248.82004
 548.64;15325.380;  -17.680;    0.000;15343.05988
 548.92;15345.460;  -24.050;    0.000;15369.50996
 549.20;15340.120;  -19.710;    0.000;15359.83012
 549.48;15387.800;  -15.170;    0.000;15402.96980
 549.76;15462.930;  -15.590;    0.000;15478.51969
 550.04;15410.850;  -23.170;    0.000;15434.01961
 550.31;15481.560;  -27.150;    0.000;15508.70957
 550.59;15502.850;  -12.080;    0.000;15514.92961
 550.87;15532.870;  -29.450;    0.000;15562.32012
 551.15;15542.990;  -18.290;    0.000;15561.28024
 551.43;15535.780;  -24.870;    0.000;15560.65027
 551.71;15637.460;  -24.400;    0.000;15661.85996
 551.99;15587.020;  -24.990;    0.000;15612.00953
 552.27;15639.240;  -24.030;    0.000;15663.27024
 552.54;15646.020;  -22.450;    0.000;15668.46953
 552.82;15700.700;  -10.980;    0.000;15711.68019
 553.10;15735.900;  -23.500;    0.000;15759.40039
 553.38;15760.530;  -13.410;    0.000;15773.94027
 553.66;15705.460;  -23.070;    0.000;15728.52996
 553.94;15841.490;  -13.110;    0.000;15854.60023
 554.22;15800.180;  -13.670;    0.000;15813.84969
 554.49;15807.070;  -16.040;    0.000;15823.11031
 554.77;15845.430;  -16.190;    0.000;15861.61969
 555.05;15893.310;  -15.740;    0.000;15909.04957
 555.33;15841.250;  -32.440;    0.000;15873.69000
 555.61;15856.440;  -25.560;    0.000;15882.00043
 555.89;15894.310;  -33.180;    0.000;15927.48957
 556.16;15876.490;  -25.590;    0.000;15902.08023
 556.44;15949.360;  -32.100;    0.000;15981.46035
 556.72;15943.100;  -29.140;    0.000;15972.23961
 557.00;15944.940;  -31.520;    0.000;15976.46043
 557.28;15996.610;  -17.510;    0.000;16014.12035
 557.56;15960.950;  -21.250;    0.000;15982.20020
 557.83;16000.590;  -25.100;    0.000;16025.68984
 558.11;15945.790;  -15.320;    0.000;15961.11004
 558.39;16008.460;  -15.190;    0.000;16023.64996
 558.67;15976.380;  -19.950;    0.000;15996.32988
 558.95;16014.160;  -29.320;    0.000;16043.48016
 559.23;16026.800;  -27.530;    0.000;16054.32981
 559.50;15989.850;  -21.290;    0.000;16011.13961
 559.78;15979.200;  -17.790;    0.000;15996.99020
 560.06;15957.810;  -22.880;    0.000;15980.68957
 560.34;15976.130;  -13.260;    0.000;15989.38988
 560.62;16043.170;  -24.200;    0.000;16067.36992
 560.89;16043.920;  -14.400;    0.000;16058.31992
 561.17;16001.890;  -13.580;    0.000;16015.46965
 561.45;15957.560;  -31.100;    0.000;15988.65957
 561.73;15976.430;  -25.680;    0.000;16002.10969
 562.00;15996.360;  -26.560;    0.000;16022.92035
 562.28;15990.880;  -20.620;    0.000;16011.49988
 562.56;15997.460;  -26.640;    0.000;16024.09996
 562.84;15976.830;  -11.530;    0.000;15988.36008
 563.12;16010.510;  -33.150;    0.000;16043.65977
 563.39;15918.710;  -30.760;    0.000;15949.46996
 563.67;15967.170;  -22.790;    0.000;15989.95992
 563.95;15903.770;  -23.690;    0.000;15927.45953
 564.23;15949.280;  -23.130;    0.000;15972.41027
 564.50;15931.270;  -16.770;    0.000;15948.03953
 564.78;15920.910;  -10.770;    0.000;15931.68016
 565.06;15885.170;  -24.010;    0.000;15909.17992
 565.34;15857.700;  -21.080;    0.000;15878.78020
 565.61;15830.470;  -15.850;    0.000;15846.31973
 565.89;15787.800;  -10.570;    0.000;15798.36980
 566.17;15862.990;  -33.940;    0.000;15896.93023
 566.45;15815.820;  -18.770;    0.000;15834.59031
 566.73;15847.630;  -28.520;    0.000;15876.14988
 567.00;15768.790;  -31.220;    0.000;15800.01004
 567.28;15759.440;  -26.710;    0.000;15786.15043
 567.56;15746.670;  -20.940;    0.000;15767.60992
 567.83;15713.290;  -22.790;    0.000;15736.08004
 568.11;15633.090;  -26.120;    0.000;15659.20984
 568.39;15685.960;  -30.490;    0.000;15716.44996
 568.67;15616.850;  -27.500;    0.000;15644.34961
 568.94;15601.230;  -23.260;    0.000;15624.49047
 569.22;15617.450;  -22.350;    0.000;15639.80020
 569.50;15634.430;  -31.970;    0.000;15666.39969
 569.78;15538.740;  -23.620;    0.000;15562.36024
 570.05;15530.660;  -30.470;    0.000;15561.13016
 570.33;15541.150;  -24.910;    0.000;15566.06039
 570.61;15466.500;  -15.430;    0.000;15481.93000
 570.88;15418.520;  -38.820;    0.000;15457.33953
 571.16;15385.410;  -23.130;    0.000;15408.54016
 571.44;15356.450;  -35.510;    0.000;15391.96019
 571.72;15370.360;  -20.230;    0.000;15390.59035
 571.99;15324.090;  -30.400;    0.000;15354.48984
 572.27;15255.230;  -20.910;    0.000;15276.14047
 572.55;15213.290;  -30.340;    0.000;15243.63004
 572.82;15212.910;  -20.980;    0.000;15233.89016
 573.10;15204.580;  -22.520;    0.000;15227.10008
 573.38;15132.480;  -33.590;    0.000;15166.07047
 573.65;15076.820;  -11.540;    0.000;15088.36031
 573.93;15044.620;  -23.340;    0.000;15067.96012
 574.21;15065.850;  -22.650;    0.000;15088.49961
 574.48;14958.390;  -27.240;    0.000;14985.62965
 574.76;14970.380;  -31.270;    0.000;15001.64988
 575.04;14892.780;  -15.830;    0.000;14908.61027
 575.32;14856.530;  -21.200;    0.000;14877.73027
 575.59;14830.840;  -16.300;    0.000;14847.13984
 575.87;14735.190;  -40.340;    0.000;14775.53043
 576.15;14727.550;  -10.810;    0.000;14738.35981
 576.42;14661.400;  -28.300;    0.000;14689.70039
 576.70;14639.780;  -33.860;    0.000;14673.64027
 576.98;14610.160;  -32.330;    0.000;14642.49016
 577.25;14561.460;  -28.350;    0.000;14589.80996
 577.53;14537.090;  -31.160;    0.000;14568.24984
 577.80;14481.420;  -29.180;    0.000;14510.59992
 578.08;14405.040;  -29.770;    0.000;14434.81004
 578.36;14359.000;  -21.590;    0.000;14380.59000
 578.63;14350.070;  -37.290;    0.000;14387.36031
 578.91;14266.420;  -26.150;    0.000;14292.56992
 579.19;14223.250;  -31.750;    0.000;14255.00000
 579.46;14191.490;  -24.900;    0.000;14216.39023
 579.74;14118.510;  -22.420;    0.000;14140.92977
 580.02;14048.640;  -29.350;    0.000;14077.98965
 580.29;14028.030;  -37.840;    0.000;14065.87027
 580.57;13941.750;  -30.530;    0.000;13972.28000
 580.84;13902.980;  -30.850;    0.000;13933.83047
 581.12;13817.030;  -27.750;    0.000;13844.78027
 581.40;13838.180;  -34.120;    0.000;13872.29969
 581.67;13756.940;  -30.300;    0.000;13787.24043
 581.95;13683.430;  -36.850;    0.000;13720.27969
 582.23;13634.280;  -28.420;    0.000;13662.70027
 582.50;13569.040;  -40.300;    0.000;13609.34004
 582.78;13514.510;  -28.770;    0.000;13543.27977
 583.05;13418.730;  -25.840;    0.000;13444.57047
 583.33;13348.760;  -21.520;    0.000;13370.27977
 583.61;13333.730;  -21.280;    0.000;13355.01047
 583.88;13275.020;  -18.760;    0.000;13293.77953
 584.16;13184.500;  -32.140;    0.000;13216.64000
 584.43;13165.790;  -29.000;    0.000;13194.79004
 584.71;13094.550;  -24.070;    0.000;13118.61980
 584.99;13038.280;  -21.770;    0.000;13060.05027
 585.26;12942.410;  -32.080;    0.000;12974.49016
 585.54;12940.520;  -36.460;    0.000;12976.97953
 585.81;12876.830;  -34.050;    0.000;12910.88008
 586.09;12755.770;  -15.310;    0.000;12771.07953
 586.37;12746.460;  -42.360;    0.000;12788.81996
 586.64;12669.440;  -24.820;    0.000;12694.26043
 586.92;12629.260;  -30.380;    0.000;12659.63976
 587.19;12577.000;  -24.020;    0.000;12601.02000
 587.47;12467.090;  -38.630;    0.000;12505.71984
 587.74;12448.800;  -24.440;    0.000;12473.23981
 588.02;12383.140;  -22.400;    0.000;12405.53965
 588.30;12322.020;  -31.970;    0.000;12353.98953
 588.57;12270.620;  -29.980;    0.000;12300.60012
 588.85;12177.300;  -32.590;    0.000;12209.88980
 589.12;12072.250;  -35.900;    0.000;12108.15000
 589.40;12093.280;  -22.810;    0.000;12116.09027
 589.67;12028.440;  -27.690;    0.000;12056.13043
 589.95;11950.530;  -11.930;    0.000;11962.46027
 590.22;11914.560;  -29.920;    0.000;11944.47957
 590.50;11843.940;  -19.810;    0.000;11863.75043
 590.77;11782.930;  -32.070;    0.000;11814.99969
 591.05;11730.120;  -28.680;    0.000;11758.80012
 591.33;11671.880;  -29.200;    0.000;11701.07988
 591.60;11583.910;  -34.000;    0.000;11617.91016
 591.88;11540.530;  -25.320;    0.000;11565.85027
 592.15;11473.120;  -30.460;    0.000;11503.58012
 592.43;11422.680;  -39.680;    0.000;11462.35969
 592.70;11321.770;  -23.960;    0.000;11345.72953
 592.98;11273.770;  -39.190;    0.000;11312.95953
 593.25;11204.440;  -10.770;    0.000;11215.21043
 593.53;11152.530;  -29.230;    0.000;11181.76027
 593.80;11056.520;  -30.750;    0.000;11087.26953
 594.08;10984.480;  -37.180;    0.000;11021.66047
 594.35;10934.410;  -31.070;    0.000;10965.48016
 594.63;10873.840;  -21.940;    0.000;10895.77984
 594.90;10772.560;  -34.240;    0.000;10806.79957
 595.18;10726.270;  -26.450;    0.000;10752.71953
 595.45;10654.160;  -30.900;    0.000;10685.06016
 595.73;10582.760;  -35.600;    0.000;10618.35976
 596.00;10496.920;  -29.900;    0.000;10526.81992
 596.28;10462.460;  -41.410;    0.000;10503.86996
 596.55;10393.160;  -36.570;    0.000;10429.73016
 596.83;10334.060;  -34.320;    0.000;10368.37957
 597.10;10252.780;  -17.350;    0.000;10270.13027
 597.38;10205.040;  -25.390;    0.000;10230.43004
 597.65;10129.320;  -23.040;    0.000;10152.36031
 597.93;10068.770;  -47.520;    0.000;10116.28953
 598.20;10009.300;  -29.950;    0.000;10039.24981
 598.48; 9913.030;  -39.720;    0.000;9952.75027
 598.75; 9858.040;  -38.990;    0.000;9897.03004
 599.03; 9786.830;  -25.450;    0.000;9812.28008
 599.30; 9713.440;  -33.700;    0.000;9747.14043
 599.58; 9656.400;  -24.090;    0.000;9680.49039
 599.85; 9628.290;  -20.370;    0.000;9648.66004
 600.12; 9521.960;  -29.390;    0.000;9551.34996
 600.40; 9458.580;  -39.550;    0.000;9498.13008
 600.67; 9372.560;  -39.490;    0.000;9412.04957
 600.95; 9338.160;  -24.510;    0.000;9362.67016
 601.22; 9266.900;  -31.680;    0.000;9298.58039
 601.50; 9206.220;  -26.410;    0.000;9232.62973
 601.77; 9159.460;  -33.040;    0.000;9192.49996
 602.05; 9060.570;  -12.840;    0.000;9073.41031
 602.32; 9038.340;  -26.150;    0.000;9064.48984
 602.59; 8966.340;  -37.960;    0.000;9004.29984
 602.87; 8912.640;  -36.580;    0.000;8949.21965
 603.14; 8862.120;  -44.730;    0.000;8906.85012
 603.42; 8788.820;  -26.580;    0.000;8815.40031
 603.69; 8702.420;  -37.870;    0.000;8740.28992
 603.97; 8633.530;  -43.790;    0.000;8677.32027
 604.24; 8600.460;  -40.170;    0.000;8640.62996
 604.51; 8541.550;  -22.580;    0.000;8564.12980
 604.79; 8498.270;  -25.880;    0.000;8524.14953
 605.06; 8414.230;  -33.420;    0.000;8447.65047
 605.34; 8386.710;  -29.770;    0.000;8416.47996
 605.61; 8329.120;  -40.440;    0.000;8369.56012
 605.89; 8292.000;  -27.190;    0.000;8319.19000
 606.16; 8165.060;  -39.370;    0.000;8204.43006
 606.43; 8164.160;  -15.550;    0.000;8179.71016
 606.71; 8100.330;  -48.100;    0.000;8148.43008
 606.98; 8084.260;  -35.410;    0.000;8119.66977
 607.26; 7985.800;  -35.790;    0.000;8021.58981
 607.53; 7953.160;  -36.110;    0.000;7989.27016
 607.80; 7908.740;  -44.650;    0.000;7953.39024
 608.08; 7850.490;  -39.850;    0.000;7890.34023
 608.35; 7770.300;  -41.460;    0.000;7811.75980
 608.62; 7714.840;  -33.970;    0.000;7748.80984
 608.90; 7715.570;  -39.640;    0.000;7755.20982
 609.17; 7658.500;  -32.290;    0.000;7690.79000
 609.45; 7575.500;  -43.540;    0.000;7619.04000
 609.72; 7549.080;  -25.940;    0.000;7575.02008
 609.99; 7520.530;  -54.580;    0.000;7575.10979
 610.27; 7464.520;  -33.980;    0.000;7498.50002
 610.54; 7391.030;  -53.950;    0.000;7444.97979
 610.81; 7362.680;  -40.300;    0.000;7402.98018
 611.09; 7325.470;  -31.150;    0.000;7356.62021
 611.36; 7307.000;  -35.360;    0.000;7342.36000
 611.64; 7239.410;  -44.100;    0.000;7283.51015
 611.91; 7182.590;  -32.700;    0.000;7215.28984
 612.18; 7186.310;  -34.140;    0.000;7220.45006
 612.46; 7116.640;  -36.560;    0.000;7153.20014
 612.73; 7070.690;  -39.030;    0.000;7109.71994
 613.00; 7041.360;  -38.110;    0.000;7079.46986
 613.28; 6949.340;  -32.120;    0.000;6981.45984
 613.55; 6886.990;  -45.300;    0.000;6932.29023
 613.82; 6832.720;  -51.080;    0.000;6883.80022
 614.10; 6783.310;  -41.190;    0.000;6824.50006
 614.37; 6701.980;  -41.870;    0.000;6743.84998
 614.64; 6635.200;  -36.410;    0.000;6671.61020
 614.92; 6544.580;  -39.630;    0.000;6584.21008
 615.19; 6519.140;  -29.580;    0.000;6548.72014
 615.46; 6434.080;  -41.030;    0.000;6475.11008
 615.74; 6335.150;  -36.750;    0.000;6371.89990
 616.01; 6228.710;  -53.870;    0.000;6282.57996
 616.28; 6139.260;  -41.570;    0.000;6180.82977
 616.56; 6043.850;  -47.850;    0.000;6091.70010
 616.83; 5972.190;  -23.950;    0.000;5996.13994
 617.10; 5903.290;  -34.050;    0.000;5937.34004
 617.37; 5880.930;  -25.940;    0.000;5906.87018
 617.65; 5954.990;  -41.240;    0.000;5996.23024
 617.92; 5984.700;  -29.900;    0.000;6014.60019
 618.19; 5944.170;  -46.220;    0.000;5990.38992
 618.47; 5895.590;  -38.070;    0.000;5933.65984
 618.74; 5883.180;  -50.090;    0.000;5933.27018
 619.01; 5838.970;  -38.340;    0.000;5877.31021
 619.28; 5881.080;  -43.640;    0.000;5924.72008
 619.56; 5833.880;  -38.060;    0.000;5871.93988
 619.83; 5779.340;  -39.710;    0.000;5819.04984
 620.10; 5754.630;  -31.220;    0.000;5785.84988
 620.38; 5684.350;  -52.170;    0.000;5736.52010
 620.65; 5662.180;  -46.120;    0.000;5708.30017
 620.92; 5654.270;  -42.600;    0.000;5696.87002
 621.19; 5663.740;  -43.000;    0.000;5706.74023
 621.47; 5663.340;  -40.820;    0.000;5704.15984
 621.74; 5702.770;  -41.630;    0.000;5744.40002
 622.01; 5702.310;  -43.850;    0.000;5746.16006
 622.28; 5705.880;  -32.550;    0.000;5738.42988
 622.56; 5681.800;  -42.800;    0.000;5724.59980
 622.83; 5643.720;  -37.130;    0.000;5680.85022
 623.10; 5603.410;  -48.260;    0.000;5651.67015
 623.38; 5588.600;  -35.400;    0.000;5624.00010
 623.65; 5607.180;  -17.330;    0.000;5624.51018
 623.92; 5572.630;  -32.240;    0.000;5604.86988
 624.19; 5525.060;  -53.540;    0.000;5578.60006
 624.46; 5504.740;  -30.480;    0.000;5535.22023
 624.74; 5478.920;  -39.050;    0.000;5517.96992
 625.01; 5465.460;  -26.210;    0.000;5491.66996
 625.28; 5445.110;  -44.030;    0.000;5489.13986
 625.55; 5405.780;  -44.700;    0.000;5450.47979
 625.83; 5416.370;  -43.650;    0.000;5460.02012
 626.10; 5379.670;  -35.370;    0.000;5415.03992
 626.37; 5309.270;  -51.170;    0.000;5360.44002
 626.64; 5305.520;  -46.220;    0.000;5351.74002
 626.92; 5303.780;  -40.280;    0.000;5344.05978
 627.19; 5292.950;  -37.500;    0.000;5330.45020
 627.46; 5259.060;  -39.980;    0.000;5299.04006
 627.73; 5227.360;  -33.180;    0.000;5260.53986
 628.00; 5220.590;  -39.210;    0.000;5259.79984
 628.28; 5200.300;  -35.220;    0.000;5235.51981
 628.55; 5154.510;  -46.210;    0.000;5200.71976
 628.82; 5165.450;  -27.350;    0.000;5192.80020
 629.09; 5109.710;  -47.190;    0.000;5156.89996
 629.36; 5121.740;  -42.190;    0.000;5163.93023
 629.64; 5102.460;  -41.460;    0.000;5143.91996
 629.91; 5065.360;  -32.990;    0.000;5098.34986
 630.18; 5032.880;  -50.880;    0.000;5083.75988
 630.45; 5019.620;  -51.820;    0.000;5071.44012
 630.72; 4992.070;  -62.210;    0.000;5054.27982
 631.00; 5000.760;  -42.860;    0.000;5043.61977
 631.27; 4942.130;  -42.790;    0.000;4984.91988
 631.54; 4927.400;  -43.780;    0.000;4971.17990
 631.81; 4913.770;  -35.020;    0.000;4948.79002
 632.08; 4892.680;  -40.130;    0.000;4932.81018
 632.35; 4846.610;  -50.910;    0.000;4897.51986
 632.63; 4827.790;  -43.240;    0.000;4871.03004
 632.90; 4831.090;  -44.370;    0.000;4875.45984
 633.17; 4812.700;  -40.840;    0.000;4853.54020
 633.44; 4798.580;  -52.000;    0.000;4850.58008
 633.71; 4801.880;  -32.170;    0.000;4834.04988
 633.98; 4800.800;  -30.510;    0.000;4831.30980
 634.25; 4776.360;  -34.090;    0.000;4810.44986
 634.53; 4755.830;  -34.830;    0.000;4790.66008
 634.80; 4740.240;  -39.750;    0.000;4779.99023
 635.07; 4742.790;  -49.230;    0.000;4792.02004
 635.34; 4731.290;  -23.990;    0.000;4755.28004
 635.61; 4703.850;  -50.510;    0.000;4754.36010
 635.88; 4740.270;  -44.250;    0.000;4784.52002
 636.15; 4745.560;  -43.150;    0.000;4788.71006
 636.43; 4741.060;  -38.010;    0.000;4779.07006
 636.70; 4722.190;  -43.060;    0.000;4765.24994
 636.97; 4754.780;  -38.410;    0.000;4793.18979
 637.24; 4647.430;  -50.350;    0.000;4697.78017
 637.51; 4589.070;  -31.980;    0.000;4621.04982
 637.78; 4522.490;  -46.720;    0.000;4569.21024
 638.05; 4486.410;  -39.310;    0.000;4525.72016
 638.32; 4498.570;  -31.150;    0.000;4529.71982
 638.60; 4463.560;  -44.910;    0.000;4508.47006
 638.87; 4406.970;  -50.240;    0.000;4457.21022
 639.14; 4369.890;  -43.540;    0.000;4413.43014
 639.41; 4360.510;  -32.120;    0.000;4392.62976
 639.68; 4323.950;  -45.810;    0.000;4369.76020
 639.95; 4295.980;  -51.890;    0.000;4347.86998
 640.22; 4304.120;  -48.220;    0.000;4352.34012
 640.49; 4265.070;  -45.740;    0.000;4310.80983
 640.76; 4238.600;  -35.730;    0.000;4274.33010
 641.03; 4174.090;  -50.560;    0.000;4224.64985
 641.30; 4122.280;  -42.310;    0.000;4164.58979
 641.58; 4081.990;  -49.140;    0.000;4131.12999
 641.85; 4049.940;  -43.210;    0.000;4093.14994
 642.12; 3992.690;  -51.320;    0.000;4044.00994
 642.39; 3974.270;  -48.990;    0.000;4023.26002
 642.66; 3944.100;  -45.590;    0.000;3989.69010
 642.93; 3931.280;  -29.310;    0.000;3960.59003
 643.20; 3905.370;  -45.820;    0.000;3951.19012
 643.47; 3870.020;  -42.670;    0.000;3912.69002
 643.74; 3824.350;  -51.730;    0.000;3876.08010
 644.01; 3814.880;  -42.950;    0.000;3857.82988
 644.28; 3794.220;  -60.830;    0.000;3855.04997
 644.55; 3785.390;  -47.560;    0.000;3832.94989
 644.82; 3765.600;  -32.270;    0.000;3797.87010
 645.09; 3719.360;  -35.500;    0.000;3754.86011
 645.36; 3707.670;  -50.290;    0.000;3757.95992
 645.63; 3674.640;  -43.920;    0.000;3718.55989
 645.91; 3660.350;  -46.930;    0.000;3707.28010
 646.18; 3638.650;  -38.010;    0.000;3676.65990
 646.45; 3616.040;  -41.290;    0.000;3657.33004
 646.72; 3599.940;  -48.770;    0.000;3648.70994
 646.99; 3556.990;  -41.040;    0.000;3598.02999
 647.26; 3549.610;  -41.240;    0.000;3590.85011
 647.53; 3515.390;  -54.690;    0.000;3570.07989
 647.80; 3540.650;  -27.780;    0.000;3568.42990
 648.07; 3484.850;  -58.730;    0.000;3543.58010
 648.34; 3459.840;  -34.280;    0.000;3494.12009
 648.61; 3425.160;  -47.500;    0.000;3472.65991
 648.88; 3424.450;  -44.020;    0.000;3468.46995
 649.15; 3406.640;  -52.630;    0.000;3459.26989
 649.42; 3382.420;  -48.650;    0.000;3431.06992
 649.69; 3361.210;  -46.880;    0.000;3408.08996
 649.96; 3327.410;  -41.340;    0.000;3368.74991
 650.23; 3309.280;  -59.960;    0.000;3369.24003
 650.50; 3294.480;  -53.140;    0.000;3347.61998
 650.77; 3271.780;  -61.220;    0.000;3333.00003
 651.04; 3259.180;  -42.700;    0.000;3301.87993
 651.31; 3230.100;  -58.050;    0.000;3288.15010
 651.58; 3203.680;  -46.320;    0.000;3249.99993
 651.85; 3187.790;  -57.610;    0.000;3245.40004
 652.12; 3188.320;  -30.010;    0.000;3218.33007
 652.39; 3154.620;  -47.470;    0.000;3202.09012
 652.66; 3140.550;  -50.490;    0.000;3191.04005
 652.93; 3111.440;  -50.350;    0.000;3161.78994
 653.20; 3104.830;  -40.500;    0.000;3145.33008
 653.47; 3089.070;  -56.060;    0.000;3145.13007
 653.74; 3045.360;  -42.910;    0.000;3088.27011
 654.01; 3030.460;  -45.890;    0.000;3076.34996
 654.28; 3018.590;  -39.800;    0.000;3058.39009
 654.55; 2998.230;  -56.340;    0.000;3054.56998
 654.81; 2974.580;  -45.420;    0.000;3020.00008
 655.08; 2979.560;  -44.350;    0.000;3023.91006
 655.35; 2941.720;  -44.320;    0.000;2986.03997
 655.62; 2919.660;  -45.660;    0.000;2965.31991
 655.89; 2898.750;  -50.060;    0.000;2948.81000
 656.16; 2876.820;  -51.110;    0.000;2927.93007
 656.43; 2832.770;  -52.210;    0.000;2884.98002
 656.70; 2833.570;  -57.420;    0.000;2890.99007
 656.97; 2815.980;  -49.610;    0.000;2865.58998
 657.24; 2794.720;  -51.930;    0.000;2846.64997
 657.51; 2779.040;  -43.090;    0.000;2822.13004
 657.78; 2773.210;  -43.490;    0.000;2816.69996
 658.05; 2758.920;  -42.030;    0.000;2800.94992
 658.32; 2741.520;  -53.310;    0.000;2794.83002
 658.59; 2728.620;  -44.810;    0.000;2773.43012
 658.86; 2698.580;  -50.680;    0.000;2749.26008
 659.12; 2677.510;  -47.800;    0.000;2725.31001
 659.39; 2646.780;  -54.290;    0.000;2701.07003
 659.66; 2637.400;  -36.090;    0.000;2673.48990
 659.93; 2627.830;  -42.230;    0.000;2670.06008
 660.20; 2614.940;  -37.790;    0.000;2652.72994
 660.47; 2595.610;  -53.470;    0.000;2649.08011
 660.74; 2572.040;  -52.820;    0.000;2624.86004
 661.01; 2583.970;  -43.790;    0.000;2627.75997
 661.28; 2544.750;  -40.930;    0.000;2585.68000
 661.55; 2536.720;  -13.100;    0.000;2549.81997
 661.81; 2502.830;  -55.540;    0.000;2558.37008
 662.08; 2472.360;  -46.830;    0.000;2519.19011
 662.35; 2459.170;  -50.920;    0.000;2510.08992
 662.62; 2445.860;  -52.300;    0.000;2498.16011
 662.89; 2432.800;  -51.970;    0.000;2484.77005
 663.16; 2431.870;  -49.180;    0.000;2481.05012
 663.43; 2396.130;  -46.940;    0.000;2443.06988
 663.70; 2368.370;  -59.600;    0.000;2427.97012
 663.96; 2349.460;  -43.330;    0.000;2392.78996
 664.23; 2336.500;  -64.220;    0.000;2400.72000
 664.50; 2305.190;  -48.710;    0.000;2353.89994
 664.77; 2310.100;  -51.030;    0.000;2361.13010
 665.04; 2301.210;  -48.780;    0.000;2349.98996
 665.31; 2267.740;  -54.760;    0.000;2322.49999
 665.58; 2272.860;  -49.660;    0.000;2322.52011
 665.84; 2233.100;  -55.670;    0.000;2288.77010
 666.11; 2225.940;  -49.530;    0.000;2275.46994
 666.38; 2209.490;  -56.960;    0.000;2266.44999
 666.65; 2187.150;  -48.440;    0.000;2235.58990
 666.92; 2165.290;  -61.380;    0.000;2226.67004
 667.19; 2168.240;  -50.390;    0.000;2218.62999
 667.46; 2162.000;  -49.900;    0.000;2211.90000
 667.72; 2135.380;  -43.000;    0.000;2178.37988
 667.99; 2112.970;  -50.920;    0.000;2163.88997
 668.26; 2101.990;  -29.430;    0.000;2131.41999
 668.53; 2073.430;  -61.920;    0.000;2135.34993
 668.80; 2084.020;  -33.970;    0.000;2117.99002
 669.06; 2051.980;  -51.800;    0.000;2103.77998
 669.33; 2042.570;  -43.590;    0.000;2086.15995
 669.60; 2020.090;  -58.870;    0.000;2078.95996
 669.87; 2031.670;  -46.440;    0.000;2078.11004
 670.14; 2012.770;  -50.360;    0.000;2063.13002
 670.41; 1976.200;  -41.980;    0.000;2018.17995
 670.67; 1954.040;  -42.520;    0.000;1996.56004
 670.94; 1955.750;  -54.670;    0.000;2010.42000
 671.21; 1932.610;  -45.490;    0.000;1978.09999
 671.48; 1888.320;  -49.520;    0.000;1937.83995
 671.75; 1889.430;  -59.790;    0.000;1949.22005
 672.01; 1906.900;  -44.080;    0.000;1950.98003
 672.28; 1870.910;  -52.640;    0.000;1923.55003
 672.55; 1877.410;  -37.120;    0.000;1914.53003
 672.82; 1820.510;  -54.630;    0.000;1875.14001
 673.08; 1818.150;  -49.040;    0.000;1867.19003
 673.35; 1788.250;  -55.440;    0.000;1843.69000
 673.62; 1787.410;  -46.870;    0.000;1834.28003
 673.89; 1758.210;  -55.170;    0.000;1813.37996
 674.16; 1762.470;  -57.760;    0.000;1820.22997
 674.42; 1764.110;  -47.940;    0.000;1812.04998
 674.69; 1743.670;  -39.700;    0.000;1783.37004
 674.96; 1713.630;  -50.250;    0.000;1763.88000
 675.23; 1693.540;  -61.580;    0.000;1755.12004
 675.49; 1694.530;  -58.140;    0.000;1752.67003
 675.76; 1697.750;  -47.890;    0.000;1745.64000
 676.03; 1682.180;  -42.090;    0.000;1724.27005
 676.30; 1661.630;  -51.680;    0.000;1713.31001
 676.56; 1662.010;  -56.460;    0.000;1718.47001
 676.83; 1627.680;  -43.720;    0.000;1671.40005
 677.10; 1614.350;  -53.570;    0.000;1667.91998
 677.37; 1619.580;  -48.110;    0.000;1667.68996
 677.63; 1592.320;  -53.920;    0.000;1646.23994
 677.90; 1580.630;  -50.800;    0.000;1631.43000
 678.17; 1569.430;  -51.820;    0.000;1621.25005
 678.44; 1568.560;  -46.980;    0.000;1615.54006
 678.70; 1532.810;  -63.530;    0.000;1596.34006
 678.97; 1537.400;  -55.410;    0.000;1592.81002
 679.24; 1522.500;  -54.480;    0.000;1576.98000
 679.50; 1490.540;  -62.210;    0.000;1552.75004
 679.77; 1502.200;  -50.610;    0.000;1552.80995
 680.04; 1480.420;  -46.910;    0.000;1527.33004
 680.31; 1469.320;  -56.210;    0.000;1525.52995
 680.57; 1468.420;  -54.280;    0.000;1522.70004
 680.84; 1448.940;  -61.530;    0.000;1510.46994
 681.11; 1439.790;  -44.650;    0.000;1484.44004
 681.37; 1436.680;  -59.060;    0.000;1495.74006
 681.64; 1426.800;  -43.030;    0.000;1469.83005
 681.91; 1395.760;  -58.290;    0.000;1454.05001
 682.17; 1404.440;  -37.730;    0.000;1442.16994
 682.44; 1353.700;  -56.890;    0.000;1410.58995
 682.71; 1379.060;  -49.600;    0.000;1428.66006
 682.98; 1365.020;  -57.550;    0.000;1422.57002
 683.24; 1347.270;  -57.200;    0.000;1404.47002
 683.51; 1330.120;  -61.060;    0.000;1391.18000
 683.78; 1336.580;  -56.140;    0.000;1392.71996
 684.04; 1318.490;  -56.030;    0.000;1374.51999
 684.31; 1289.920;  -65.410;    0.000;1355.33005
 684.58; 1287.940;  -60.330;    0.000;1348.26994
 684.84; 1293.970;  -45.720;    0.000;1339.68997
 685.11; 1262.220;  -61.320;    0.000;1323.53997
 685.38; 1262.910;  -54.090;    0.000;1317.00003
 685.64; 1246.960;  -55.840;    0.000;1302.79996
 685.91; 1250.280;  -48.800;    0.000;1299.08003
 686.17; 1236.100;  -52.500;    0.000;1288.59998
 686.44; 1240.980;  -47.040;    0.000;1288.01998
 686.71; 1207.920;  -69.340;    0.000;1277.26004
 686.97; 1203.730;  -61.270;    0.000;1264.99998
 687.24; 1179.500;  -55.300;    0.000;1234.80000
 687.51; 1187.760;  -55.730;    0.000;1243.49001
 687.77; 1157.290;  -55.320;    0.000;1212.61004
 688.04; 1147.860;  -53.560;    0.000;1201.41999
 688.31; 1157.200;  -60.360;    0.000;1217.55995
 688.57; 1159.620;  -42.800;    0.000;1202.41999
 688.84; 1136.160;  -54.400;    0.000;1190.56004
 689.10; 1117.350;  -60.080;    0.000;1177.42998
 689.37; 1119.200;  -53.200;    0.000;1172.39995
 689.64; 1100.300;  -62.880;    0.000;1163.18005
 689.90; 1087.900;  -66.970;    0.000;1154.87003
 690.17; 1083.360;  -61.960;    0.000;1145.31998
 690.44; 1071.540;  -71.470;    0.000;1143.01004
 690.70; 1071.600;  -48.020;    0.000;1119.61998
 690.97; 1052.060;  -67.550;    0.000;1119.61006
 691.23; 1057.770;  -53.030;    0.000;1110.80002
 691.50; 1035.950;  -53.280;    0.000;1089.22995
 691.77; 1020.080;  -59.250;    0.000;1079.33002
 692.03; 1004.910;  -59.590;    0.000;1064.49997
 692.30; 1020.420;  -52.970;    0.000;1073.38998
 692.56; 1001.880;  -61.140;    0.000;1063.02000
 692.83;  986.610;  -49.500;    0.000;1036.10999
 693.10;  978.940;  -53.280;    0.000;1032.22000
 693.36;  978.640;  -42.000;    0.000;1020.64001
 693.63;  941.660;  -64.510;    0.000;1006.16998
 693.89;  948.140;  -55.350;    0.000;1003.49001
 694.16;  935.060;  -50.790;    0.000;985.85000
 694.42;  926.050;  -51.270;    0.000;977.31999
 694.69;  926.980;  -40.380;    0.000;967.35998
 694.96;  934.750;  -33.890;    0.000;968.64000
 695.22;  882.920;  -55.260;    0.000;938.17998
 695.49;  909.240;  -31.710;    0.000;940.94999
 695.75;  873.530;  -66.650;    0.000;940.18003
 696.02;  864.880;  -49.310;    0.000;914.19001
 696.28;  862.240;  -46.910;    0.000;909.14999
 696.55;  854.360;  -54.660;    0.000;909.01999
 696.81;  843.600;  -62.250;    0.000;905.84998
 697.08;  832.790;  -54.150;    0.000;886.93998
 697.34;  826.490;  -57.540;    0.000;884.02999
 697.61;  813.420;  -56.810;    0.000;870.22998
 697.88;  804.240;  -62.100;    0.000;866.33999
 698.14;  798.130;  -58.940;    0.000;857.07000
 698.41;  779.260;  -56.650;    0.000;835.91001
 698.67;  774.120;  -52.920;    0.000;827.03999
 698.94;  770.300;  -58.190;    0.000;828.48999
 699.20;  758.120;  -47.850;    0.000;805.96999
 699.47;  743.790;  -68.830;    0.000;812.61998
 699.73;  733.200;  -58.380;    0.000;791.58001
 700.00;  722.060;  -64.630;    0.000;786.68999
 700.26;  709.930;  -59.530;    0.000;769.45999
 700.53;  706.980;  -54.230;    0.000;761.20998
 700.79;  695.710;  -54.050;    0.000;749.76002
 701.06;  681.610;  -64.410;    0.000;746.01999
 701.32;  690.480;  -47.200;    0.000;737.67998
 701.59;  668.240;  -59.220;    0.000;727.45999
 701.85;  666.980;  -57.540;    0.000;724.51998
 702.12;  655.160;  -64.900;    0.000;720.05997
 702.38;  647.390;  -52.820;    0.000;700.21001
 702.65;  636.780;  -57.340;    0.000;694.12003
 702.91;  632.470;  -41.130;    0.000;673.59997
 703.18;  606.330;  -57.340;    0.000;663.67002
 703.44;  591.560;  -65.650;    0.000;657.21000
 703.71;  604.550;  -50.250;    0.000;654.79999
 703.97;  584.800;  -60.810;    0.000;645.60999
 704.24;  583.080;  -48.680;    0.000;631.76002
 704.50;  559.300;  -62.670;    0.000;621.96999
 704.76;  556.490;  -53.590;    0.000;610.07999
 705.03;  554.060;  -53.270;    0.000;607.33000
 705.29;  533.350;  -68.330;    0.000;601.67998
 705.56;  536.740;  -47.460;    0.000;584.19999
 705.82;  516.420;  -62.540;    0.000;578.95998
 706.09;  528.980;  -35.470;    0.000;564.44998
 706.35;  498.900;  -65.830;    0.000;564.73000
 706.62;  502.250;  -43.730;    0.000;545.98000
 706.88;  481.000;  -65.400;    0.000;546.40000
 707.15;  470.840;  -63.540;    0.000;534.38000
 707.41;  457.090;  -69.930;    0.000;527.02000
 707.67;  459.070;  -58.660;    0.000;517.73001
 707.94;  465.140;  -47.320;    0.000;512.46001
 708.20;  443.790;  -61.750;    0.000;505.54001
 708.47;  447.520;  -56.200;    0.000;503.71999
 708.73;  430.750;  -55.700;    0.000;486.45000
 709.00;  427.740;  -61.320;    0.000;489.05999
 709.26;  422.100;  -47.280;    0.000;469.38000
 709.52;  421.140;  -59.520;    0.000;480.66002
 709.79;  415.710;  -47.280;    0.000;462.98999
 710.05;  385.600;  -65.410;    0.000;451.01001
 710.32;  387.970;  -49.210;    0.000;437.18000
 710.58;  377.510;  -64.440;    0.000;441.95001
 710.84;  379.180;  -52.760;    0.000;431.93999
 711.11;  383.230;  -50.760;    0.000;433.99001
 711.37;  372.130;  -48.120;    0.000;420.25000
 711.64;  351.940;  -59.290;    0.000;411.23000
 711.90;  362.890;  -47.730;    0.000;410.62001
 712.16;  348.520;  -57.190;    0.000;405.70999
 712.43;  347.310;  -47.120;    0.000;394.43000
 712.69;  341.440;  -59.770;    0.000;401.21000
 712.96;  326.220;  -61.520;    0.000;387.74000
 713.22;  328.480;  -63.180;    0.000;391.66001
 713.48;  318.610;  -63.970;    0.000;382.57999
 713.75;  321.880;  -45.320;    0.000;367.20000
 714.01;  320.160;  -56.290;    0.000;376.45000
 714.27;  310.090;  -61.760;    0.000;371.84999
 714.54;  319.590;  -48.990;    0.000;368.58000
 714.80;  301.310;  -44.990;    0.000;346.30000
 715.06;  303.080;  -48.390;    0.000;351.46999
 715.33;  294.690;  -64.460;    0.000;359.15000
 715.59;  290.650;  -65.090;    0.000;355.73999
 715.86;  283.440;  -62.730;    0.000;346.17000
 716.12;  282.870;  -44.380;    0.000;327.25000
 716.38;  287.400;  -53.380;    0.000;340.77999
 716.65;  277.900;  -62.740;    0.000;340.64000
 716.91;  272.800;  -65.510;    0.000;338.30999
 717.17;  283.860;  -53.390;    0.000;337.24998
 717.44;  280.020;  -50.170;    0.000;330.18999
 717.70;  268.300;  -58.520;    0.000;326.81999
 717.96;  269.150;  -59.390;    0.000;328.53999
 718.23;  272.090;  -47.140;    0.000;319.23000
 718.49;  248.870;  -63.040;    0.000;311.91000
 718.75;  264.200;  -56.440;    0.000;320.64001
 719.02;  242.610;  -65.540;    0.000;308.15000
 719.28;  257.030;  -51.330;    0.000;308.36000
 719.54;  245.180;  -66.400;    0.000;311.57999
 719.80;  258.340;  -60.320;    0.000;318.66000
 720.07;  257.340;  -63.050;    0.000;320.39000
 720.33;  248.610;  -49.840;    0.000;298.45000
 720.59;  254.750;  -54.840;    0.000;309.59000
 720.86;  229.550;  -73.400;    0.000;302.95000
 721.12;  248.380;  -54.650;    0.000;303.03001
 721.38;  245.740;  -55.690;    0.000;301.43000
 721.65;  243.140;  -54.520;    0.000;297.66000
 721.91;  258.740;  -52.450;    0.000;311.18999
 722.17;  226.070;  -76.730;    0.000;302.80001
 722.43;  234.280;  -49.480;    0.000;283.76000
 722.70;  239.150;  -65.770;    0.000;304.91999
 722.96;  251.680;  -53.300;    0.000;304.97999
 723.22;  232.580;  -73.430;    0.000;306.01000
 723.48;  241.680;  -56.180;    0.000;297.85999
 723.75;  226.790;  -67.640;    0.000;294.42999
 724.01;  234.110;  -55.620;    0.000;289.73000
 724.27;  220.230;  -67.820;    0.000;288.05000
 724.54;  238.890;  -47.620;    0.000;286.51000
 724.80;  232.200;  -66.900;    0.000;299.10000
 725.06;  228.380;  -58.380;    0.000;286.76001
 725.32;  237.980;  -52.140;    0.000;290.12000
 725.59;  222.590;  -63.950;    0.000;286.54000
 725.85;  222.390;  -72.120;    0.000;294.51000
 726.11;  231.330;  -55.390;    0.000;286.72000
 726.37;  224.550;  -64.820;    0.000;289.37000
 726.64;  238.090;  -37.500;    0.000;275.59000
 726.90;  231.570;  -56.310;    0.000;287.88001
 727.16;  227.750;  -54.440;    0.000;282.19000
 727.42;  216.910;  -60.840;    0.000;277.75000
 727.68;  231.940;  -53.090;    0.000;285.03000
 727.95;  218.050;  -76.660;    0.000;294.71001
 728.21;  236.780;  -49.790;    0.000;286.57000
 728.47;  217.850;  -58.260;    0.000;276.11000
 728.73;  245.950;  -45.620;    0.000;291.57000
 729.00;  221.200;  -57.750;    0.000;278.95000
 729.26;  230.970;  -46.240;    0.000;277.21000
 729.52;  200.050;  -69.960;    0.000;270.01000
 729.78;  216.430;  -58.640;    0.000;275.06999
 730.04;  221.590;  -58.120;    0.000;279.71000
 730.31;  223.040;  -64.750;    0.000;287.78999
 730.57;  200.970;  -66.880;    0.000;267.85000
 730.83;  217.310;  -59.830;    0.000;277.14000
 731.09;  226.510;  -55.260;    0.000;281.76999
 731.35;  210.890;  -58.140;    0.000;269.03000
 731.62;  202.030;  -73.940;    0.000;275.97000
 731.88;  209.710;  -62.720;    0.000;272.43001
 732.14;  207.460;  -57.910;    0.000;265.37001
 732.40;  203.280;  -69.570;    0.000;272.85000
 732.66;  204.280;  -59.720;    0.000;264.00000
 732.92;  193.520;  -69.610;    0.000;263.13000
 733.19;  206.420;  -64.460;    0.000;270.88000
 733.45;  210.550;  -53.510;    0.000;264.06000
 733.71;  195.940;  -62.160;    0.000;258.10000
 733.97;  233.670;  -25.260;    0.000;258.93000
 734.23;  187.050;  -66.750;    0.000;253.80000
 734.49;  184.840;  -64.230;    0.000;249.07000
 734.76;  196.520;  -58.640;    0.000;255.16000
 735.02;  188.380;  -59.310;    0.000;247.69001
 735.28;  198.240;  -55.300;    0.000;253.54000
 735.54;  196.790;  -60.740;    0.000;257.52999
 735.80;  178.740;  -72.340;    0.000;251.08000
 736.06;  198.070;  -54.220;    0.000;252.29001
 736.32;  182.300;  -66.000;    0.000;248.30000
 736.59;  183.600;  -71.880;    0.000;255.48000
 736.85;  183.690;  -57.030;    0.000;240.72000
 737.11;  186.420;  -64.070;    0.000;250.49000
 737.37;  174.060;  -76.050;    0.000;250.11000
 737.63;  175.260;  -66.390;    0.000;241.64999
 737.89;  173.390;  -57.810;    0.000;231.20000
 738.15;  182.250;  -49.020;    0.000;231.27000
 738.41;  171.010;  -71.740;    0.000;242.74999
 738.67;  178.300;  -53.450;    0.000;231.75000
 738.94;  163.760;  -73.730;    0.000;237.49000
 739.20;  164.950;  -71.160;    0.000;236.11000
 739.46;  179.260;  -57.050;    0.000;236.30999
 739.72;  153.350;  -73.350;    0.000;226.70000
 739.98;  151.080;  -62.480;    0.000;213.56000
 740.24;  157.800;  -56.860;    0.000;214.66000
 740.50;  153.430;  -57.360;    0.000;210.78999
 740.76;  161.530;  -68.690;    0.000;230.22000
 741.02;  141.260;  -70.870;    0.000;212.13000
 741.28;  155.210;  -58.510;    0.000;213.72001
 741.54;  145.900;  -53.990;    0.000;199.89000
 741.81;  151.770;  -55.250;    0.000;207.02000
 742.07;  143.650;  -66.200;    0.000;209.84999
 742.33;  152.120;  -48.910;    0.000;201.02999
 742.59;  149.320;  -60.130;    0.000;209.45001
 742.85;  139.960;  -55.100;    0.000;195.06001
 743.11;  129.060;  -76.530;    0.000;205.59000
 743.37;  139.590;  -61.350;    0.000;200.93999
 743.63;  126.050;  -75.800;    0.000;201.85001
 743.89;  125.270;  -59.440;    0.000;184.71000
 744.15;  138.050;  -62.650;    0.000;200.70000
 744.41;  129.590;  -58.030;    0.000;187.62000
 744.67;  115.710;  -64.390;    0.000;180.10000
 744.93;  121.520;  -60.990;    0.000;182.51000
 745.19;  114.240;  -66.920;    0.000;181.16000
 745.45;  123.090;  -67.110;    0.000;190.20000
 745.71;  113.210;  -63.100;    0.000;176.31000
 745.97;  114.880;  -58.360;    0.000;173.24000
 746.23;  104.300;  -65.530;    0.000;169.83000
 746.49;  107.250;  -58.960;    0.000;166.21000
 746.75;  114.300;  -62.950;    0.000;177.25000
 747.02;  105.460;  -69.200;    0.000;174.66000
 747.28;  102.110;  -75.780;    0.000;177.89000
 747.54;  106.130;  -59.290;    0.000;165.42000
 747.80;  100.700;  -66.430;    0.000;167.13000
 748.06;   98.000;  -64.430;    0.000;162.43000
 748.32;   94.210;  -68.280;    0.000;162.49000
 748.58;  102.850;  -56.410;    0.000;159.26000
 748.84;   97.800;  -60.900;    0.000;158.70000
 749.10;  182.470;   14.290;    0.000;168.18000
 749.36;   93.030;  -58.640;    0.000;151.67000
 749.62;   96.250;  -53.300;    0.000;149.55000
 749.88;   89.040;  -63.380;    0.000;152.42000
 750.14;   88.360;  -62.320;    0.000;150.68000
 750.40;   87.760;  -62.710;    0.000;150.47000
 750.66;   99.870;  -53.170;    0.000;153.04000
 750.91;   88.690;  -57.390;    0.000;146.08000
 751.17;   69.820;  -60.510;    0.000;130.33000
 751.43;   68.530;  -67.510;    0.000;136.04000
 751.69;   80.380;  -53.130;    0.000;133.51000
 751.95;   83.030;  -58.380;    0.000;141.41000
 752.21;   77.240;  -54.270;    0.000;131.51000
 752.47;   62.940;  -66.590;    0.000;129.52999
 752.73;   68.400;  -59.420;    0.000;127.82000
 752.99;   59.960;  -67.420;    0.000;127.38000
 753.25;   62.150;  -61.010;    0.000;123.16000
 753.51;   63.380;  -64.170;    0.000;127.55000
 753.77;   67.490;  -58.420;    0.000;125.91000
 754.03;   63.420;  -63.170;    0.000;126.59000
 754.29;   54.850;  -60.390;    0.000;115.24000
 754.55;   62.140;  -59.530;    0.000;121.67000
 754.81;   54.040;  -64.020;    0.000;118.06000
 755.07;   50.980;  -65.730;    0.000;116.71000
 755.33;   65.690;  -53.650;    0.000;119.34000
 755.59;   50.370;  -65.350;    0.000;115.72000
 755.85;   53.410;  -62.930;    0.000;116.34000
 756.10;   53.830;  -62.610;    0.000;116.44000
 756.36;   45.150;  -63.220;    0.000;108.37000
 756.62;   34.590;  -76.090;    0.000;110.68000
 756.88;   42.140;  -63.210;    0.000;105.35000
 757.14;   53.600;  -54.900;    0.000;108.50000
 757.40;   46.590;  -58.450;    0.000;105.04000
 757.66;   39.990;  -52.890;    0.000;92.88000
 757.92;   43.830;  -53.070;    0.000;96.90000
 758.18;   36.580;  -70.780;    0.000;107.36000
 758.44;   44.590;  -61.350;    0.000;105.94000
 758.70;   42.080;  -62.310;    0.000;104.39000
 758.95;   43.990;  -55.510;    0.000;99.50000
 759.21;   30.220;  -71.730;    0.000;101.95000
 759.47;   45.530;  -55.090;    0.000;100.62000
 759.73;   22.850;  -66.680;    0.000;89.53000
 759.99;   30.690;  -65.250;    0.000;95.94000
 760.25;   22.050;  -76.330;    0.000;98.38000
 760.51;   33.300;  -66.640;    0.000;99.94000
 760.77;   32.590;  -62.640;    0.000;95.23000
 761.02;   36.910;  -55.290;    0.000;92.20000
 761.28;   25.450;  -72.630;    0.000;98.08000
 761.54;   39.490;  -59.090;    0.000;98.58000
 761.80;   22.960;  -67.640;    0.000;90.60000
 762.06;   36.080;  -50.180;    0.000;86.26000
 762.32;    7.680;  -79.560;    0.000;87.24000
 762.58;   22.350;  -63.330;    0.000;85.68000
 762.83;   27.670;  -60.260;    0.000;87.93000
 763.09;   33.720;  -60.390;    0.000;94.11000
 763.35;   18.830;  -70.560;    0.000;89.39000
 763.61;   27.230;  -54.640;    0.000;81.87000
 763.87;   31.810;  -50.690;    0.000;82.50000
 764.13;   20.140;  -61.450;    0.000;81.59000
 764.38;   11.830;  -65.440;    0.000;77.27000
 764.64;   18.150;  -69.840;    0.000;87.99000
 764.90;   25.630;  -70.080;    0.000;95.71000
 765.16;   22.230;  -56.430;    0.000;78.66000
 765.42;    8.700;  -72.650;    0.000;81.35000
 765.68;   19.730;  -70.250;    0.000;89.98000
 765.93;    7.360;  -73.680;    0.000;81.04000
 766.19;   23.250;  -50.430;    0.000;73.68000
 766.45;   -0.220;  -71.110;    0.000;70.89000
 766.71;   28.220;  -54.730;    0.000;82.95000
 766.97;    3.190;  -68.930;    0.000;72.12000
 767.22;   14.100;  -59.260;    0.000;73.36000
 767.48;    3.030;  -71.090;    0.000;74.12000
 767.74;    7.810;  -61.560;    0.000;69.37000
 768.00;   -0.310;  -77.530;    0.000;77.22000
 768.26;    4.770;  -62.040;    0.000;66.81000
 768.51;    2.750;  -60.300;    0.000;63.05000
 768.77;   25.100;  -47.940;    0.000;73.04000
 769.03;    9.080;  -78.410;    0.000;87.49000
 769.29;    2.160;  -71.790;    0.000;73.95000
 769.54;   -3.130;  -73.200;    0.000;70.07000
 769.80;    1.230;  -67.540;    0.000;68.77000
 770.06;  -15.340;  -74.660;    0.000;59.32000
 770.32;   -1.280;  -76.440;    0.000;75.16000
 770.57;   -3.090;  -80.070;    0.000;76.98000
 770.83;    9.620;  -63.860;    0.000;73.48000
 771.09;   -8.250;  -69.770;    0.000;61.52000
 771.35;    0.420;  -65.060;    0.000;65.48000
 771.61;   -0.070;  -76.250;    0.000;76.18000
 771.86;    7.710;  -52.550;    0.000;60.26000
 772.12;  -11.010;  -82.060;    0.000;71.05000
 772.38;  -11.180;  -70.920;    0.000;59.74000
 772.63;  -13.820;  -70.280;    0.000;56.46000
 772.89;    2.900;  -67.220;    0.000;70.12000
 773.15;   -7.590;  -70.020;    0.000;62.43000
 773.41;    1.540;  -75.520;    0.000;77.06000
 773.66;    8.630;  -64.250;    0.000;72.88000
 773.92;    0.300;  -62.320;    0.000;62.62000
 774.18;    8.420;  -60.500;    0.000;68.92000
 774.44;  -13.470;  -69.740;    0.000;56.27000
 774.69;   -5.370;  -66.950;    0.000;61.58000
 774.95;    1.970;  -61.260;    0.000;63.23000
 775.21;    6.910;  -56.740;    0.000;63.65000
 775.46;  -14.050;  -71.760;    0.000;57.71000
 775.72;  -15.120;  -74.010;    0.000;58.89000
 775.98;   -8.050;  -57.630;    0.000;49.58000
 776.24;  -15.420;  -78.090;    0.000;62.67000
 776.49;    0.780;  -65.450;    0.000;66.23000
 776.75;   -9.570;  -70.010;    0.000;60.44000
 777.01;   -5.230;  -73.480;    0.000;68.25000
 777.26;    0.790;  -53.890;    0.000;54.68000
 777.52;  -14.040;  -58.810;    0.000;44.77000
 777.78;   -5.370;  -72.700;    0.000;67.33000
 778.03;   -1.010;  -56.180;    0.000;55.17000
 778.29;  -15.970;  -65.510;    0.000;49.54000
 778.55;    0.870;  -64.990;    0.000;65.86000
 778.80;  -15.890;  -66.480;    0.000;50.59000
 779.06;  -14.740;  -72.690;    0.000;57.95000
 779.32;  -20.270;  -76.670;    0.000;56.40000
 779.57;  -18.870;  -67.570;    0.000;48.70000
 779.83;  -21.580;  -69.500;    0.000;47.92000
 780.09;  -18.400;  -65.320;    0.000;46.92000
 780.34;  -15.590;  -69.050;    0.000;53.46000
 780.60;   -5.090;  -54.350;    0.000;49.26000
 780.86;   -8.520;  -70.540;    0.000;62.02000
 781.11;  -11.900;  -60.140;    0.000;48.24000
 781.37;  -28.730;  -89.190;    0.000;60.46000
 781.63;   -3.860;  -53.500;    0.000;49.64000
 781.88;  -32.790;  -75.250;    0.000;42.46000
 782.14;  -24.620;  -65.990;    0.000;41.37000
 782.39;  -24.720;  -73.460;    0.000;48.74000
 782.65;  -24.790;  -67.340;    0.000;42.55000
 782.91;  -17.610;  -61.740;    0.000;44.13000
 783.16;  -16.790;  -64.430;    0.000;47.64000
 783.42;  -46.340;  -78.900;    0.000;32.56000
 783.67;  -13.500;  -60.080;    0.000;46.58000
 783.93;  -31.830;  -75.140;    0.000;43.31000
 784.19;  -25.640;  -63.580;    0.000;37.94000
 784.44;  -17.760;  -59.560;    0.000;41.80000
 784.70;   -8.930;  -51.310;    0.000;42.38000
 784.96;  -29.740;  -79.860;    0.000;50.12000
 785.21;  -24.000;  -67.680;    0.000;43.68000
 785.47;  -17.860;  -48.970;    0.000;31.11000
 785.72;  -31.350;  -76.220;    0.000;44.87000
 785.98;  -35.480;  -73.540;    0.000;38.06000
 786.23;  -23.230;  -71.420;    0.000;48.19000
 786.49;  -33.000;  -76.000;    0.000;43.00000
 786.75;  -31.790;  -71.520;    0.000;39.73000
 787.00;  -38.960;  -75.060;    0.000;36.10000
 787.26;  -28.800;  -65.970;    0.000;37.17000
 787.51;  -21.570;  -71.990;    0.000;50.42000
 787.77;  -19.490;  -54.030;    0.000;34.54000
 788.02;  -21.200;  -61.800;    0.000;40.60000
 788.28;  -40.200;  -70.640;    0.000;30.44000
 788.54;  -25.170;  -63.910;    0.000;38.74000
 788.79;  -20.250;  -58.120;    0.000;37.87000
 789.05;  -40.990;  -77.260;    0.000;36.27000
 789.30;  -27.970;  -63.070;    0.000;35.10000
 789.56;  -35.560;  -83.770;    0.000;48.21000
 789.81;  -20.900;  -70.330;    0.000;49.43000
 790.07;  -43.500;  -76.840;    0.000;33.34000
 790.32;  -26.540;  -67.480;    0.000;40.94000
 790.58;  -26.820;  -76.340;    0.000;49.52000
 790.83;  -36.060;  -66.550;    0.000;30.49000
 791.09;  -43.830;  -80.200;    0.000;36.37000
 791.35;  -35.970;  -74.470;    0.000;38.50000
 791.60;  -35.400;  -88.380;    0.000;52.98000
 791.86;  -36.150;  -60.380;    0.000;24.23000
 792.11;  -32.670;  -63.000;    0.000;30.33000
 792.37;  -40.650;  -71.430;    0.000;30.78000
 792.62;  -39.425;  -70.745;    0.000;31.32000
 792.88;  -38.200;  -70.060;    0.000;31.86000
 793.13;  -30.520;  -70.130;    0.000;39.61000
 793.39;  -40.550;  -73.500;    0.000;32.95000
 793.64;  -40.640;  -78.890;    0.000;38.25000
 793.90;  -28.330;  -64.800;    0.000;36.47000
 794.15;  -34.640;  -62.780;    0.000;28.14000
 794.41;  -34.830;  -61.310;    0.000;26.48000
 794.66;  -32.350;  -62.340;    0.000;29.99000
 794.92;  -39.360;  -63.470;    0.000;24.11000
 795.17;  -48.790;  -78.030;    0.000;29.24000
 795.43;  -50.110;  -81.320;    0.000;31.21000
 795.68;  -33.470;  -65.590;    0.000;32.12000
 795.94;  -36.280;  -63.900;    0.000;27.62000
 796.19;  -34.180;  -67.970;    0.000;33.79000
 796.44;  -30.220;  -76.220;    0.000;46.00000
 796.70;  -38.090;  -65.720;    0.000;27.63000
 796.95;  -34.050;  -54.340;    0.000;20.29000
 797.21;  -45.240;  -80.910;    0.000;35.67000
 797.46;  -44.220;  -78.690;    0.000;34.47000
 797.72;  -47.040;  -82.870;    0.000;35.83000
 797.97;  -49.450;  -82.520;    0.000;33.07000
 798.23;  -52.080;  -76.920;    0.000;24.84000
 798.48;  -31.890;  -63.290;    0.000;31.40000
 798.74;  -44.770;  -71.360;    0.000;26.59000
 798.99;  -39.300;  -74.330;    0.000;35.03000
 799.24;  -45.060;  -71.830;    0.000;26.77000
 799.50;  -35.710;  -63.300;    0.000;27.59000
 799.75;  -41.090;  -68.600;    0.000;27.51000
 800.01;  -42.910;  -68.250;    0.000;25.34000
 800.26;  -58.720;  -80.860;    0.000;22.14000
 800.52;  -34.600;  -72.700;    0.000;38.10000
 800.77;  -51.400;  -78.340;    0.000;26.93999
 801.02;  -48.620;  -78.570;    0.000;29.95000
 801.28;  -55.490;  -84.840;    0.000;29.34999
 801.53;  -33.190;  -60.400;    0.000;27.21000
 801.79;  -44.290;  -67.370;    0.000;23.08000
 802.04;  -46.570;  -68.440;    0.000;21.87000
 802.29;  -47.270;  -75.880;    0.000;28.61000
 802.55;  -47.610;  -61.940;    0.000;14.33000
 802.80;  -36.860;  -70.790;    0.000;33.93000
 803.06;  -34.790;  -66.900;    0.000;32.11000
 803.31;  -54.590;  -70.290;    0.000;15.70000
 803.56;  -43.530;  -66.680;    0.000;23.15000
 803.82;  -41.660;  -76.730;    0.000;35.07000
 804.07;  -47.730;  -70.630;    0.000;22.90000
 804.32;  -43.640;  -78.040;    0.000;34.40000
 804.58;  -58.480;  -75.000;    0.000;16.52000
 804.83;  -46.990;  -76.500;    0.000;29.51000
 805.09;  -48.480;  -63.990;    0.000;15.51000
 805.34;  -49.310;  -69.630;    0.000;20.32000
 805.59;  -43.290;  -58.930;    0.000;15.64000
 805.85;  -52.810;  -80.680;    0.000;27.87000
 806.10;  -50.330;  -65.530;    0.000;15.20000
 806.35;  -42.290;  -67.770;    0.000;25.48000
 806.61;  -44.440;  -75.980;    0.000;31.54000
 806.86;  -62.450;  -79.500;    0.000;17.05000
 807.11;  -42.330;  -62.610;    0.000;20.28000
 807.37;  -40.890;  -56.160;    0.000;15.27000
 807.62;  -52.580;  -77.550;    0.000;24.97000
 807.87;  -48.380;  -71.820;    0.000;23.44000
 808.13;  -48.420;  -73.880;    0.000;25.46000
 808.38;  -61.670;  -72.370;    0.000;10.70000
 808.63;  -46.020;  -66.890;    0.000;20.87000
 808.89;  -52.580;  -81.230;    0.000;28.65000
 809.14;  -61.210;  -74.120;    0.000;12.91000
 809.39;  -60.570;  -88.710;    0.000;28.14000
 809.65;  -60.480;  -69.050;    0.000; 8.57000
 809.90;  -52.010;  -83.440;    0.000;31.43000
 810.15;  -57.420;  -78.660;    0.000;21.24001
 810.41;  -57.120;  -68.470;    0.000;11.35000
 810.66;  -47.840;  -70.200;    0.000;22.36000
 810.91;  -55.210;  -69.770;    0.000;14.56000
 811.16;  -51.840;  -74.940;    0.000;23.10000
 811.42;  -50.130;  -71.010;    0.000;20.88000
 811.67;  -52.360;  -72.410;    0.000;20.05000
 811.92;  -53.660;  -82.960;    0.000;29.30000
 812.18;  -42.010;  -69.050;    0.000;27.04000
 812.43;  -61.240;  -77.030;    0.000;15.79000
 812.68;  -48.240;  -69.130;    0.000;20.89000
 812.93;  -62.490;  -81.060;    0.000;18.57000
 813.19;  -46.010;  -57.500;    0.000;11.49000
 813.44;  -58.770;  -78.150;    0.000;19.38000
 813.69;  -42.290;  -60.290;    0.000;18.00000
 813.95;  -59.950;  -72.300;    0.000;12.35000
 814.20;  -52.840;  -69.340;    0.000;16.50000
 814.45;  -57.280;  -82.170;    0.000;24.89000
 814.70;  -45.300;  -61.380;    0.000;16.08000
 814.96;  -59.630;  -78.600;    0.000;18.97000
 815.21;  -46.000;  -69.070;    0.000;23.07000
 815.46;  -59.540;  -77.560;    0.000;18.02000
 815.71;  -49.290;  -70.640;    0.000;21.35000
 815.96;  -62.240;  -73.920;    0.000;11.68000
 816.22;  -58.950;  -75.550;    0.000;16.60000
 816.47;  -55.170;  -75.610;    0.000;20.44000
 816.72;  -55.620;  -64.380;    0.000; 8.76000
 816.97;  -54.270;  -69.030;    0.000;14.76000
 817.23;  -40.630;  -58.770;    0.000;18.14000
 817.48;  -54.680;  -72.640;    0.000;17.96000
 817.73;  -53.600;  -68.910;    0.000;15.31001
 817.98;  -45.640;  -62.500;    0.000;16.86000
 818.23;  -45.200;  -69.600;    0.000;24.40000
 818.49;  -66.700;  -82.830;    0.000;16.13000
 818.74;  -39.770;  -63.160;    0.000;23.39000
 818.99;  -56.950;  -76.980;    0.000;20.03000
 819.24;  -46.520;  -56.900;    0.000;10.38000
 819.50;  -69.600;  -85.700;    0.000;16.10000
 819.75;  -47.950;  -58.460;    0.000;10.51000
 820.00;  -38.470;  -51.580;    0.000;13.11000
 820.25;  -57.110;  -76.950;    0.000;19.84000
 820.50;  -65.030;  -76.040;    0.000;11.01000
 820.75;  -45.060;  -58.290;    0.000;13.23000
 821.01;  -62.260;  -72.980;    0.000;10.72001
 821.26;  -51.160;  -61.870;    0.000;10.71000
 821.51;  -60.280;  -75.230;    0.000;14.95000
 821.76;  -52.970;  -74.500;    0.000;21.53000
 822.01;  -49.800;  -69.050;    0.000;19.25000
 822.26;  -57.460;  -75.290;    0.000;17.83000
 822.52;  -56.020;  -75.780;    0.000;19.76000
 822.77;  -55.420;  -73.230;    0.000;17.81001
 823.02;  -61.700;  -82.200;    0.000;20.50000
 823.27;  -63.330;  -74.650;    0.000;11.32000
 823.52;  -59.290;  -83.590;    0.000;24.30000
 823.77;  -60.740;  -71.930;    0.000;11.19000
 824.03;  -52.040;  -66.100;    0.000;14.06000
 824.28;  -59.570;  -73.830;    0.000;14.26000
 824.53;  -55.750;  -76.580;    0.000;20.83000
 824.78;  -45.040;  -73.800;    0.000;28.76000
 825.03;  -69.930;  -81.540;    0.000;11.61000
 825.28;  -61.000;  -77.210;    0.000;16.21000
 825.53;  -58.610;  -74.480;    0.000;15.87000
 825.78;  -50.370;  -64.840;    0.000;14.47000
 826.04;  -57.900;  -71.720;    0.000;13.82000
 826.29;  -56.350;  -69.860;    0.000;13.51000
 826.54;  -61.410;  -78.410;    0.000;17.00000
 826.79;  -53.050;  -73.020;    0.000;19.97000
 827.04;  -71.640;  -84.000;    0.000;12.36000
 827.29;  -61.470;  -74.210;    0.000;12.74000
 827.54;  -59.380;  -73.620;    0.000;14.24000
 827.79;  -62.240;  -70.830;    0.000; 8.59000
 828.04;  -55.550;  -72.100;    0.000;16.55000
 828.29;  -58.820;  -67.810;    0.000; 8.99000
 828.55;  -60.920;  -72.130;    0.000;11.21000
 828.80;  -58.610;  -71.180;    0.000;12.57000
 829.05;  -70.750;  -70.120;    0.000;-0.63000
 829.30;  -59.800;  -79.380;    0.000;19.58000
 829.55;  -70.970;  -77.730;    0.000; 6.76000
 829.80;  -54.500;  -69.970;    0.000;15.47000
 830.05;  -59.450;  -71.210;    0.000;11.76000
 830.30;  -66.780;  -74.490;    0.000; 7.71000
 830.55;  -61.680;  -73.870;    0.000;12.19000
 830.80;  -61.910;  -72.120;    0.000;10.21000
 831.05;  -64.130;  -73.240;    0.000; 9.11000
 831.30;  -49.020;  -61.610;    0.000;12.59000
 831.55;  -48.660;  -72.070;    0.000;23.41000
 831.80;  -61.220;  -76.090;    0.000;14.87000
 832.05;  -60.020;  -72.350;    0.000;12.33000
 832.30;  -49.490;  -56.990;    0.000; 7.50000
 832.56;  -65.370;  -74.880;    0.000; 9.50999
 832.81;  -77.200;  -81.530;    0.000; 4.33000
 833.06;  -57.710;  -70.100;    0.000;12.39000
 833.31;  -69.240;  -72.540;    0.000; 3.30000
 833.56;  -64.700;  -79.370;    0.000;14.67001
 833.81;  -60.480;  -71.960;    0.000;11.48000
 834.06;  -62.960;  -76.960;    0.000;14.00000
 834.31;  -61.200;  -78.130;    0.000;16.93000
 834.56;  -52.730;  -66.970;    0.000;14.24000
 834.81;  -75.760;  -83.940;    0.000; 8.18000
 835.06;  -67.980;  -84.050;    0.000;16.07000
 835.31;  -55.190;  -64.180;    0.000; 8.99000
 835.56;  -59.230;  -70.370;    0.000;11.14000
 835.81;  -59.610;  -67.350;    0.000; 7.74000
 836.06;  -55.500;  -63.940;    0.000; 8.44000
 836.31;  -68.100;  -73.980;    0.000; 5.88000
 836.56;  -66.750;  -79.330;    0.000;12.58000
 836.81;  -61.800;  -71.010;    0.000; 9.21000
 837.06;  -52.950;  -63.870;    0.000;10.92000
 837.31;  -66.610;  -74.940;    0.000; 8.33000
 837.56;  -70.960;  -88.560;    0.000;17.60000
 837.81;  -55.550;  -68.370;    0.000;12.82000
 838.06;  -63.770;  -79.050;    0.000;15.28000
 838.31;  -74.880;  -77.890;    0.000; 3.01000
 838.56;  -79.720;  -87.890;    0.000; 8.17000
 838.80;  -66.850;  -74.450;    0.000; 7.60000
 839.05;  -66.820;  -72.720;    0.000; 5.90000
 839.30;  -73.010;  -81.530;    0.000; 8.52000
 839.55;  -64.120;  -74.880;    0.000;10.75999
 839.80;  -52.960;  -72.710;    0.000;19.75000
 840.05;  -76.210;  -77.730;    0.000; 1.52000
 840.30;  -47.600;  -62.950;    0.000;15.35000
 840.55;  -63.520;  -77.380;    0.000;13.86000
 840.80;  -51.980;  -60.500;    0.000; 8.52000
 841.05;  -65.710;  -77.450;    0.000;11.74000
 841.30;  -54.110;  -64.750;    0.000;10.64000
 841.55;  -79.230;  -82.380;    0.000; 3.14999
 841.80;  -71.150;  -80.340;    0.000; 9.18999
 842.05;  -80.240;  -93.420;    0.000;13.18000
 842.30;  -63.820;  -72.220;    0.000; 8.40000
 842.55;  -62.910;  -72.190;    0.000; 9.28000
 842.79;  -71.100;  -78.840;    0.000; 7.74000
 843.04;  -53.820;  -63.610;    0.000; 9.79000
 843.29;  -61.400;  -70.050;    0.000; 8.65000
 843.54;  -58.820;  -72.130;    0.000;13.31000
 843.79;  -72.860;  -77.040;    0.000; 4.18000
 844.04;  -54.690;  -74.220;    0.000;19.53000
 844.29;  -58.860;  -71.690;    0.000;12.83000
 844.54;  -59.800;  -78.650;    0.000;18.85000
 844.79;  -62.750;  -76.030;    0.000;13.28000
 845.04;  -64.410;  -70.190;    0.000; 5.78000
 845.28;  -67.580;  -74.780;    0.000; 7.20000
 845.53;  -66.060;  -75.020;    0.000; 8.96000
 845.78;  -50.580;  -59.080;    0.000; 8.50000
 846.03;  -66.660;  -74.510;    0.000; 7.85000
 846.28;  -64.910;  -70.160;    0.000; 5.25000
 846.53;  -54.450;  -58.960;    0.000; 4.51000
 846.78;  -62.110;  -73.040;    0.000;10.93000
 847.02;  -51.970;  -58.760;    0.000; 6.79000
 847.27;  -61.280;  -67.500;    0.000; 6.22000
 847.52;  -66.650;  -80.170;    0.000;13.52000
 847.77;  -64.070;  -75.890;    0.000;11.82000
 848.02;  -71.240;  -79.510;    0.000; 8.27000
 848.27;  -68.400;  -72.730;    0.000; 4.33000
 848.52;  -68.340;  -80.850;    0.000;12.51000
 848.76;  -53.230;  -60.510;    0.000; 7.28000
 849.01;  -61.360;  -78.490;    0.000;17.13000
 849.26;  -70.980;  -76.380;    0.000; 5.39999
 849.51;  -59.710;  -72.410;    0.000;12.70000
 849.76;  -63.820;  -75.550;    0.000;11.73000
 850.01;  -77.200;  -83.570;    0.000; 6.37000
 850.25;  -61.140;  -69.620;    0.000; 8.48000
 850.50;  -68.930;  -82.060;    0.000;13.13000
 850.75;  -57.800;  -65.940;    0.000; 8.14000
 851.00;  -75.210;  -76.370;    0.000; 1.16000
 851.25;  -66.950;  -68.640;    0.000; 1.69000
 851.49;  -71.500;  -80.630;    0.000; 9.13000
 851.74;  -75.250;  -74.970;    0.000;-0.28000
 851.99;  -68.130;  -73.100;    0.000; 4.97000
 852.24;  -62.090;  -77.500;    0.000;15.41000
 852.49;  -76.880;  -79.380;    0.000; 2.50000
 852.73;  -74.150;  -78.890;    0.000; 4.74000
 852.98;  -70.600;  -74.210;    0.000; 3.61000
 853.23;  -62.780;  -76.100;    0.000;13.32000
 853.48;  -79.540;  -81.410;    0.000; 1.87000
 853.73;  -66.130;  -76.970;    0.000;10.84000
 853.97;  -64.910;  -75.100;    0.000;10.18999
 854.22;  -70.690;  -76.230;    0.000; 5.54000
 854.47;  -74.120;  -82.400;    0.000; 8.28000
 854.72;  -65.940;  -68.920;    0.000; 2.98000
 854.96;  -66.240;  -78.580;    0.000;12.34000
 855.21;  -64.700;  -71.010;    0.000; 6.31001
 855.46;  -52.440;  -59.170;    0.000; 6.73000
 855.71;  -79.130;  -85.800;    0.000; 6.67001
 855.95;  -65.350;  -74.110;    0.000; 8.76000
 856.20;  -65.480;  -72.760;    0.000; 7.28000
 856.45;  -74.430;  -85.610;    0.000;11.18000
 856.70;  -69.180;  -70.870;    0.000; 1.69000
 856.94;  -73.680;  -79.390;    0.000; 5.71000
 857.19;  -57.060;  -64.950;    0.000; 7.89000
 857.44;  -70.060;  -74.140;    0.000; 4.08000
 857.69;  -65.190;  -74.080;    0.000; 8.89000
 857.93;  -74.590;  -72.170;    0.000;-2.42000
 858.18;  -58.520;  -65.400;    0.000; 6.88000
 858.43;  -69.850;  -74.950;    0.000; 5.10000
 858.67;  -52.200;  -62.950;    0.000;10.75000
 858.92;  -69.950;  -76.360;    0.000; 6.41000
 859.17;  -16.170;  -54.150;    0.000;37.98000
 859.42;  -76.950;  -78.880;    0.000; 1.93000
 859.66;  -73.130;  -79.670;    0.000; 6.54000
 859.91;  -68.150;  -75.430;    0.000; 7.28000
 860.16;  -81.350;  -85.150;    0.000; 3.80000
 860.40;  -67.290;  -73.870;    0.000; 6.58000
 860.65;  -70.340;  -76.580;    0.000; 6.24001
 860.90;  -75.560;  -87.770;    0.000;12.21000
 861.14;  -75.990;  -79.050;    0.000; 3.06001
 861.39;  -80.450;  -79.040;    0.000;-1.41000
 861.64;  -69.180;  -69.400;    0.000; 0.22000
 861.88;  -81.140;  -85.710;    0.000; 4.57000
 862.13;  -61.750;  -71.250;    0.000; 9.50000
 862.38;  -79.000;  -85.130;    0.000; 6.13000
 862.62;  -67.130;  -73.110;    0.000; 5.98000
 862.87;  -74.160;  -74.050;    0.000;-0.11000
 863.12;  -72.210;  -85.480;    0.000;13.27000
 863.36;  -69.950;  -77.780;    0.000; 7.83000
 863.61;  -70.220;  -70.330;    0.000; 0.11000
 863.86;  -76.620;  -83.090;    0.000; 6.46999
 864.10;  -74.830;  -74.370;    0.000;-0.46000
 864.35;  -74.890;  -78.440;    0.000; 3.55000
 864.60;  -69.000;  -76.350;    0.000; 7.35000
 864.84;  -69.790;  -78.230;    0.000; 8.44000
 865.09;  -58.720;  -66.680;    0.000; 7.96000
 865.33;  -73.160;  -82.700;    0.000; 9.53999
 865.58;  -57.100;  -67.180;    0.000;10.08000
 865.83;  -69.300;  -80.080;    0.000;10.78000
 866.07;  -71.770;  -81.320;    0.000; 9.55000
 866.32;  -52.050;  -54.500;    0.000; 2.45000
 866.57;  -61.940;  -70.470;    0.000; 8.53000
 866.81;  -77.190;  -82.540;    0.000; 5.35000
 867.06;  -73.120;  -77.360;    0.000; 4.24000
 867.30;  -74.910;  -83.760;    0.000; 8.85000
 867.55;  -72.260;  -80.860;    0.000; 8.60000
 867.80;  -68.080;  -70.830;    0.000; 2.75000
 868.04;  -71.650;  -70.790;    0.000;-0.86000
 868.29;  -73.150;  -74.480;    0.000; 1.33000
 868.53;  -62.430;  -69.440;    0.000; 7.01000
 868.78;  -80.220;  -84.070;    0.000; 3.85000
 869.03;  -55.480;  -68.510;    0.000;13.03000
 869.27;  -71.750;  -77.050;    0.000; 5.30000
 869.52;  -73.600;  -83.420;    0.000; 9.82000
 869.76;  -69.570;  -67.410;    0.000;-2.16000
 870.01;  -58.960;  -67.550;    0.000; 8.59000
 870.25;  -57.360;  -65.140;    0.000; 7.78000
 870.50;  -63.590;  -70.290;    0.000; 6.70000
 870.75;  -79.380;  -82.930;    0.000; 3.55000
 870.99;  -69.150;  -70.660;    0.000; 1.51000
 871.24;  -75.620;  -80.160;    0.000; 4.54000
 871.48;  -70.470;  -69.890;    0.000;-0.58000
 871.73;  -67.750;  -75.060;    0.000; 7.31000
 871.97;  -74.000;  -77.380;    0.000; 3.38000
 872.22;  -77.720;  -80.500;    0.000; 2.78000
 872.46;  -64.750;  -68.790;    0.000; 4.04000
 872.71;  -76.910;  -83.910;    0.000; 7.00000
 872.95;  -67.190;  -67.870;    0.000; 0.68000
 873.20;  -71.200;  -72.490;    0.000; 1.29000
 873.44;  -56.880;  -65.600;    0.000; 8.72000
 873.69;  -85.370;  -86.780;    0.000; 1.41000
 873.94;  -62.210;  -68.320;    0.000; 6.11000
 874.18;  -80.210;  -81.740;    0.000; 1.53000
 874.43;  -68.350;  -78.500;    0.000;10.15000
 874.67;  -73.060;  -79.530;    0.000; 6.47000
 874.92;  -53.680;  -61.980;    0.000; 8.30000
 875.16;  -81.330;  -71.600;    0.000;-9.73000
 875.41;  -71.510;  -74.550;    0.000; 3.04000
 875.65;  -74.040;  -72.820;    0.000;-1.22000
 875.90;  -58.020;  -57.710;    0.000;-0.31000
 876.14;  -68.780;  -85.280;    0.000;16.50000
 876.39;  -64.790;  -68.330;    0.000; 3.54000
 876.63;  -75.430;  -80.430;    0.000; 5.00000
 876.88;  -67.310;  -67.830;    0.000; 0.52000
 877.12;  -77.320;  -78.920;    0.000; 1.60000
 877.36;  -69.660;  -70.470;    0.000; 0.81000
 877.61;  -72.510;  -72.490;    0.000;-0.02000
 877.85;  -68.980;  -67.300;    0.000;-1.68000
 878.10;  -65.610;  -68.070;    0.000; 2.46000
 878.34;  -62.990;  -65.220;    0.000; 2.23000
 878.59;  -63.090;  -74.140;    0.000;11.05000
 878.83;  -70.130;  -77.480;    0.000; 7.35001
 879.08;  -57.660;  -71.810;    0.000;14.15000
 879.32;  -80.310;  -75.140;    0.000;-5.17000
 879.57;  -53.430;  -61.580;    0.000; 8.15000
 879.81;  -72.000;  -78.450;    0.000; 6.45000
 880.05;  -64.790;  -62.330;    0.000;-2.46000
 880.30;  -65.630;  -69.030;    0.000; 3.40000
 880.54;  -70.420;  -74.620;    0.000; 4.20000
 880.79;  -70.550;  -74.890;    0.000; 4.34000
 881.03;  -71.180;  -76.740;    0.000; 5.56000
 881.28;  -55.090;  -61.820;    0.000; 6.73000
 881.52;  -74.050;  -78.630;    0.000; 4.57999
 881.76;  -68.970;  -63.620;    0.000;-5.35000
 882.01;  -67.690;  -70.160;    0.000; 2.47000
 882.25;  -68.390;  -70.020;    0.000; 1.63000
 882.50;  -76.930;  -76.690;    0.000;-0.24000
 882.74;  -61.090;  -58.310;    0.000;-2.78000
 882.98;  -73.720;  -71.460;    0.000;-2.26000
 883.23;  -67.760;  -72.830;    0.000; 5.07000
 883.47;  -67.830;  -64.540;    0.000;-3.29000
 883.72;  -65.020;  -63.640;    0.000;-1.38000
 883.96;  -54.910;  -69.160;    0.000;14.25000
 884.20;  -65.720;  -72.280;    0.000; 6.56000
 884.45;  -62.550;  -69.830;    0.000; 7.28000
 884.69;  -61.900;  -54.450;    0.000;-7.45000
 884.94;  -45.100;  -57.560;    0.000;12.46000
 885.18;  -66.840;  -68.170;    0.000; 1.33000
 885.42;  -69.380;  -70.470;    0.000; 1.09000
 885.67;  -57.020;  -65.500;    0.000; 8.48000
 885.91;  -74.280;  -76.290;    0.000; 2.01000
 886.15;  -69.040;  -70.610;    0.000; 1.57000
 886.40;  -62.130;  -66.170;    0.000; 4.04000
 886.64;  -63.330;  -68.810;    0.000; 5.48000
 886.88;  -69.460;  -75.520;    0.000; 6.06000
 887.13;  -50.790;  -61.410;    0.000;10.62000
 887.37;  -75.280;  -76.880;    0.000; 1.60000
 887.62;  -52.200;  -56.020;    0.000; 3.82000
 887.86;  -60.740;  -70.890;    0.000;10.15000
 888.10;  -59.140;  -64.840;    0.000; 5.70000
 888.35;  -62.310;  -61.600;    0.000;-0.71000
 888.59;  -57.790;  -64.870;    0.000; 7.08000
 888.83;  -66.660;  -68.950;    0.000; 2.28999
 889.07;  -62.220;  -59.470;    0.000;-2.75000
 889.32;  -60.870;  -70.170;    0.000; 9.30000
 889.56;  -70.930;  -62.350;    0.000;-8.58000
 889.80;  -55.530;  -60.710;    0.000; 5.18000
 890.05;  -61.310;  -57.640;    0.000;-3.67000
 890.29;  -61.700;  -66.700;    0.000; 5.00000
 890.53;  -54.590;  -66.790;    0.000;12.20000
 890.78;  -65.500;  -62.500;    0.000;-3.00000
 891.02;  -52.740;  -56.430;    0.000; 3.69000
 891.26;  -66.140;  -68.100;    0.000; 1.96000
 891.51;  -60.500;  -54.610;    0.000;-5.89000
 891.75;  -56.910;  -53.430;    0.000;-3.48000
 891.99;  -59.150;  -66.610;    0.000; 7.46000
 892.23;  -66.460;  -69.110;    0.000; 2.65000
 892.48;  -47.560;  -50.770;    0.000; 3.21000
 892.72;  -54.290;  -55.570;    0.000; 1.28000
 892.96;  -51.660;  -53.150;    0.000; 1.49000
 893.20;  -62.550;  -64.400;    0.000; 1.85000
 893.45;  -60.180;  -60.030;    0.000;-0.15000
 893.69;  -57.910;  -62.920;    0.000; 5.01000
 893.93;  -50.970;  -48.190;    0.000;-2.78000
 894.17;  -54.480;  -57.110;    0.000; 2.63000
 894.42;  -56.150;  -58.560;    0.000; 2.41000
 894.66;  -51.140;  -56.160;    0.000; 5.02000
 894.90;  -47.030;  -44.390;    0.000;-2.64000
 895.14;  -48.010;  -54.700;    0.000; 6.69000
 895.39;  -50.580;  -54.160;    0.000; 3.58000
 895.63;  -40.490;  -46.130;    0.000; 5.64000
 895.87;  -50.020;  -45.090;    0.000;-4.93000
 896.11;  -41.870;  -47.000;    0.000; 5.13000
 896.36;  -37.940;  -40.580;    0.000; 2.64000
 896.60;  -60.490;  -64.630;    0.000; 4.14000
 896.84;  -30.940;  -34.960;    0.000; 4.02000
 897.08;  -34.650;  -41.800;    0.000; 7.15000
 897.32;  -38.530;  -37.560;    0.000;-0.97000
 897.57;  -41.000;  -42.160;    0.000; 1.16000
 897.81;  -44.230;  -39.390;    0.000;-4.84000
 898.05;  -40.760;  -41.300;    0.000; 0.54000
 898.29;  -33.300;  -35.390;    0.000; 2.09000
 898.53;  -39.370;  -37.290;    0.000;-2.08000
 898.78;  -32.190;  -33.330;    0.000; 1.14000
 899.02;  -34.790;  -30.870;    0.000;-3.92000
 899.26;  -27.800;  -20.780;    0.000;-7.02000
 899.50;    1.760;  -10.960;    0.000;12.72000
 899.74;  -20.660;  -25.610;    0.000; 4.95000
 899.99;  -22.590;  -21.070;    0.000;-1.52000
 900.23;   -3.390;    2.230;    0.000;-5.62000
 900.47;  -19.240;  -20.220;    0.000; 0.98000
 900.71;   -5.680;   -2.550;    0.000;-3.13000
 900.95;    2.760;   -0.240;    0.000; 3.00000
 901.19;   10.930;   14.960;    0.000;-4.03000
 901.44;   22.450;    5.540;    0.000;16.91000
 901.68;   36.550;   31.200;    0.000; 5.35000
 901.92;   37.130;   34.600;    0.000; 2.53000
 902.16;   46.470;   46.190;    0.000; 0.28000
 902.40;   52.790;   56.140;    0.000;-3.35000
 902.64;   87.640;   82.740;    0.000; 4.90000
 902.88;   95.460;   92.020;    0.000; 3.44000
 903.13;  117.980;  105.920;    0.000;12.06001

