
Integration time [ms]:  10.000
Averaging Nr. [scans]: 100
Smoothing Nr. [pixels]: 0
Data measured with spectrometer [name]: 1307077U2
Wave   ;Sample   ;Dark     ;Reference;Scope Corrected for Dark
[nm]   ;[counts] ;[counts] ;[counts] 

 350.80;   12.880;    4.030;    0.000; 8.85000
 351.10;    2.410;   -4.180;    0.000; 6.59000
 351.39;    6.500;    2.470;    0.000; 4.03000
 351.69;   -4.340;   -5.160;    0.000; 0.82000
 351.99;    5.300;    6.180;    0.000;-0.88000
 352.28;    2.330;  -10.540;    0.000;12.87000
 352.58;   -1.480;    5.710;    0.000;-7.19000
 352.88;   -0.420;    5.210;    0.000;-5.63000
 353.17;    9.670;   14.010;    0.000;-4.34000
 353.47;   -4.220;   -9.550;    0.000; 5.33000
 353.76;    7.380;    8.350;    0.000;-0.97000
 354.06;   11.530;   -1.640;    0.000;13.17000
 354.36;    9.890;    3.130;    0.000; 6.76000
 354.65;   10.610;    2.490;    0.000; 8.12000
 354.95;    2.390;   -4.840;    0.000; 7.23000
 355.24;    0.780;   -6.230;    0.000; 7.01000
 355.54;    1.730;    5.960;    0.000;-4.23000
 355.84;    5.160;   -2.430;    0.000; 7.59000
 356.13;   18.650;   14.640;    0.000; 4.01000
 356.43;   -2.110;  -16.650;    0.000;14.54000
 356.72;    5.130;   -2.860;    0.000; 7.99000
 357.02;   -0.020;   -4.950;    0.000; 4.93000
 357.31;   14.040;   15.180;    0.000;-1.14000
 357.61;    5.090;    0.860;    0.000; 4.23000
 357.91;   -6.840;   -0.030;    0.000;-6.81000
 358.20;   -5.700;   -6.640;    0.000; 0.94000
 358.50;    1.380;   -1.800;    0.000; 3.18000
 358.79;   -5.030;   -6.380;    0.000; 1.35000
 359.09;   18.730;    7.630;    0.000;11.10000
 359.38;    2.980;   -4.280;    0.000; 7.26000
 359.68;  -10.570;   -3.990;    0.000;-6.58000
 359.98;    4.700;   -9.890;    0.000;14.59000
 360.27;    6.770;    3.120;    0.000; 3.65000
 360.57;   -4.900;   -9.860;    0.000; 4.96000
 360.86;    6.100;    4.120;    0.000; 1.98000
 361.16;   -2.430;   -9.770;    0.000; 7.34000
 361.45;   10.850;   -2.580;    0.000;13.43000
 361.75;   -0.070;   -7.950;    0.000; 7.88000
 362.04;   23.930;   21.750;    0.000; 2.18000
 362.34;    0.150;  -10.000;    0.000;10.15000
 362.64;    1.180;    2.910;    0.000;-1.73000
 362.93;    2.820;   -9.640;    0.000;12.46000
 363.23;   -3.060;   -0.950;    0.000;-2.11000
 363.52;   -4.410;   -9.960;    0.000; 5.55000
 363.82;    3.640;   -1.210;    0.000; 4.85000
 364.11;    7.960;   -0.330;    0.000; 8.29000
 364.41;   -4.550;   -7.080;    0.000; 2.53000
 364.70;   -4.140;   -9.350;    0.000; 5.21000
 365.00;    9.680;    2.780;    0.000; 6.90000
 365.29;    1.490;   -8.860;    0.000;10.35000
 365.59;   10.320;   -0.230;    0.000;10.55000
 365.88;    1.800;  -13.770;    0.000;15.57000
 366.18;    9.150;   -0.050;    0.000; 9.20000
 366.47;   -0.330;   -8.130;    0.000; 7.80000
 366.77;    0.960;    1.200;    0.000;-0.24000
 367.06;    4.730;   -5.020;    0.000; 9.75000
 367.36;    6.210;    8.050;    0.000;-1.84000
 367.65;    1.640;   -3.440;    0.000; 5.08000
 367.95;    3.000;   -3.460;    0.000; 6.46000
 368.24;    5.190;   -6.160;    0.000;11.35000
 368.54;   -1.370;   -1.860;    0.000; 0.49000
 368.83;    6.920;    4.430;    0.000; 2.49000
 369.13;    8.660;    3.080;    0.000; 5.58000
 369.42;    1.050;   -7.200;    0.000; 8.25000
 369.72;    5.340;    1.890;    0.000; 3.45000
 370.01;   -9.630;   -8.200;    0.000;-1.43000
 370.31;    8.890;    5.490;    0.000; 3.40000
 370.60;   12.220;    5.190;    0.000; 7.03000
 370.90;    2.970;    2.280;    0.000; 0.69000
 371.19;   -9.360;  -14.890;    0.000; 5.53000
 371.49;    0.250;   -5.010;    0.000; 5.26000
 371.78;    3.320;  -15.390;    0.000;18.71000
 372.08;    4.850;   -0.720;    0.000; 5.57000
 372.37;   -0.120;   -7.980;    0.000; 7.86000
 372.67;   10.870;    7.150;    0.000; 3.72000
 372.96;   -0.710;   -8.630;    0.000; 7.92000
 373.26;    8.610;   -6.050;    0.000;14.66000
 373.55;    4.160;  -10.400;    0.000;14.56000
 373.85;   -3.810;   -8.440;    0.000; 4.63000
 374.14;    1.860;   -7.130;    0.000; 8.99000
 374.43;    3.040;    6.000;    0.000;-2.96000
 374.73;   -5.060;   -8.200;    0.000; 3.14000
 375.02;    5.920;    6.040;    0.000;-0.12000
 375.32;   -2.160;   -8.280;    0.000; 6.12000
 375.61;    3.940;   -4.320;    0.000; 8.26000
 375.91;   -2.240;  -10.610;    0.000; 8.37000
 376.20;   -8.630;  -11.900;    0.000; 3.27000
 376.50;   -3.130;   -8.930;    0.000; 5.80000
 376.79;   -9.910;  -11.570;    0.000; 1.66000
 377.08;   -2.540;  -17.270;    0.000;14.73000
 377.38;   -2.270;    3.140;    0.000;-5.41000
 377.67;    2.710;   -4.850;    0.000; 7.56000
 377.97;   -9.700;   -6.580;    0.000;-3.12000
 378.26;    8.530;  -11.160;    0.000;19.69000
 378.56;   -3.700;  -10.070;    0.000; 6.37000
 378.85;    2.930;   -2.180;    0.000; 5.11000
 379.14;   -0.020;   -4.480;    0.000; 4.46000
 379.44;    0.740;  -12.520;    0.000;13.26000
 379.73;   -3.180;   -1.390;    0.000;-1.79000
 380.03;    0.550;    1.420;    0.000;-0.87000
 380.32;   -4.990;   -7.470;    0.000; 2.48000
 380.62;   -0.470;  -18.470;    0.000;18.00000
 380.91;   11.330;    0.800;    0.000;10.53000
 381.20;    3.750;  -15.290;    0.000;19.04000
 381.50;   -2.770;   -1.950;    0.000;-0.82000
 381.79;  -10.920;  -15.050;    0.000; 4.13000
 382.09;   -2.730;    1.220;    0.000;-3.95000
 382.38;   -0.820;   -8.980;    0.000; 8.16000
 382.67;    0.740;   -6.760;    0.000; 7.50000
 382.97;   -6.810;   -7.720;    0.000; 0.91000
 383.26;    2.540;    1.020;    0.000; 1.52000
 383.56;    1.770;  -10.020;    0.000;11.79000
 383.85;   -1.290;   -6.070;    0.000; 4.78000
 384.14;    4.420;  -14.150;    0.000;18.57000
 384.44;   -9.210;   -0.890;    0.000;-8.32000
 384.73;    0.400;   -7.150;    0.000; 7.55000
 385.02;    2.720;   -2.920;    0.000; 5.64000
 385.32;    2.510;   -3.830;    0.000; 6.34000
 385.61;   -7.260;  -13.580;    0.000; 6.32000
 385.91;    5.380;   -9.020;    0.000;14.40000
 386.20;   -0.460;  -14.970;    0.000;14.51000
 386.49;  -13.210;  -15.310;    0.000; 2.10000
 386.79;    2.360;   -6.270;    0.000; 8.63000
 387.08;   -6.730;  -10.690;    0.000; 3.96000
 387.37;   -4.810;   -4.540;    0.000;-0.27000
 387.67;    0.460;  -13.490;    0.000;13.95000
 387.96;   -0.230;   -7.140;    0.000; 6.91000
 388.25;   -2.790;  -13.000;    0.000;10.21000
 388.55;   -2.570;  -11.590;    0.000; 9.02000
 388.84;    2.050;  -13.480;    0.000;15.53000
 389.14;   -2.490;   -4.870;    0.000; 2.38000
 389.43;   -4.460;   -7.270;    0.000; 2.81000
 389.72;   -5.390;   -3.600;    0.000;-1.79000
 390.02;   -4.270;  -15.150;    0.000;10.88000
 390.31;   -3.950;   -3.970;    0.000; 0.02000
 390.60;   -0.700;   -9.800;    0.000; 9.10000
 390.90;   -4.470;   -1.730;    0.000;-2.74000
 391.19;   -9.170;  -13.590;    0.000; 4.42000
 391.48;    1.030;   -4.990;    0.000; 6.02000
 391.78;   -1.920;   -6.390;    0.000; 4.47000
 392.07;   46.670;   36.750;    0.000; 9.92000
 392.36;    6.220;  -11.230;    0.000;17.45000
 392.66;    2.060;   -8.300;    0.000;10.36000
 392.95;   -1.570;  -19.820;    0.000;18.25000
 393.24;   -6.830;  -11.730;    0.000; 4.90000
 393.53;   -2.410;  -15.730;    0.000;13.32000
 393.83;   -8.290;  -10.950;    0.000; 2.66000
 394.12;  -10.060;  -16.390;    0.000; 6.33000
 394.41;  -11.170;   -7.450;    0.000;-3.72000
 394.71;   -3.200;  -12.950;    0.000; 9.75000
 395.00;   -2.140;   -7.620;    0.000; 5.48000
 395.29;   -4.900;   -8.310;    0.000; 3.41000
 395.59;  -11.970;  -13.230;    0.000; 1.26000
 395.88;   -5.870;   -9.550;    0.000; 3.68000
 396.17;   -8.210;  -10.600;    0.000; 2.39000
 396.46;   -2.960;   -2.150;    0.000;-0.81000
 396.76;   -5.600;   -5.400;    0.000;-0.20000
 397.05;    8.290;    1.250;    0.000; 7.04000
 397.34;   -7.050;  -12.160;    0.000; 5.11000
 397.64;   -3.800;  -11.990;    0.000; 8.19000
 397.93;   -9.140;  -10.290;    0.000; 1.15000
 398.22;  -12.610;  -20.930;    0.000; 8.32000
 398.51;    4.590;   -7.580;    0.000;12.17000
 398.81;  -10.610;  -17.770;    0.000; 7.16000
 399.10;    0.290;   -1.830;    0.000; 2.12000
 399.39;   -4.280;  -18.860;    0.000;14.58000
 399.69;   -3.860;   -9.380;    0.000; 5.52000
 399.98;   -0.550;  -11.540;    0.000;10.99000
 400.27;   -7.090;  -15.330;    0.000; 8.24000
 400.56;   -0.890;  -12.910;    0.000;12.02000
 400.86;   -7.390;  -10.400;    0.000; 3.01000
 401.15;   -1.470;   -6.510;    0.000; 5.04000
 401.44;   -7.330;  -10.610;    0.000; 3.28000
 401.73;   -3.650;   -7.690;    0.000; 4.04000
 402.03;   -6.060;   -4.040;    0.000;-2.02000
 402.32;  -10.630;  -19.160;    0.000; 8.53000
 402.61;   -8.140;   -1.730;    0.000;-6.41000
 402.90;  -16.310;  -16.990;    0.000; 0.68000
 403.20;   -6.100;   -2.910;    0.000;-3.19000
 403.49;    1.060;   -9.760;    0.000;10.82000
 403.78;   -1.600;  -11.610;    0.000;10.01000
 404.07;   -8.900;  -22.560;    0.000;13.66000
 404.37;   -2.540;  -12.400;    0.000; 9.86000
 404.66;   -4.860;  -17.920;    0.000;13.06000
 404.95;    4.060;   -3.130;    0.000; 7.19000
 405.24;   -9.290;  -14.390;    0.000; 5.10000
 405.53;  -13.290;   -6.780;    0.000;-6.51000
 405.83;   -1.990;  -12.330;    0.000;10.34000
 406.12;  -10.340;  -19.690;    0.000; 9.35000
 406.41;   10.360;   -3.820;    0.000;14.18000
 406.70;    3.780;   -6.390;    0.000;10.17000
 407.00;    0.270;  -17.760;    0.000;18.03000
 407.29;   -3.110;   -5.640;    0.000; 2.53000
 407.58;  -10.680;  -18.150;    0.000; 7.47000
 407.87;  -12.410;  -10.380;    0.000;-2.03000
 408.16;   -7.900;  -17.260;    0.000; 9.36000
 408.46;  -16.180;  -12.130;    0.000;-4.05000
 408.75;    0.940;  -15.780;    0.000;16.72000
 409.04;   -4.320;   -1.600;    0.000;-2.72000
 409.33;   -8.990;  -13.340;    0.000; 4.35000
 409.62;   -5.540;   -2.450;    0.000;-3.09000
 409.92;   -2.160;   -6.880;    0.000; 4.72000
 410.21;   -9.520;  -15.900;    0.000; 6.38000
 410.50;  -14.200;  -20.780;    0.000; 6.58000
 410.79;   -3.150;   -5.100;    0.000; 1.95000
 411.08;   -8.160;  -13.180;    0.000; 5.02000
 411.37;   -4.830;   -8.590;    0.000; 3.76000
 411.67;   -9.730;  -14.900;    0.000; 5.17000
 411.96;    1.900;  -12.600;    0.000;14.50000
 412.25;   -7.090;  -17.930;    0.000;10.84000
 412.54;   -0.920;  -12.620;    0.000;11.70000
 412.83;   -8.650;  -16.690;    0.000; 8.04000
 413.13;  -13.940;   -9.100;    0.000;-4.84000
 413.42;   -5.030;  -21.200;    0.000;16.17000
 413.71;    1.740;   -1.600;    0.000; 3.34000
 414.00;  -10.100;  -26.150;    0.000;16.05000
 414.29;   -5.830;   -3.360;    0.000;-2.47000
 414.58;  -10.770;  -19.610;    0.000; 8.84000
 414.87;  -10.330;  -12.000;    0.000; 1.67000
 415.17;  -14.250;  -17.230;    0.000; 2.98000
 415.46;   -6.390;   -8.680;    0.000; 2.29000
 415.75;   -1.190;   -6.700;    0.000; 5.51000
 416.04;   -0.030;  -10.910;    0.000;10.88000
 416.33;   -1.160;  -11.250;    0.000;10.09000
 416.62;   -3.800;  -15.020;    0.000;11.22000
 416.91;   -3.720;  -12.540;    0.000; 8.82000
 417.21;   -6.480;  -13.820;    0.000; 7.34000
 417.50;   -6.420;  -22.670;    0.000;16.25000
 417.79;   -0.320;  -14.150;    0.000;13.83000
 418.08;   -6.740;  -22.610;    0.000;15.87000
 418.37;   -2.630;   -8.440;    0.000; 5.81000
 418.66;  -12.920;  -12.690;    0.000;-0.23000
 418.95;    9.980;   -4.060;    0.000;14.04000
 419.24;  -13.490;  -16.540;    0.000; 3.05000
 419.54;   -1.400;   -4.710;    0.000; 3.31000
 419.83;   -3.950;  -17.210;    0.000;13.26000
 420.12;  -10.100;   -9.330;    0.000;-0.77000
 420.41;    0.440;   -1.720;    0.000; 2.16000
 420.70;   -7.150;  -12.920;    0.000; 5.77000
 420.99;   -5.710;  -13.160;    0.000; 7.45000
 421.28;   -4.600;   -9.530;    0.000; 4.93000
 421.57;   -5.720;  -19.200;    0.000;13.48000
 421.86;    7.030;   -0.530;    0.000; 7.56000
 422.16;   -8.780;  -11.590;    0.000; 2.81000
 422.45;   -5.710;  -15.740;    0.000;10.03000
 422.74;  -15.750;  -14.600;    0.000;-1.15000
 423.03;   -0.860;   -1.000;    0.000; 0.14000
 423.32;   -7.570;  -19.120;    0.000;11.55000
 423.61;    7.730;   -1.410;    0.000; 9.14000
 423.90;   -1.720;  -14.280;    0.000;12.56000
 424.19;   23.190;   17.330;    0.000; 5.86000
 424.48;   -2.900;  -13.500;    0.000;10.60000
 424.77;   -5.600;   -7.810;    0.000; 2.21000
 425.06;   -1.220;  -11.550;    0.000;10.33000
 425.35;   -3.270;   -2.890;    0.000;-0.38000
 425.65;  -11.960;  -19.130;    0.000; 7.17000
 425.94;   -2.470;  -14.880;    0.000;12.41000
 426.23;  -16.750;  -24.160;    0.000; 7.41000
 426.52;   -3.720;  -15.130;    0.000;11.41000
 426.81;    2.420;   -2.380;    0.000; 4.80000
 427.10;   -5.030;  -14.170;    0.000; 9.14000
 427.39;   -8.750;  -18.300;    0.000; 9.55000
 427.68;   -6.650;   -9.370;    0.000; 2.72000
 427.97;   -2.590;  -14.330;    0.000;11.74000
 428.26;   -7.870;  -19.050;    0.000;11.18000
 428.55;    5.680;   -8.910;    0.000;14.59000
 428.84;   -0.580;   -4.380;    0.000; 3.80000
 429.13;   -7.720;  -14.120;    0.000; 6.40000
 429.42;    1.670;   -1.830;    0.000; 3.50000
 429.71;   -8.600;  -11.710;    0.000; 3.11000
 430.00;   -5.310;  -13.910;    0.000; 8.60000
 430.29;  -13.540;  -25.330;    0.000;11.79000
 430.58;  -10.870;  -14.890;    0.000; 4.02000
 430.87;   -2.170;  -16.420;    0.000;14.25000
 431.16;  -17.870;  -20.530;    0.000; 2.66000
 431.46;   -8.930;  -12.910;    0.000; 3.98000
 431.75;   -7.420;  -19.130;    0.000;11.71000
 432.04;    5.020;   -8.890;    0.000;13.91000
 432.33;   -3.420;  -20.210;    0.000;16.79000
 432.62;    1.580;   -9.300;    0.000;10.88000
 432.91;   -8.330;  -13.020;    0.000; 4.69000
 433.20;   -4.730;  -18.270;    0.000;13.54000
 433.49;   -6.850;  -14.130;    0.000; 7.28000
 433.78;  -19.970;  -23.820;    0.000; 3.85000
 434.07;   -2.540;  -16.610;    0.000;14.07000
 434.36;  -12.160;  -16.950;    0.000; 4.79000
 434.65;  -13.950;  -27.030;    0.000;13.08000
 434.94;  -12.990;  -19.310;    0.000; 6.32000
 435.23;   -0.540;   -5.090;    0.000; 4.55000
 435.52;   -4.390;  -13.640;    0.000; 9.25000
 435.81;   -2.500;   -6.560;    0.000; 4.06000
 436.10;   -6.460;  -18.360;    0.000;11.90000
 436.39;    0.380;   -1.810;    0.000; 2.19000
 436.68;    0.730;  -11.450;    0.000;12.18000
 436.97;   -7.840;  -11.940;    0.000; 4.10000
 437.26;   -6.600;  -15.160;    0.000; 8.56000
 437.55;   -0.620;   -9.340;    0.000; 8.72000
 437.83;  -17.480;  -24.130;    0.000; 6.65000
 438.12;  -10.000;  -18.050;    0.000; 8.05000
 438.41;   -3.610;  -16.450;    0.000;12.84000
 438.70;   10.420;    5.100;    0.000; 5.32000
 438.99;    5.640;   -6.560;    0.000;12.20000
 439.28;   -7.660;  -16.310;    0.000; 8.65000
 439.57;  -12.790;  -26.570;    0.000;13.78000
 439.86;  -10.620;  -22.850;    0.000;12.23000
 440.15;   -5.880;  -18.290;    0.000;12.41000
 440.44;   -1.400;  -10.400;    0.000; 9.00000
 440.73;   -8.230;  -18.710;    0.000;10.48000
 441.02;   -8.150;  -12.870;    0.000; 4.72000
 441.31;   -5.930;  -12.510;    0.000; 6.58000
 441.60;   -1.950;   -5.700;    0.000; 3.75000
 441.89;  -19.100;  -20.000;    0.000; 0.90000
 442.18;   -4.660;  -17.290;    0.000;12.63000
 442.47;   -9.580;  -23.560;    0.000;13.98000
 442.76;  -13.480;  -22.050;    0.000; 8.57000
 443.05;    2.130;  -10.700;    0.000;12.83000
 443.34;   -7.050;  -15.160;    0.000; 8.11000
 443.63;  -11.780;  -23.400;    0.000;11.62000
 443.91;   -6.180;  -12.690;    0.000; 6.51000
 444.20;  -12.900;  -20.000;    0.000; 7.10000
 444.49;  -10.870;  -19.950;    0.000; 9.08000
 444.78;   -5.270;  -18.340;    0.000;13.07000
 445.07;    2.170;   -5.870;    0.000; 8.04000
 445.36;  -12.340;  -26.980;    0.000;14.64000
 445.65;   -6.160;  -13.340;    0.000; 7.18000
 445.94;   -7.910;  -18.160;    0.000;10.25000
 446.23;    1.070;  -10.830;    0.000;11.90000
 446.52;   -2.720;  -19.630;    0.000;16.91000
 446.81;   -3.780;   -3.250;    0.000;-0.53000
 447.10;   -8.130;  -16.850;    0.000; 8.72000
 447.38;   -9.360;   -9.000;    0.000;-0.36000
 447.67;   -8.470;  -16.460;    0.000; 7.99000
 447.96;   -9.350;  -15.930;    0.000; 6.58000
 448.25;   -7.630;  -11.520;    0.000; 3.89000
 448.54;   -0.720;  -14.940;    0.000;14.22000
 448.83;  -11.470;  -23.010;    0.000;11.54000
 449.12;  -13.730;  -12.830;    0.000;-0.90000
 449.41;   -2.790;  -21.820;    0.000;19.03000
 449.70;   -9.580;  -15.120;    0.000; 5.54000
 449.98;  -13.080;  -24.820;    0.000;11.74000
 450.27;   -2.800;  -10.730;    0.000; 7.93000
 450.56;  -11.950;  -32.070;    0.000;20.12000
 450.85;  -12.120;  -17.010;    0.000; 4.89000
 451.14;   -7.610;  -19.960;    0.000;12.35000
 451.43;  -17.140;  -22.330;    0.000; 5.19000
 451.72;  -13.450;  -25.220;    0.000;11.77000
 452.01;    1.220;   -8.480;    0.000; 9.70000
 452.29;  -11.140;  -25.040;    0.000;13.90000
 452.58;  -16.420;  -19.810;    0.000; 3.39000
 452.87;  -11.320;  -25.340;    0.000;14.02000
 453.16;  -11.760;  -19.590;    0.000; 7.83000
 453.45;   -6.240;  -18.650;    0.000;12.41000
 453.74;   -3.690;  -12.950;    0.000; 9.26000
 454.03;   -8.610;  -24.100;    0.000;15.49000
 454.31;   -8.350;  -16.240;    0.000; 7.89000
 454.60;  -13.750;  -19.330;    0.000; 5.58000
 454.89;   -8.820;  -11.120;    0.000; 2.30000
 455.18;  -14.580;  -27.130;    0.000;12.55000
 455.47;  -17.350;  -21.170;    0.000; 3.82000
 455.76;   -8.670;  -24.610;    0.000;15.94000
 456.04;  -11.940;  -11.030;    0.000;-0.91000
 456.33;  -10.170;  -18.760;    0.000; 8.59000
 456.62;   -9.940;  -19.610;    0.000; 9.67000
 456.91;  -13.490;  -28.380;    0.000;14.89000
 457.20;    0.190;   -5.630;    0.000; 5.82000
 457.49;   -8.810;  -27.200;    0.000;18.39000
 457.77;  -13.400;  -17.300;    0.000; 3.90000
 458.06;   -6.510;  -18.500;    0.000;11.99000
 458.35;   -9.820;  -17.400;    0.000; 7.58000
 458.64;   -6.180;  -24.560;    0.000;18.38000
 458.93;  -11.120;  -18.030;    0.000; 6.91000
 459.21;   -9.800;  -24.490;    0.000;14.69000
 459.50;   -4.750;  -10.930;    0.000; 6.18000
 459.79;  -15.220;  -29.690;    0.000;14.47000
 460.08;   -4.640;  -20.110;    0.000;15.47000
 460.37;   -8.910;  -20.120;    0.000;11.21000
 460.65;   -4.620;  -13.690;    0.000; 9.07000
 460.94;  -17.620;  -23.190;    0.000; 5.57000
 461.23;  -11.480;  -21.260;    0.000; 9.78000
 461.52;    6.290;   -7.100;    0.000;13.39000
 461.81;  -13.050;  -22.900;    0.000; 9.85000
 462.09;   -2.190;  -18.640;    0.000;16.45000
 462.38;  -13.310;  -21.600;    0.000; 8.29000
 462.67;  -16.520;  -27.600;    0.000;11.08000
 462.96;  -11.580;  -18.400;    0.000; 6.82000
 463.24;   -8.850;  -21.500;    0.000;12.65000
 463.53;   -2.130;  -11.730;    0.000; 9.60000
 463.82;  -15.330;  -24.760;    0.000; 9.43000
 464.11;  -10.760;  -21.340;    0.000;10.58000
 464.40;   -6.500;  -28.780;    0.000;22.28000
 464.68;  -12.560;  -25.400;    0.000;12.84000
 464.97;   -9.240;  -22.490;    0.000;13.25000
 465.26;   -6.860;  -12.310;    0.000; 5.45000
 465.55;  -15.860;  -25.340;    0.000; 9.48000
 465.83;   -7.160;  -16.630;    0.000; 9.47000
 466.12;  -17.300;  -27.950;    0.000;10.65000
 466.41;   -6.750;  -13.760;    0.000; 7.01000
 466.70;  -14.580;  -27.320;    0.000;12.74000
 466.98;  -16.030;  -19.100;    0.000; 3.07000
 467.27;    0.100;  -15.890;    0.000;15.99000
 467.56;    3.340;   -3.140;    0.000; 6.48000
 467.85;   -8.330;  -21.160;    0.000;12.83000
 468.13;   -8.200;  -10.210;    0.000; 2.01000
 468.42;    0.650;  -21.810;    0.000;22.46000
 468.71;   -8.730;  -21.960;    0.000;13.23000
 468.99;  -17.950;  -23.670;    0.000; 5.72000
 469.28;  -11.180;  -23.740;    0.000;12.56000
 469.57;  -13.760;  -24.310;    0.000;10.55000
 469.86;   -7.080;  -17.130;    0.000;10.05000
 470.14;  -18.570;  -27.390;    0.000; 8.82000
 470.43;    0.380;   -3.080;    0.000; 3.46000
 470.72;  -22.270;  -30.520;    0.000; 8.25000
 471.00;  -15.360;  -27.340;    0.000;11.98000
 471.29;    2.200;  -16.820;    0.000;19.02000
 471.58;    5.130;   -1.770;    0.000; 6.90000
 471.87;   -9.340;  -23.530;    0.000;14.19000
 472.15;  -11.110;  -20.140;    0.000; 9.03000
 472.44;   -2.160;  -10.790;    0.000; 8.63000
 472.73;  -11.040;  -24.380;    0.000;13.34000
 473.01;  -14.200;  -31.480;    0.000;17.28000
 473.30;   -5.440;  -18.050;    0.000;12.61000
 473.59;  -14.550;  -21.600;    0.000; 7.05000
 473.87;   -3.470;  -20.000;    0.000;16.53000
 474.16;  -15.360;  -31.170;    0.000;15.81000
 474.45;   -5.310;  -20.640;    0.000;15.33000
 474.74;  -15.950;  -32.260;    0.000;16.31000
 475.02;   -4.630;  -12.660;    0.000; 8.03000
 475.31;   -1.110;  -19.370;    0.000;18.26000
 475.60;   -4.120;  -16.310;    0.000;12.19000
 475.88;  -10.170;  -28.060;    0.000;17.89000
 476.17;    1.600;   -7.100;    0.000; 8.70000
 476.46;   -8.890;  -25.100;    0.000;16.21000
 476.74;  -10.090;  -16.590;    0.000; 6.50000
 477.03;  -10.330;  -32.260;    0.000;21.93000
 477.32;   -6.740;   -9.990;    0.000; 3.25000
 477.60;   -8.140;  -25.170;    0.000;17.03000
 477.89;   -1.650;  -14.410;    0.000;12.76000
 478.18;  -11.520;  -24.840;    0.000;13.32000
 478.46;   -0.440;  -12.980;    0.000;12.54000
 478.75;  -16.470;  -26.450;    0.000; 9.98000
 479.03;  -16.030;  -18.610;    0.000; 2.58000
 479.32;   -7.910;  -18.010;    0.000;10.10000
 479.61;   -8.930;  -17.740;    0.000; 8.81000
 479.89;   -6.050;  -32.470;    0.000;26.42000
 480.18;    1.120;  -19.180;    0.000;20.30000
 480.47;   -7.300;  -19.530;    0.000;12.23000
 480.75;  -13.470;  -21.460;    0.000; 7.99000
 481.04;   -5.900;  -21.890;    0.000;15.99000
 481.33;   -5.920;  -19.190;    0.000;13.27000
 481.61;   -8.820;  -26.000;    0.000;17.18000
 481.90;  -15.540;  -24.330;    0.000; 8.79000
 482.18;    5.020;  -12.870;    0.000;17.89000
 482.47;   -5.160;   -9.230;    0.000; 4.07000
 482.76;  -12.290;  -27.380;    0.000;15.09000
 483.04;   -5.510;  -19.970;    0.000;14.46000
 483.33;  -14.590;  -36.330;    0.000;21.74000
 483.61;   -9.160;  -21.150;    0.000;11.99000
 483.90;   -5.410;  -27.790;    0.000;22.38000
 484.19;  -14.210;  -28.550;    0.000;14.34000
 484.47;   -6.000;  -29.920;    0.000;23.92000
 484.76;   -9.550;  -26.270;    0.000;16.72000
 485.05;  -10.860;  -21.290;    0.000;10.43000
 485.33;   -3.420;  -21.790;    0.000;18.37000
 485.62;  -17.130;  -30.440;    0.000;13.31000
 485.90;   -3.890;  -21.610;    0.000;17.72000
 486.19;  -13.560;  -28.210;    0.000;14.65000
 486.47;    2.680;   -4.970;    0.000; 7.65000
 486.76;   -9.930;  -33.520;    0.000;23.59000
 487.05;    9.690;  -17.370;    0.000;27.06000
 487.33;   -1.540;  -27.740;    0.000;26.20000
 487.62;   -5.830;  -25.220;    0.000;19.39000
 487.90;   -2.250;  -24.810;    0.000;22.56000
 488.19;    7.670;  -10.100;    0.000;17.77000
 488.47;    8.480;  -22.810;    0.000;31.29000
 488.76;    4.610;  -18.670;    0.000;23.28000
 489.05;   18.530;  -15.140;    0.000;33.67000
 489.33;   13.760;  -21.140;    0.000;34.90000
 489.62;    8.650;  -24.230;    0.000;32.88000
 489.90;   14.280;  -27.030;    0.000;41.31000
 490.19;   15.980;  -30.750;    0.000;46.73000
 490.47;   28.710;  -22.180;    0.000;50.89000
 490.76;   19.060;  -22.340;    0.000;41.40000
 491.05;   46.470;  -12.260;    0.000;58.73000
 491.33;   43.770;  -22.510;    0.000;66.28000
 491.62;   45.150;  -21.570;    0.000;66.72000
 491.90;   48.860;  -26.480;    0.000;75.34000
 492.19;   50.500;  -26.160;    0.000;76.66000
 492.47;   56.220;  -30.670;    0.000;86.89000
 492.76;   65.100;  -23.690;    0.000;88.79000
 493.04;   76.880;  -20.900;    0.000;97.78000
 493.33;   79.580;  -27.540;    0.000;107.12000
 493.61;  101.120;  -29.360;    0.000;130.48000
 493.90;  114.830;  -15.540;    0.000;130.37000
 494.18;  120.640;  -20.750;    0.000;141.39000
 494.47;  141.220;  -30.060;    0.000;171.28000
 494.75;  137.430;  -29.080;    0.000;166.50999
 495.04;  168.550;  -18.440;    0.000;186.99000
 495.32;  175.460;  -33.110;    0.000;208.57001
 495.61;  189.330;  -28.570;    0.000;217.90000
 495.89;  206.640;  -37.530;    0.000;244.17000
 496.18;  230.400;  -23.250;    0.000;253.64999
 496.46;  249.660;  -23.180;    0.000;272.84000
 496.75;  278.450;  -21.450;    0.000;299.90001
 497.03;  294.820;  -28.260;    0.000;323.08001
 497.32;  327.020;  -24.590;    0.000;351.60999
 497.60;  342.120;  -31.160;    0.000;373.27999
 497.89;  371.540;  -20.470;    0.000;392.01001
 498.17;  392.350;  -31.270;    0.000;423.62001
 498.46;  428.800;  -22.930;    0.000;451.72999
 498.74;  456.570;  -23.650;    0.000;480.22001
 499.03;  487.930;  -20.030;    0.000;507.95999
 499.31;  511.800;  -31.270;    0.000;543.06999
 499.60;  563.210;  -18.610;    0.000;581.82002
 499.88;  607.060;  -10.980;    0.000;618.04000
 500.17;  626.760;  -24.320;    0.000;651.08001
 500.45;  665.540;  -35.700;    0.000;701.23998
 500.74;  710.670;  -22.620;    0.000;733.28998
 501.02;  742.700;  -33.630;    0.000;776.33001
 501.31;  787.840;  -17.610;    0.000;805.45003
 501.59;  831.660;  -29.560;    0.000;861.21997
 501.88;  890.210;  -13.950;    0.000;904.16002
 502.16;  921.850;  -34.760;    0.000;956.60997
 502.45;  984.670;  -16.300;    0.000;1000.96998
 502.73; 1036.170;  -30.760;    0.000;1066.93004
 503.01; 1084.920;  -24.340;    0.000;1109.26004
 503.30; 1130.920;  -37.940;    0.000;1168.86004
 503.58; 1200.850;  -23.090;    0.000;1223.93998
 503.87; 1253.790;  -21.060;    0.000;1274.85004
 504.15; 1294.550;  -30.190;    0.000;1324.74005
 504.44; 1368.410;  -27.590;    0.000;1396.00003
 504.72; 1423.070;  -10.570;    0.000;1433.63995
 505.00; 1485.630;  -34.250;    0.000;1519.88000
 505.29; 1558.270;   -9.520;    0.000;1567.79002
 505.57; 1612.260;  -29.130;    0.000;1641.39001
 505.86; 1679.450;  -27.820;    0.000;1707.26995
 506.14; 1733.210;  -35.780;    0.000;1768.98996
 506.43; 1830.650;  -12.910;    0.000;1843.56002
 506.71; 1868.870;  -34.180;    0.000;1903.05000
 506.99; 1946.120;  -30.960;    0.000;1977.07999
 507.28; 2017.120;  -19.100;    0.000;2036.22000
 507.56; 2060.370;  -24.830;    0.000;2085.20012
 507.85; 2163.970;  -37.590;    0.000;2201.55997
 508.13; 2221.940;  -19.100;    0.000;2241.03994
 508.41; 2323.750;  -12.480;    0.000;2336.23000
 508.70; 2398.980;  -25.360;    0.000;2424.33998
 508.98; 2455.760;  -28.380;    0.000;2484.14001
 509.27; 2546.600;  -20.760;    0.000;2567.36010
 509.55; 2604.130;  -24.450;    0.000;2628.57988
 509.83; 2689.770;  -25.210;    0.000;2714.98002
 510.12; 2802.810;  -32.590;    0.000;2835.40006
 510.40; 2855.420;  -21.830;    0.000;2877.24992
 510.69; 2930.600;  -24.150;    0.000;2954.75010
 510.97; 2999.650;  -16.710;    0.000;3016.35990
 511.25; 3060.800;  -35.350;    0.000;3096.15005
 511.54; 3177.110;  -25.090;    0.000;3202.20011
 511.82; 3252.370;  -17.590;    0.000;3269.96012
 512.11; 3331.390;  -22.350;    0.000;3353.73989
 512.39; 3395.660;  -32.070;    0.000;3427.72991
 512.67; 3509.200;  -25.880;    0.000;3535.07995
 512.96; 3559.780;  -28.850;    0.000;3588.63003
 513.24; 3658.540;  -17.400;    0.000;3675.94004
 513.52; 3715.350;  -26.700;    0.000;3742.05010
 513.81; 3787.970;  -12.470;    0.000;3800.43997
 514.09; 3858.530;  -39.120;    0.000;3897.65003
 514.37; 3955.130;  -27.600;    0.000;3982.72988
 514.66; 4007.940;  -17.040;    0.000;4024.97994
 514.94; 4111.740;  -21.390;    0.000;4133.13023
 515.22; 4188.480;  -27.790;    0.000;4216.26998
 515.51; 4242.880;  -29.040;    0.000;4271.91988
 515.79; 4334.390;  -28.800;    0.000;4363.19014
 516.07; 4435.860;  -17.270;    0.000;4453.12986
 516.36; 4470.170;  -41.720;    0.000;4511.88992
 516.64; 4570.020;  -19.320;    0.000;4589.34002
 516.92; 4630.150;  -31.610;    0.000;4661.75990
 517.21; 4758.570;  -33.320;    0.000;4791.88982
 517.49; 4850.100;  -31.350;    0.000;4881.45010
 517.77; 4930.560;  -19.740;    0.000;4950.30006
 518.06; 5017.860;  -30.270;    0.000;5048.12986
 518.34; 5101.720;  -12.260;    0.000;5113.98022
 518.62; 5171.930;  -21.610;    0.000;5193.54018
 518.91; 5232.540;  -12.930;    0.000;5245.47004
 519.19; 5302.210;  -34.590;    0.000;5336.79996
 519.47; 5405.550;  -20.490;    0.000;5426.03980
 519.76; 5482.410;  -21.550;    0.000;5503.96016
 520.04; 5537.120;  -14.340;    0.000;5551.46012
 520.32; 5610.710;  -23.830;    0.000;5634.53996
 520.61; 5688.970;   -5.440;    0.000;5694.41021
 520.89; 5762.530;  -37.640;    0.000;5800.16978
 521.17; 5834.660;  -26.850;    0.000;5861.51016
 521.45; 5888.310;  -23.640;    0.000;5911.95006
 521.74; 5960.330;  -17.740;    0.000;5978.07008
 522.02; 6019.230;  -26.720;    0.000;6045.94998
 522.30; 6112.550;  -14.940;    0.000;6127.48980
 522.59; 6182.710;  -21.350;    0.000;6204.05996
 522.87; 6245.280;  -32.120;    0.000;6277.39978
 523.15; 6347.950;  -18.770;    0.000;6366.72020
 523.43; 6374.590;  -28.200;    0.000;6402.78984
 523.72; 6435.560;  -31.700;    0.000;6467.26006
 524.00; 6539.700;  -22.390;    0.000;6562.09019
 524.28; 6575.370;  -27.040;    0.000;6602.41012
 524.57; 6636.030;  -20.090;    0.000;6656.11979
 524.85; 6677.830;  -34.840;    0.000;6712.67008
 525.13; 6765.450;  -17.120;    0.000;6782.57020
 525.41; 6845.390;  -19.600;    0.000;6864.99014
 525.70; 6868.610;  -20.520;    0.000;6889.12986
 525.98; 6940.590;  -37.750;    0.000;6978.33984
 526.26; 7018.660;  -23.650;    0.000;7042.31016
 526.54; 7057.800;  -26.170;    0.000;7083.96980
 526.83; 7122.010;  -28.490;    0.000;7150.49977
 527.11; 7148.990;  -27.630;    0.000;7176.62023
 527.39; 7273.640;  -17.980;    0.000;7291.62014
 527.67; 7287.200;  -25.250;    0.000;7312.45020
 527.96; 7349.430;  -18.240;    0.000;7367.67018
 528.24; 7415.250;  -32.040;    0.000;7447.29000
 528.52; 7502.010;  -22.060;    0.000;7524.06977
 528.80; 7546.080;  -16.360;    0.000;7562.44008
 529.08; 7590.460;  -24.400;    0.000;7614.85996
 529.37; 7656.060;  -29.260;    0.000;7685.32006
 529.65; 7721.670;  -13.830;    0.000;7735.49992
 529.93; 7762.800;  -22.430;    0.000;7785.22980
 530.21; 7823.580;  -21.460;    0.000;7845.04008
 530.50; 7874.780;  -30.250;    0.000;7905.02979
 530.78; 7915.260;  -14.630;    0.000;7929.88977
 531.06; 7998.510;  -20.080;    0.000;8018.58977
 531.34; 8022.290;  -25.820;    0.000;8048.11004
 531.62; 8074.500;  -31.660;    0.000;8106.16000
 531.91; 8138.950;  -15.940;    0.000;8154.89019
 532.19; 8194.620;  -25.720;    0.000;8220.34012
 532.47; 8245.500;  -18.110;    0.000;8263.61000
 532.75; 8275.550;  -21.440;    0.000;8296.98981
 533.03; 8333.710;  -17.220;    0.000;8350.92996
 533.32; 8420.910;  -17.810;    0.000;8438.72016
 533.60; 8395.810;   -9.970;    0.000;8405.77957
 533.88; 8515.510;  -15.710;    0.000;8531.21977
 534.16; 8527.570;  -18.090;    0.000;8545.66031
 534.44; 8593.130;  -10.590;    0.000;8603.71988
 534.72; 8645.360;  -23.730;    0.000;8669.09035
 535.01; 8635.550;  -27.150;    0.000;8662.69980
 535.29; 8727.940;  -21.960;    0.000;8749.90043
 535.57; 8740.170;  -23.210;    0.000;8763.37992
 535.85; 8790.080;  -13.690;    0.000;8803.77008
 536.13; 8851.480;  -28.500;    0.000;8879.98047
 536.42; 8883.850;  -21.980;    0.000;8905.82961
 536.70; 8930.930;  -24.950;    0.000;8955.87969
 536.98; 8988.790;  -20.220;    0.000;9009.01004
 537.26; 9010.430;  -29.690;    0.000;9040.11969
 537.54; 9032.620;  -20.250;    0.000;9052.87012
 537.82; 9117.020;  -25.520;    0.000;9142.53953
 538.10; 9163.050;  -26.660;    0.000;9189.70980
 538.39; 9182.530;  -21.750;    0.000;9204.28027
 538.67; 9224.370;  -22.250;    0.000;9246.62012
 538.95; 9282.780;  -30.330;    0.000;9313.11027
 539.23; 9329.640;  -19.740;    0.000;9349.37965
 539.51; 9365.970;  -23.770;    0.000;9389.73973
 539.79; 9396.910;  -24.990;    0.000;9421.90016
 540.07; 9419.580;  -36.040;    0.000;9455.62008
 540.36; 9441.490;  -32.000;    0.000;9473.49023
 540.64; 9495.760;  -27.990;    0.000;9523.74977
 540.92; 9491.980;  -16.720;    0.000;9508.70047
 541.20; 9538.540;  -22.670;    0.000;9561.21004
 541.48; 9645.760;   -5.030;    0.000;9650.78977
 541.76; 9642.070;  -30.870;    0.000;9672.94031
 542.04; 9664.080;  -20.340;    0.000;9684.42008
 542.32; 9719.040;  -29.390;    0.000;9748.43004
 542.61; 9789.190;  -19.070;    0.000;9808.26043
 542.89; 9797.070;  -13.970;    0.000;9811.04031
 543.17; 9819.660;  -18.380;    0.000;9838.04016
 543.45; 9848.560;  -27.300;    0.000;9875.85957
 543.73; 9900.380;  -30.880;    0.000;9931.25988
 544.01; 9913.550;  -28.330;    0.000;9941.87980
 544.29; 9945.910;  -23.230;    0.000;9969.14016
 544.57; 9995.350;  -30.670;    0.000;10026.01961
 544.85; 9999.860;  -31.850;    0.000;10031.71035
 545.13;10027.150;  -29.720;    0.000;10056.87039
 545.42;10036.020;  -22.510;    0.000;10058.52953
 545.70;10095.560;  -25.810;    0.000;10121.36957
 545.98;10118.760;  -29.460;    0.000;10148.21976
 546.26;10156.140;  -23.710;    0.000;10179.84965
 546.54;10194.490;  -27.350;    0.000;10221.84023
 546.82;10191.130;  -27.350;    0.000;10218.47988
 547.10;10224.150;  -28.060;    0.000;10252.21039
 547.38;10267.570;  -26.980;    0.000;10294.55031
 547.66;10252.430;  -20.600;    0.000;10273.02969
 547.94;10287.250;  -26.620;    0.000;10313.87000
 548.22;10317.610;  -18.210;    0.000;10335.82035
 548.50;10311.240;  -33.930;    0.000;10345.17023
 548.78;10378.770;  -19.160;    0.000;10397.92953
 549.06;10358.870;  -26.480;    0.000;10385.35012
 549.34;10371.830;  -26.050;    0.000;10397.88008
 549.63;10398.410;  -22.420;    0.000;10420.83016
 549.91;10410.760;  -20.450;    0.000;10431.20977
 550.19;10462.790;  -20.960;    0.000;10483.75004
 550.47;10455.580;  -23.490;    0.000;10479.07008
 550.75;10484.290;  -35.020;    0.000;10519.31004
 551.03;10495.060;  -20.560;    0.000;10515.61957
 551.31;10497.920;  -24.020;    0.000;10521.93992
 551.59;10531.500;  -16.240;    0.000;10547.74000
 551.87;10549.220;  -23.530;    0.000;10572.74973
 552.15;10578.700;  -28.140;    0.000;10606.84019
 552.43;10609.780;  -14.870;    0.000;10624.65027
 552.71;10650.860;  -21.280;    0.000;10672.14035
 552.99;10605.490;  -21.520;    0.000;10627.01023
 553.27;10645.340;  -25.870;    0.000;10671.20984
 553.55;10640.360;  -23.860;    0.000;10664.22035
 553.83;10679.350;  -19.210;    0.000;10698.55961
 554.11;10717.100;  -21.190;    0.000;10738.28961
 554.39;10709.610;  -17.150;    0.000;10726.76035
 554.67;10691.270;  -26.640;    0.000;10717.90953
 554.95;10683.910;    3.920;    0.000;10679.99016
 555.23;10712.780;  -11.960;    0.000;10724.74027
 555.51;10721.580;  -21.900;    0.000;10743.48008
 555.79;10724.660;  -23.970;    0.000;10748.63016
 556.07;10721.280;  -19.910;    0.000;10741.19027
 556.35;10729.320;  -18.640;    0.000;10747.96031
 556.63;10749.740;  -12.070;    0.000;10761.81023
 556.91;10740.010;   -1.640;    0.000;10741.64977
 557.19;10723.060;  -13.940;    0.000;10736.99957
 557.47;10747.580;  -13.060;    0.000;10760.64008
 557.75;10763.800;  -15.340;    0.000;10779.13980
 558.03;10775.640;  -13.480;    0.000;10789.11965
 558.31;10799.970;  -19.320;    0.000;10819.28973
 558.59;10804.660;  -31.280;    0.000;10835.94016
 558.87;10812.170;  -13.310;    0.000;10825.47992
 559.15;10805.810;  -29.070;    0.000;10834.87957
 559.43;10823.250;  -25.000;    0.000;10848.25000
 559.71;10853.600;  -21.670;    0.000;10875.26961
 559.99;10822.210;  -21.350;    0.000;10843.55996
 560.27;10825.840;  -24.410;    0.000;10850.24984
 560.55;10832.280;  -16.770;    0.000;10849.05027
 560.82;10816.260;  -40.520;    0.000;10856.77977
 561.10;10848.260;  -21.030;    0.000;10869.28977
 561.38;10796.630;  -31.620;    0.000;10828.24988
 561.66;10845.400;  -19.200;    0.000;10864.60039
 561.94;10760.610;  -32.500;    0.000;10793.11035
 562.22;10820.070;  -18.950;    0.000;10839.02031
 562.50;10833.740;  -22.930;    0.000;10856.67023
 562.78;10793.190;  -21.880;    0.000;10815.07043
 563.06;10777.490;  -25.020;    0.000;10802.51023
 563.34;10756.030;  -23.340;    0.000;10779.37027
 563.62;10771.140;  -28.600;    0.000;10799.73965
 563.90;10737.820;  -24.780;    0.000;10762.60031
 564.18;10742.380;  -23.890;    0.000;10766.26988
 564.46;10719.500;  -31.800;    0.000;10751.30000
 564.74;10716.080;  -36.810;    0.000;10752.89008
 565.01;10717.420;  -18.650;    0.000;10736.06992
 565.29;10742.360;  -31.200;    0.000;10773.56035
 565.57;10738.620;  -24.140;    0.000;10762.76012
 565.85;10691.650;  -30.170;    0.000;10721.82039
 566.13;10665.730;  -25.400;    0.000;10691.13047
 566.41;10645.270;  -20.760;    0.000;10666.02953
 566.69;10662.890;  -20.180;    0.000;10683.06965
 566.97;10606.990;  -29.100;    0.000;10636.09023
 567.25;10582.290;  -23.320;    0.000;10605.61004
 567.53;10618.750;  -37.960;    0.000;10656.71000
 567.80;10606.890;  -17.520;    0.000;10624.40965
 568.08;10574.030;  -24.640;    0.000;10598.67027
 568.36;10545.870;  -31.890;    0.000;10577.76012
 568.64;10538.220;  -36.700;    0.000;10574.91973
 568.92;10526.210;  -19.060;    0.000;10545.26996
 569.20;10512.420;  -33.620;    0.000;10546.03992
 569.48;10497.660;  -28.970;    0.000;10526.63016
 569.76;10466.970;  -38.390;    0.000;10505.35973
 570.03;10437.180;  -30.740;    0.000;10467.91969
 570.31;10396.930;  -26.680;    0.000;10423.60969
 570.59;10396.610;  -30.140;    0.000;10426.75035
 570.87;10351.820;  -36.880;    0.000;10388.70031
 571.15;10366.630;  -34.680;    0.000;10401.30988
 571.43;10309.040;  -25.070;    0.000;10334.11004
 571.71;10305.310;  -27.830;    0.000;10333.13957
 571.98;10303.610;  -36.950;    0.000;10340.56035
 572.26;10266.980;  -31.860;    0.000;10298.84047
 572.54;10243.170;  -30.510;    0.000;10273.67992
 572.82;10203.450;  -26.230;    0.000;10229.68019
 573.10;10185.440;  -29.670;    0.000;10215.11043
 573.38;10191.010;  -24.500;    0.000;10215.50977
 573.66;10161.960;  -37.870;    0.000;10199.82996
 573.93;10116.070;  -25.520;    0.000;10141.59031
 574.21;10083.440;  -44.710;    0.000;10128.15043
 574.49;10103.630;  -29.650;    0.000;10133.27988
 574.77;10050.770;  -29.070;    0.000;10079.83953
 575.05;10013.450;  -17.380;    0.000;10030.83019
 575.33; 9997.470;  -34.780;    0.000;10032.24973
 575.60; 9953.370;  -27.030;    0.000;9980.40012
 575.88; 9928.680;  -27.440;    0.000;9956.11969
 576.16; 9866.870;  -28.700;    0.000;9895.57012
 576.44; 9854.130;  -26.920;    0.000;9881.04988
 576.72; 9798.170;  -35.650;    0.000;9833.81992
 576.99; 9772.800;  -36.450;    0.000;9809.24981
 577.27; 9764.870;  -27.480;    0.000;9792.35012
 577.55; 9717.270;  -21.740;    0.000;9739.00953
 577.83; 9685.340;  -27.910;    0.000;9713.24984
 578.11; 9666.040;  -39.940;    0.000;9705.98004
 578.38; 9629.170;  -31.370;    0.000;9660.53992
 578.66; 9579.600;  -41.950;    0.000;9621.54961
 578.94; 9534.630;  -30.900;    0.000;9565.52988
 579.22; 9535.420;  -31.660;    0.000;9567.07992
 579.50; 9541.470;  -15.330;    0.000;9556.79973
 579.77; 9508.090;  -36.810;    0.000;9544.89985
 580.05; 9451.780;  -29.770;    0.000;9481.55027
 580.33; 9383.250;  -40.660;    0.000;9423.91000
 580.61; 9372.560;  -26.940;    0.000;9399.49957
 580.88; 9324.740;  -32.860;    0.000;9357.60023
 581.16; 9352.460;  -27.910;    0.000;9380.36996
 581.44; 9286.980;  -27.700;    0.000;9314.68047
 581.72; 9210.530;  -32.140;    0.000;9242.67027
 581.99; 9206.250;  -30.970;    0.000;9237.22000
 582.27; 9125.510;  -33.160;    0.000;9158.66977
 582.55; 9054.140;  -39.520;    0.000;9093.65965
 582.83; 9071.220;  -24.610;    0.000;9095.82973
 583.10; 9073.310;  -35.980;    0.000;9109.28957
 583.38; 8998.550;  -34.240;    0.000;9032.78981
 583.66; 8940.480;  -27.940;    0.000;8968.42047
 583.94; 8899.090;  -30.520;    0.000;8929.60984
 584.21; 8874.250;  -39.870;    0.000;8914.12000
 584.49; 8830.770;  -38.450;    0.000;8869.21953
 584.77; 8773.120;  -46.110;    0.000;8819.23012
 585.05; 8749.660;  -30.740;    0.000;8780.40016
 585.32; 8714.290;  -45.880;    0.000;8760.17004
 585.60; 8646.180;  -33.420;    0.000;8679.59969
 585.88; 8633.460;  -33.880;    0.000;8667.33996
 586.16; 8586.510;  -31.230;    0.000;8617.73977
 586.43; 8552.700;  -24.760;    0.000;8577.46020
 586.71; 8501.880;  -23.950;    0.000;8525.82988
 586.99; 8458.220;  -40.780;    0.000;8498.99973
 587.26; 8395.500;  -34.250;    0.000;8429.75000
 587.54; 8344.600;  -31.250;    0.000;8375.84961
 587.82; 8336.400;  -24.780;    0.000;8361.18039
 588.10; 8264.050;  -38.030;    0.000;8302.07980
 588.37; 8241.700;  -25.200;    0.000;8266.90020
 588.65; 8205.290;  -42.610;    0.000;8247.90004
 588.93; 8168.560;  -27.880;    0.000;8196.44006
 589.20; 8086.040;  -34.530;    0.000;8120.57004
 589.48; 8027.180;  -23.660;    0.000;8050.84018
 589.76; 8033.120;  -21.600;    0.000;8054.72012
 590.03; 7996.010;  -37.140;    0.000;8033.14977
 590.31; 7931.280;  -37.740;    0.000;7969.01979
 590.59; 7924.180;  -19.850;    0.000;7944.03018
 590.86; 7825.650;  -35.440;    0.000;7861.08990
 591.14; 7787.520;  -32.470;    0.000;7819.99002
 591.42; 7744.800;  -42.520;    0.000;7787.31981
 591.70; 7691.490;  -28.630;    0.000;7720.12023
 591.97; 7710.120;  -41.090;    0.000;7751.21012
 592.25; 7648.850;  -31.770;    0.000;7680.62010
 592.53; 7557.440;  -34.330;    0.000;7591.76994
 592.80; 7513.770;  -27.170;    0.000;7540.94002
 593.08; 7493.950;  -36.980;    0.000;7530.93019
 593.36; 7466.050;  -29.710;    0.000;7495.75980
 593.63; 7397.440;  -31.670;    0.000;7429.10994
 593.91; 7357.910;  -37.820;    0.000;7395.73016
 594.18; 7316.010;  -29.310;    0.000;7345.31977
 594.46; 7257.850;  -32.730;    0.000;7290.58010
 594.74; 7227.610;  -39.980;    0.000;7267.58986
 595.01; 7188.880;  -41.290;    0.000;7230.16988
 595.29; 7114.600;  -42.620;    0.000;7157.22010
 595.57; 7125.580;  -26.370;    0.000;7151.95008
 595.84; 7032.700;  -44.010;    0.000;7076.71019
 596.12; 6999.160;  -26.910;    0.000;7026.07016
 596.40; 6913.180;  -47.870;    0.000;6961.05017
 596.67; 6900.430;  -30.050;    0.000;6930.48018
 596.95; 6835.580;  -32.450;    0.000;6868.03008
 597.22; 6803.990;  -36.470;    0.000;6840.46024
 597.50; 6776.280;  -30.000;    0.000;6806.27979
 597.78; 6717.470;  -26.450;    0.000;6743.92022
 598.05; 6645.920;  -38.050;    0.000;6683.96992
 598.33; 6605.420;  -35.310;    0.000;6640.72992
 598.61; 6571.150;  -40.030;    0.000;6611.17990
 598.88; 6532.420;  -34.500;    0.000;6566.91992
 599.16; 6500.620;  -33.800;    0.000;6534.42012
 599.43; 6452.720;  -34.760;    0.000;6487.48021
 599.71; 6418.390;  -33.630;    0.000;6452.02014
 599.99; 6346.470;  -39.260;    0.000;6385.73021
 600.26; 6314.700;  -35.270;    0.000;6349.97020
 600.54; 6269.760;  -23.060;    0.000;6292.81977
 600.81; 6232.580;  -22.730;    0.000;6255.31008
 601.09; 6179.240;  -31.880;    0.000;6211.12023
 601.36; 6121.270;  -41.720;    0.000;6162.99002
 601.64; 6124.020;  -26.930;    0.000;6150.95002
 601.92; 6040.540;  -40.110;    0.000;6080.65004
 602.19; 6005.670;  -33.850;    0.000;6039.51992
 602.47; 5957.860;  -42.910;    0.000;6000.76986
 602.74; 5916.800;  -30.200;    0.000;5946.99981
 603.02; 5886.200;  -37.710;    0.000;5923.91019
 603.29; 5868.080;  -31.120;    0.000;5899.20008
 603.57; 5789.290;  -46.120;    0.000;5835.41004
 603.85; 5742.200;  -37.100;    0.000;5779.30019
 604.12; 5751.730;  -30.010;    0.000;5781.73998
 604.40; 5686.490;  -42.650;    0.000;5729.14024
 604.67; 5658.360;  -33.630;    0.000;5691.98986
 604.95; 5629.530;  -37.310;    0.000;5666.83979
 605.22; 5582.220;  -40.580;    0.000;5622.80022
 605.50; 5531.120;  -29.990;    0.000;5561.11012
 605.77; 5492.130;  -34.720;    0.000;5526.84988
 606.05; 5469.540;  -31.660;    0.000;5501.20004
 606.33; 5424.860;  -32.560;    0.000;5457.41986
 606.60; 5406.640;  -34.370;    0.000;5441.01014
 606.88; 5364.410;  -37.980;    0.000;5402.39016
 607.15; 5328.950;  -26.270;    0.000;5355.22020
 607.43; 5276.870;  -39.250;    0.000;5316.12012
 607.70; 5270.470;  -18.560;    0.000;5289.03021
 607.98; 5193.920;  -49.000;    0.000;5242.91992
 608.25; 5174.190;  -34.350;    0.000;5208.53994
 608.53; 5169.180;  -49.930;    0.000;5219.11018
 608.80; 5126.110;  -33.950;    0.000;5160.05986
 609.08; 5108.550;  -48.850;    0.000;5157.39980
 609.35; 5082.170;  -35.970;    0.000;5118.13992
 609.63; 5062.910;  -47.350;    0.000;5110.26015
 609.90; 5029.150;  -35.810;    0.000;5064.95990
 610.18; 4984.310;  -33.780;    0.000;5018.09006
 610.45; 4930.770;  -37.870;    0.000;4968.64002
 610.73; 4920.780;  -41.280;    0.000;4962.05978
 611.00; 4933.550;  -22.200;    0.000;4955.74981
 611.28; 4867.510;  -42.300;    0.000;4909.80976
 611.55; 4816.990;  -43.860;    0.000;4860.85023
 611.83; 4808.340;  -51.020;    0.000;4859.35984
 612.10; 4784.150;  -43.340;    0.000;4827.48990
 612.38; 4765.300;  -42.020;    0.000;4807.31981
 612.65; 4724.940;  -35.390;    0.000;4760.32994
 612.93; 4687.530;  -49.670;    0.000;4737.19978
 613.20; 4657.960;  -40.010;    0.000;4697.96996
 613.48; 4625.290;  -50.070;    0.000;4675.36004
 613.75; 4604.490;  -39.000;    0.000;4643.49023
 614.03; 4605.230;  -33.860;    0.000;4639.08998
 614.30; 4560.130;  -48.420;    0.000;4608.54988
 614.57; 4540.550;  -48.760;    0.000;4589.30980
 614.85; 4514.740;  -33.970;    0.000;4548.71024
 615.12; 4471.100;  -45.710;    0.000;4516.81010
 615.40; 4486.040;  -47.900;    0.000;4533.94004
 615.67; 4440.320;  -47.350;    0.000;4487.66982
 615.95; 4408.050;  -35.100;    0.000;4443.14980
 616.22; 4407.060;  -46.180;    0.000;4453.24006
 616.50; 4375.130;  -41.480;    0.000;4416.60988
 616.77; 4338.350;  -43.960;    0.000;4382.31010
 617.05; 4334.530;  -21.360;    0.000;4355.88979
 617.32; 4246.460;  -43.180;    0.000;4289.63996
 617.59; 4254.720;  -33.460;    0.000;4288.18021
 617.87; 4192.550;  -54.150;    0.000;4246.69981
 618.14; 4162.190;  -35.260;    0.000;4197.44994
 618.42; 4085.410;  -47.110;    0.000;4132.51991
 618.69; 4056.310;  -43.470;    0.000;4099.78006
 618.97; 4023.860;  -47.040;    0.000;4070.90011
 619.24; 3979.430;  -36.430;    0.000;4015.85993
 619.51; 3949.350;  -36.430;    0.000;3985.78010
 619.79; 3856.290;  -37.530;    0.000;3893.82004
 620.06; 3803.050;  -41.100;    0.000;3844.15005
 620.34; 3723.990;  -42.490;    0.000;3766.47999
 620.61; 3650.700;  -39.810;    0.000;3690.50995
 620.88; 3660.500;  -42.270;    0.000;3702.77000
 621.16; 3665.750;  -43.080;    0.000;3708.83000
 621.43; 3730.220;  -35.920;    0.000;3766.13997
 621.71; 3726.300;  -35.190;    0.000;3761.49005
 621.98; 3661.440;  -35.890;    0.000;3697.32994
 622.25; 3605.300;  -43.810;    0.000;3649.11005
 622.53; 3631.120;  -33.350;    0.000;3664.47012
 622.80; 3588.900;  -46.030;    0.000;3634.92990
 623.08; 3589.260;  -41.160;    0.000;3630.42001
 623.35; 3554.210;  -47.690;    0.000;3601.89996
 623.62; 3519.620;  -44.660;    0.000;3564.28012
 623.90; 3509.880;  -42.660;    0.000;3552.53988
 624.17; 3494.820;  -28.880;    0.000;3523.70007
 624.44; 3467.950;  -38.740;    0.000;3506.68995
 624.72; 3460.490;  -34.060;    0.000;3494.54999
 624.99; 3437.170;  -49.930;    0.000;3487.09992
 625.26; 3477.830;  -49.640;    0.000;3527.47008
 625.54; 3490.820;  -33.530;    0.000;3524.35007
 625.81; 3484.500;  -44.770;    0.000;3529.27000
 626.09; 3474.220;  -49.480;    0.000;3523.69997
 626.36; 3486.290;  -44.100;    0.000;3530.39004
 626.63; 3480.670;  -41.510;    0.000;3522.17992
 626.91; 3479.840;  -47.370;    0.000;3527.21009
 627.18; 3460.900;  -38.040;    0.000;3498.93990
 627.45; 3457.890;  -37.530;    0.000;3495.41989
 627.73; 3454.000;  -44.610;    0.000;3498.61000
 628.00; 3437.460;  -37.550;    0.000;3475.00996
 628.27; 3409.500;  -36.200;    0.000;3445.70000
 628.55; 3415.410;  -42.700;    0.000;3458.10991
 628.82; 3382.180;  -53.070;    0.000;3435.24993
 629.09; 3355.730;  -41.330;    0.000;3397.05998
 629.37; 3383.230;  -53.690;    0.000;3436.91998
 629.64; 3370.870;  -37.610;    0.000;3408.48012
 629.91; 3362.840;  -55.250;    0.000;3418.09009
 630.18; 3363.100;  -39.470;    0.000;3402.57010
 630.46; 3328.430;  -41.710;    0.000;3370.13993
 630.73; 3334.180;  -35.240;    0.000;3369.41993
 631.00; 3305.070;  -42.180;    0.000;3347.25007
 631.28; 3282.190;  -48.540;    0.000;3330.72994
 631.55; 3273.670;  -44.940;    0.000;3318.60992
 631.82; 3267.080;  -34.080;    0.000;3301.16008
 632.10; 3259.610;  -41.710;    0.000;3301.32011
 632.37; 3214.480;  -41.490;    0.000;3255.96998
 632.64; 3246.850;  -37.410;    0.000;3284.26010
 632.91; 3226.190;  -31.710;    0.000;3257.89994
 633.19; 3211.310;  -44.670;    0.000;3255.98006
 633.46; 3170.870;  -48.740;    0.000;3219.61012
 633.73; 3171.620;  -47.490;    0.000;3219.11012
 634.01; 3179.110;  -40.410;    0.000;3219.52011
 634.28; 3170.830;  -52.520;    0.000;3223.35008
 634.55; 3175.760;  -28.350;    0.000;3204.11001
 634.82; 3165.960;  -47.550;    0.000;3213.50996
 635.10; 3117.880;  -38.050;    0.000;3155.92988
 635.37; 3122.520;  -52.120;    0.000;3174.64002
 635.64; 3149.840;  -44.700;    0.000;3194.54009
 635.91; 3125.710;  -59.310;    0.000;3185.01996
 636.19; 3133.580;  -40.580;    0.000;3174.16008
 636.46; 3115.780;  -43.850;    0.000;3159.63003
 636.73; 3140.190;  -36.090;    0.000;3176.27994
 637.00; 3128.630;  -46.460;    0.000;3175.08988
 637.28; 3128.470;  -43.610;    0.000;3172.07997
 637.55; 3150.050;  -37.690;    0.000;3187.74005
 637.82; 3108.920;  -41.660;    0.000;3150.57992
 638.09; 3059.860;  -42.000;    0.000;3101.86011
 638.37; 3016.420;  -47.010;    0.000;3063.42992
 638.64; 2976.070;  -50.120;    0.000;3026.19007
 638.91; 2999.050;  -40.580;    0.000;3039.63005
 639.18; 2962.730;  -47.270;    0.000;3009.99998
 639.46; 2955.450;  -42.930;    0.000;2998.37995
 639.73; 2929.750;  -42.730;    0.000;2972.48000
 640.00; 2910.230;  -44.600;    0.000;2954.82998
 640.27; 2880.500;  -49.850;    0.000;2930.35000
 640.54; 2869.370;  -37.760;    0.000;2907.13012
 640.82; 2845.150;  -43.030;    0.000;2888.17990
 641.09; 2814.260;  -40.550;    0.000;2854.81001
 641.36; 2814.760;  -52.060;    0.000;2866.82001
 641.63; 2779.310;  -39.770;    0.000;2819.08006
 641.91; 2736.910;  -47.290;    0.000;2784.19991
 642.18; 2709.590;  -43.100;    0.000;2752.69009
 642.45; 2669.880;  -60.380;    0.000;2730.25988
 642.72; 2653.090;  -45.200;    0.000;2698.29009
 642.99; 2652.410;  -32.230;    0.000;2684.63991
 643.26; 2609.020;  -39.200;    0.000;2648.22002
 643.54; 2610.980;  -42.510;    0.000;2653.48998
 643.81; 2576.300;  -48.280;    0.000;2624.58005
 644.08; 2559.250;  -46.440;    0.000;2605.69000
 644.35; 2550.380;  -43.440;    0.000;2593.81988
 644.62; 2514.470;  -60.750;    0.000;2575.21997
 644.90; 2507.020;  -37.720;    0.000;2544.74002
 645.17; 2483.870;  -50.870;    0.000;2534.74012
 645.44; 2479.190;  -40.710;    0.000;2519.89994
 645.71; 2454.080;  -54.220;    0.000;2508.30008
 645.98; 2441.630;  -46.590;    0.000;2488.21988
 646.25; 2423.010;  -56.450;    0.000;2479.46001
 646.53; 2399.430;  -49.790;    0.000;2449.21993
 646.80; 2389.520;  -52.340;    0.000;2441.86002
 647.07; 2375.130;  -52.900;    0.000;2428.02988
 647.34; 2367.330;  -42.670;    0.000;2410.00008
 647.61; 2347.390;  -38.320;    0.000;2385.70989
 647.88; 2350.050;  -32.630;    0.000;2382.68005
 648.15; 2326.080;  -45.180;    0.000;2371.26008
 648.43; 2293.350;  -51.280;    0.000;2344.63010
 648.70; 2293.830;  -44.950;    0.000;2338.78008
 648.97; 2264.540;  -50.060;    0.000;2314.60004
 649.24; 2273.450;  -37.760;    0.000;2311.20995
 649.51; 2231.750;  -59.320;    0.000;2291.07000
 649.78; 2232.760;  -49.050;    0.000;2281.81001
 650.05; 2223.310;  -38.830;    0.000;2262.14006
 650.32; 2258.190;    3.430;    0.000;2254.75994
 650.60; 2201.010;  -49.520;    0.000;2250.53001
 650.87; 2198.920;  -40.720;    0.000;2239.63992
 651.14; 2167.170;  -49.080;    0.000;2216.24992
 651.41; 2144.070;  -40.880;    0.000;2184.95007
 651.68; 2126.540;  -51.850;    0.000;2178.39004
 651.95; 2125.190;  -32.540;    0.000;2157.72994
 652.22; 2111.480;  -46.770;    0.000;2158.24998
 652.49; 2087.760;  -47.170;    0.000;2134.93001
 652.76; 2070.770;  -56.460;    0.000;2127.23002
 653.03; 2066.710;  -52.290;    0.000;2118.99996
 653.31; 2057.700;  -54.730;    0.000;2112.42995
 653.58; 2044.500;  -44.140;    0.000;2088.64000
 653.85; 2021.500;  -55.300;    0.000;2076.80000
 654.12; 2019.500;  -40.030;    0.000;2059.53000
 654.39; 1999.700;  -59.010;    0.000;2058.70995
 654.66; 2011.150;  -34.440;    0.000;2045.59002
 654.93; 1998.400;  -43.990;    0.000;2042.39003
 655.20; 1963.790;  -46.980;    0.000;2010.77004
 655.47; 1961.960;  -52.660;    0.000;2014.61996
 655.74; 1950.930;  -38.310;    0.000;1989.24006
 656.01; 1934.500;  -57.940;    0.000;1992.44000
 656.28; 1910.810;  -40.430;    0.000;1951.24006
 656.55; 1909.750;  -48.760;    0.000;1958.51000
 656.83; 1899.860;  -44.830;    0.000;1944.68999
 657.10; 1885.320;  -55.800;    0.000;1941.11995
 657.37; 1877.370;  -46.440;    0.000;1923.80999
 657.64; 1849.440;  -56.320;    0.000;1905.75994
 657.91; 1833.870;  -47.700;    0.000;1881.57000
 658.18; 1839.650;  -47.460;    0.000;1887.11002
 658.45; 1828.710;  -51.440;    0.000;1880.14996
 658.72; 1822.140;  -50.290;    0.000;1872.43002
 658.99; 1792.220;  -40.260;    0.000;1832.47997
 659.26; 1807.660;  -41.670;    0.000;1849.33003
 659.53; 1777.100;  -53.720;    0.000;1830.81998
 659.80; 1743.370;  -60.520;    0.000;1803.89000
 660.07; 1759.690;  -48.260;    0.000;1807.94994
 660.34; 1742.760;  -52.100;    0.000;1794.86001
 660.61; 1732.060;  -51.720;    0.000;1783.78006
 660.88; 1734.000;  -47.250;    0.000;1781.25000
 661.15; 1719.740;  -34.510;    0.000;1754.24999
 661.42; 1696.870;  -53.270;    0.000;1750.14000
 661.69; 1676.560;  -53.400;    0.000;1729.96006
 661.96; 1663.390;  -60.350;    0.000;1723.74001
 662.23; 1661.460;  -46.130;    0.000;1707.58996
 662.50; 1659.560;  -53.060;    0.000;1712.62006
 662.77; 1632.110;  -47.970;    0.000;1680.07999
 663.04; 1633.510;  -55.560;    0.000;1689.07001
 663.31; 1602.170;  -48.380;    0.000;1650.55005
 663.58; 1619.380;  -48.060;    0.000;1667.44001
 663.85; 1603.440;  -46.560;    0.000;1649.99994
 664.12; 1574.660;  -50.850;    0.000;1625.51003
 664.39; 1568.080;  -51.040;    0.000;1619.11996
 664.66; 1565.570;  -59.340;    0.000;1624.90995
 664.93; 1531.060;  -53.960;    0.000;1585.02006
 665.20; 1549.430;  -53.460;    0.000;1602.89005
 665.47; 1535.470;  -47.830;    0.000;1583.29997
 665.74; 1505.250;  -60.190;    0.000;1565.44000
 666.01; 1531.680;  -44.910;    0.000;1576.59005
 666.28; 1497.540;  -62.110;    0.000;1559.65004
 666.55; 1488.280;  -47.720;    0.000;1536.00003
 666.82; 1481.450;  -61.520;    0.000;1542.96995
 667.09; 1492.890;  -45.890;    0.000;1538.78001
 667.36; 1455.490;  -54.560;    0.000;1510.04999
 667.63; 1447.650;  -43.790;    0.000;1491.44003
 667.90; 1433.850;  -51.910;    0.000;1485.75998
 668.16; 1437.520;  -40.660;    0.000;1478.18002
 668.43; 1407.900;  -53.130;    0.000;1461.03003
 668.70; 1416.770;  -47.080;    0.000;1463.85002
 668.97; 1389.930;  -59.160;    0.000;1449.09005
 669.24; 1395.880;  -43.280;    0.000;1439.16000
 669.51; 1381.830;  -51.700;    0.000;1433.52996
 669.78; 1360.240;  -49.880;    0.000;1410.11999
 670.05; 1360.930;  -54.220;    0.000;1415.15005
 670.32; 1359.830;  -41.260;    0.000;1401.08995
 670.59; 1324.510;  -58.230;    0.000;1382.74001
 670.86; 1338.850;  -44.790;    0.000;1383.63998
 671.13; 1306.230;  -51.170;    0.000;1357.39998
 671.40; 1306.670;  -50.870;    0.000;1357.54004
 671.67; 1309.530;  -39.480;    0.000;1349.01003
 671.93; 1270.540;  -50.050;    0.000;1320.59004
 672.20; 1272.650;  -62.530;    0.000;1335.18002
 672.47; 1276.640;  -51.630;    0.000;1328.27002
 672.74; 1252.790;  -58.180;    0.000;1310.97004
 673.01; 1240.360;  -52.500;    0.000;1292.85999
 673.28; 1244.710;  -48.790;    0.000;1293.49996
 673.55; 1233.770;  -56.290;    0.000;1290.06002
 673.82; 1224.540;  -57.450;    0.000;1281.99004
 674.09; 1239.760;  -47.520;    0.000;1287.28001
 674.35; 1212.270;  -52.050;    0.000;1264.32002
 674.62; 1200.530;  -40.650;    0.000;1241.18003
 674.89; 1184.130;  -56.110;    0.000;1240.24001
 675.16; 1185.250;  -46.170;    0.000;1231.42000
 675.43; 1184.460;  -57.390;    0.000;1241.84996
 675.70; 1184.580;  -32.700;    0.000;1217.27996
 675.97; 1151.390;  -53.910;    0.000;1205.30001
 676.24; 1145.750;  -47.160;    0.000;1192.91000
 676.50; 1140.350;  -58.400;    0.000;1198.74998
 676.77; 1125.490;  -48.110;    0.000;1173.59999
 677.04; 1115.880;  -55.880;    0.000;1171.76001
 677.31; 1109.130;  -53.920;    0.000;1163.05000
 677.58; 1100.140;  -50.120;    0.000;1150.26001
 677.85; 1108.620;  -44.200;    0.000;1152.82000
 678.12; 1083.920;  -55.690;    0.000;1139.61004
 678.38; 1076.260;  -42.970;    0.000;1119.23001
 678.65; 1070.070;  -64.680;    0.000;1134.74995
 678.92; 1057.320;  -54.550;    0.000;1111.86995
 679.19; 1082.970;  -39.690;    0.000;1122.65997
 679.46; 1047.270;  -47.550;    0.000;1094.82002
 679.73; 1032.420;  -59.220;    0.000;1091.64005
 679.99; 1034.180;  -50.410;    0.000;1084.59005
 680.26; 1012.020;  -62.850;    0.000;1074.87002
 680.53; 1015.920;  -49.460;    0.000;1065.37998
 680.80; 1012.530;  -57.820;    0.000;1070.35003
 681.07;  997.210;  -44.180;    0.000;1041.39002
 681.33;  993.030;  -51.070;    0.000;1044.10003
 681.60;  986.240;  -48.710;    0.000;1034.94999
 681.87;  981.560;  -62.990;    0.000;1044.55000
 682.14;  978.440;  -46.370;    0.000;1024.81000
 682.41;  954.450;  -55.150;    0.000;1009.60001
 682.67;  963.830;  -43.000;    0.000;1006.83002
 682.94;  932.210;  -68.110;    0.000;1000.32002
 683.21;  932.970;  -55.460;    0.000;988.42997
 683.48;  927.970;  -57.760;    0.000;985.72997
 683.75;  924.450;  -47.900;    0.000;972.35001
 684.01;  919.610;  -55.520;    0.000;975.12999
 684.28;  906.170;  -55.430;    0.000;961.59998
 684.55;  901.590;  -49.130;    0.000;950.72003
 684.82;  881.930;  -58.800;    0.000;940.72999
 685.09;  890.170;  -52.990;    0.000;943.15998
 685.35;  872.790;  -48.550;    0.000;921.33998
 685.62;  860.760;  -54.740;    0.000;915.50001
 685.89;  874.540;  -44.100;    0.000;918.63998
 686.16;  856.950;  -63.070;    0.000;920.02001
 686.42;  852.290;  -46.900;    0.000;899.18998
 686.69;  854.370;  -44.640;    0.000;899.00999
 686.96;  824.700;  -61.770;    0.000;886.47001
 687.23;  835.590;  -43.540;    0.000;879.13003
 687.49;  835.000;  -35.390;    0.000;870.39000
 687.76;  808.030;  -62.140;    0.000;870.17003
 688.03;  817.100;  -50.100;    0.000;867.19997
 688.30;  795.730;  -64.450;    0.000;860.17998
 688.56;  783.480;  -52.870;    0.000;836.34998
 688.83;  786.110;  -60.550;    0.000;846.65998
 689.10;  773.450;  -53.890;    0.000;827.34001
 689.37;  770.440;  -70.030;    0.000;840.47000
 689.63;  772.310;  -48.550;    0.000;820.86000
 689.90;  769.800;  -53.230;    0.000;823.02999
 690.17;  767.550;  -49.050;    0.000;816.59999
 690.44;  737.380;  -58.840;    0.000;796.22001
 690.70;  726.070;  -52.720;    0.000;778.79001
 690.97;  734.120;  -53.770;    0.000;787.89000
 691.24;  731.410;  -47.860;    0.000;779.26997
 691.50;  723.450;  -59.530;    0.000;782.98001
 691.77;  713.480;  -56.310;    0.000;769.78998
 692.04;  696.580;  -59.430;    0.000;756.01002
 692.30;  690.760;  -57.620;    0.000;748.38001
 692.57;  683.910;  -60.930;    0.000;744.83997
 692.84;  685.400;  -56.380;    0.000;741.78003
 693.11;  672.140;  -67.750;    0.000;739.89001
 693.37;  677.280;  -50.830;    0.000;728.11003
 693.64;  660.570;  -63.140;    0.000;723.71001
 693.91;  675.660;  -51.900;    0.000;727.55997
 694.17;  651.390;  -47.910;    0.000;699.30001
 694.44;  658.980;  -47.070;    0.000;706.04998
 694.71;  639.630;  -61.340;    0.000;700.97001
 694.97;  627.910;  -52.260;    0.000;680.16997
 695.24;  616.440;  -63.910;    0.000;680.35000
 695.51;  611.970;  -62.980;    0.000;674.94997
 695.77;  612.690;  -59.670;    0.000;672.36000
 696.04;  601.980;  -52.380;    0.000;654.35998
 696.31;  588.070;  -66.480;    0.000;654.55001
 696.57;  611.360;  -38.310;    0.000;649.66999
 696.84;  586.670;  -52.850;    0.000;639.51998
 697.11;  581.520;  -54.240;    0.000;635.76002
 697.37;  587.520;  -51.920;    0.000;639.44002
 697.64;  565.850;  -53.060;    0.000;618.90998
 697.91;  556.750;  -60.220;    0.000;616.97000
 698.17;  544.940;  -54.270;    0.000;599.21000
 698.44;  543.090;  -63.030;    0.000;606.12003
 698.71;  544.770;  -49.550;    0.000;594.32002
 698.97;  531.660;  -54.580;    0.000;586.23997
 699.24;  539.100;  -45.040;    0.000;584.13998
 699.50;  515.430;  -64.050;    0.000;579.48000
 699.77;  511.050;  -49.010;    0.000;560.05999
 700.04;  499.670;  -64.650;    0.000;564.32001
 700.30;  497.460;  -61.870;    0.000;559.32999
 700.57;  481.610;  -63.250;    0.000;544.85999
 700.84;  502.810;  -41.730;    0.000;544.54000
 701.10;  470.680;  -62.570;    0.000;533.24999
 701.37;  473.390;  -60.320;    0.000;533.71001
 701.63;  452.300;  -59.440;    0.000;511.73999
 701.90;  456.810;  -53.830;    0.000;510.64000
 702.17;  465.460;  -49.470;    0.000;514.92999
 702.43;  433.760;  -55.120;    0.000;488.88001
 702.70;  443.970;  -53.740;    0.000;497.71000
 702.96;  432.940;  -60.640;    0.000;493.58000
 703.23;  410.680;  -59.120;    0.000;469.79999
 703.50;  399.250;  -56.130;    0.000;455.38000
 703.76;  414.510;  -52.510;    0.000;467.02001
 704.03;  407.570;  -42.210;    0.000;449.78001
 704.29;  402.480;  -51.680;    0.000;454.16001
 704.56;  386.070;  -59.410;    0.000;445.48001
 704.82;  373.500;  -60.620;    0.000;434.12000
 705.09;  377.680;  -50.430;    0.000;428.10999
 705.36;  358.220;  -62.970;    0.000;421.19000
 705.62;  375.200;  -33.310;    0.000;408.51001
 705.89;  349.290;  -59.100;    0.000;408.39001
 706.15;  349.520;  -48.880;    0.000;398.39999
 706.42;  343.640;  -57.690;    0.000;401.33001
 706.68;  330.770;  -56.700;    0.000;387.46999
 706.95;  329.920;  -57.630;    0.000;387.55001
 707.21;  315.310;  -58.650;    0.000;373.96000
 707.48;  320.050;  -61.920;    0.000;381.96999
 707.75;  314.980;  -50.800;    0.000;365.78001
 708.01;  302.550;  -61.080;    0.000;363.62999
 708.28;  307.390;  -51.820;    0.000;359.21001
 708.54;  288.440;  -63.220;    0.000;351.66000
 708.81;  295.590;  -44.090;    0.000;339.68000
 709.07;  280.360;  -62.050;    0.000;342.40998
 709.34;  287.590;  -61.410;    0.000;349.00000
 709.60;  274.530;  -68.660;    0.000;343.19000
 709.87;  280.880;  -48.490;    0.000;329.37001
 710.13;  268.490;  -66.420;    0.000;334.90999
 710.40;  262.110;  -64.680;    0.000;326.78999
 710.66;  264.010;  -62.120;    0.000;326.13001
 710.93;  257.590;  -55.610;    0.000;313.20000
 711.19;  246.010;  -63.730;    0.000;309.73999
 711.46;  255.150;  -48.890;    0.000;304.03999
 711.72;  242.370;  -58.100;    0.000;300.46999
 711.99;  247.330;  -47.670;    0.000;295.00000
 712.25;  233.040;  -61.830;    0.000;294.87000
 712.52;  246.870;  -40.700;    0.000;287.57000
 712.78;  232.860;  -56.040;    0.000;288.90000
 713.05;  224.860;  -54.940;    0.000;279.80000
 713.31;  222.100;  -58.190;    0.000;280.29000
 713.58;  208.270;  -51.770;    0.000;260.04000
 713.84;  219.820;  -61.840;    0.000;281.66001
 714.11;  229.710;  -54.940;    0.000;284.65001
 714.37;  210.800;  -57.910;    0.000;268.71000
 714.64;  211.370;  -56.410;    0.000;267.77999
 714.90;  216.050;  -55.060;    0.000;271.11000
 715.17;  202.320;  -59.790;    0.000;262.11001
 715.43;  206.020;  -60.320;    0.000;266.34000
 715.70;  208.550;  -53.640;    0.000;262.19000
 715.96;  197.460;  -60.380;    0.000;257.84001
 716.22;  201.910;  -56.780;    0.000;258.69000
 716.49;  195.490;  -68.920;    0.000;264.41000
 716.75;  190.330;  -64.590;    0.000;254.92000
 717.02;  201.720;  -56.200;    0.000;257.92000
 717.28;  187.350;  -59.350;    0.000;246.70000
 717.55;  184.800;  -69.660;    0.000;254.46001
 717.81;  195.990;  -55.520;    0.000;251.51001
 718.08;  192.230;  -60.370;    0.000;252.59999
 718.34;  184.770;  -59.980;    0.000;244.75000
 718.60;  198.010;  -56.160;    0.000;254.16999
 718.87;  194.150;  -53.350;    0.000;247.49999
 719.13;  188.650;  -62.460;    0.000;251.10999
 719.40;  184.200;  -51.850;    0.000;236.05000
 719.66;  188.140;  -64.270;    0.000;252.41000
 719.93;  189.980;  -47.770;    0.000;237.75000
 720.19;  177.050;  -70.590;    0.000;247.64000
 720.45;  181.700;  -58.110;    0.000;239.81000
 720.72;  176.620;  -60.550;    0.000;237.16999
 720.98;  188.310;  -56.440;    0.000;244.75000
 721.25;  180.950;  -72.700;    0.000;253.64999
 721.51;  179.670;  -61.040;    0.000;240.71000
 721.77;  176.260;  -62.760;    0.000;239.01999
 722.04;  189.560;  -46.700;    0.000;236.26000
 722.30;  182.060;  -58.310;    0.000;240.37000
 722.57;  180.280;  -52.890;    0.000;233.17000
 722.83;  181.030;  -62.730;    0.000;243.76000
 723.09;  172.430;  -56.910;    0.000;229.33999
 723.36;  167.810;  -59.400;    0.000;227.21000
 723.62;  177.100;  -51.840;    0.000;228.94001
 723.88;  182.560;  -59.890;    0.000;242.45000
 724.15;  176.340;  -49.500;    0.000;225.84000
 724.41;  170.060;  -65.630;    0.000;235.68999
 724.68;  174.130;  -59.360;    0.000;233.49001
 724.94;  190.780;  -48.690;    0.000;239.47000
 725.20;  171.160;  -56.210;    0.000;227.37000
 725.47;  168.270;  -62.730;    0.000;231.00000
 725.73;  162.380;  -64.430;    0.000;226.81001
 725.99;  160.270;  -71.790;    0.000;232.06001
 726.26;  180.050;  -50.060;    0.000;230.11000
 726.52;  168.840;  -63.590;    0.000;232.43000
 726.78;  173.690;  -52.290;    0.000;225.98000
 727.05;  180.130;  -61.380;    0.000;241.51001
 727.31;  168.800;  -52.170;    0.000;220.97000
 727.57;  165.730;  -63.730;    0.000;229.46000
 727.84;  168.480;  -53.340;    0.000;221.82000
 728.10;  171.170;  -60.120;    0.000;231.29000
 728.36;  162.610;  -53.710;    0.000;216.32000
 728.63;  161.670;  -62.820;    0.000;224.49000
 728.89;  155.440;  -60.280;    0.000;215.72000
 729.15;  154.950;  -65.040;    0.000;219.99000
 729.42;  152.920;  -60.470;    0.000;213.39000
 729.68;  159.830;  -54.970;    0.000;214.80000
 729.94;  151.240;  -68.100;    0.000;219.34000
 730.21;  148.180;  -64.640;    0.000;212.81999
 730.47;  153.660;  -63.530;    0.000;217.19000
 730.73;  147.960;  -66.260;    0.000;214.22001
 731.00;  142.950;  -57.360;    0.000;200.31000
 731.26;  141.040;  -57.540;    0.000;198.57999
 731.52;  141.930;  -58.280;    0.000;200.20999
 731.78;  140.970;  -66.450;    0.000;207.42000
 732.05;  135.650;  -65.530;    0.000;201.17999
 732.31;  144.200;  -59.070;    0.000;203.27000
 732.57;  133.370;  -54.620;    0.000;187.98999
 732.84;  138.080;  -70.510;    0.000;208.59000
 733.10;  130.310;  -57.600;    0.000;187.91000
 733.36;  132.940;  -70.050;    0.000;202.99001
 733.62;  133.560;  -62.500;    0.000;196.06000
 733.89;  133.510;  -59.180;    0.000;192.68999
 734.15;  127.730;  -61.340;    0.000;189.07000
 734.41;  138.050;  -61.790;    0.000;199.84000
 734.67;  135.060;  -50.600;    0.000;185.66000
 734.94;  124.740;  -63.880;    0.000;188.62000
 735.20;  126.800;  -57.270;    0.000;184.07000
 735.46;  126.770;  -68.040;    0.000;194.81000
 735.73;  130.000;  -54.400;    0.000;184.40000
 735.99;  114.020;  -71.180;    0.000;185.20000
 736.25;  115.680;  -55.920;    0.000;171.60000
 736.51;  113.320;  -61.210;    0.000;174.53000
 736.77;  118.080;  -54.920;    0.000;173.00000
 737.04;  116.520;  -62.400;    0.000;178.92000
 737.30;  118.120;  -58.680;    0.000;176.80000
 737.56;  120.880;  -58.620;    0.000;179.50000
 737.82;  122.980;  -58.750;    0.000;181.73000
 738.09;  101.910;  -70.360;    0.000;172.27000
 738.35;  105.550;  -63.970;    0.000;169.52000
 738.61;  109.970;  -61.870;    0.000;171.84000
 738.87;  109.000;  -52.450;    0.000;161.45000
 739.14;  103.910;  -61.560;    0.000;165.47001
 739.40;  102.650;  -64.850;    0.000;167.50000
 739.66;  104.640;  -68.810;    0.000;173.45000
 739.92;   99.340;  -63.470;    0.000;162.81000
 740.18;  106.910;  -64.080;    0.000;170.99001
 740.45;   99.320;  -61.060;    0.000;160.38000
 740.71;   93.450;  -53.970;    0.000;147.42000
 740.97;  102.940;  -55.520;    0.000;158.46000
 741.23;   95.950;  -74.870;    0.000;170.82000
 741.49;  100.470;  -59.120;    0.000;159.59000
 741.76;   83.340;  -76.640;    0.000;159.98000
 742.02;   94.100;  -68.540;    0.000;162.64000
 742.28;   90.780;  -68.520;    0.000;159.30000
 742.54;   92.590;  -57.000;    0.000;149.59000
 742.80;   94.020;  -70.310;    0.000;164.32999
 743.06;   91.710;  -54.290;    0.000;146.00000
 743.33;   81.320;  -60.930;    0.000;142.25000
 743.59;   78.590;  -62.190;    0.000;140.77999
 743.85;   75.610;  -73.310;    0.000;148.92000
 744.11;   72.440;  -63.690;    0.000;136.13000
 744.37;   89.570;  -58.170;    0.000;147.74000
 744.63;   75.640;  -65.230;    0.000;140.87000
 744.90;   69.980;  -72.800;    0.000;142.78001
 745.16;   76.050;  -57.920;    0.000;133.97000
 745.42;   76.540;  -62.790;    0.000;139.33000
 745.68;   77.000;  -55.010;    0.000;132.01000
 745.94;   83.180;  -55.100;    0.000;138.28000
 746.20;   71.590;  -54.310;    0.000;125.90000
 746.46;   75.650;  -60.150;    0.000;135.80000
 746.72;   74.040;  -51.640;    0.000;125.68000
 746.99;   63.990;  -60.120;    0.000;124.11000
 747.25;   79.250;  -53.010;    0.000;132.26000
 747.51;   58.540;  -65.470;    0.000;124.01000
 747.77;   69.060;  -60.410;    0.000;129.47000
 748.03;   49.090;  -67.950;    0.000;117.04000
 748.29;   57.440;  -58.140;    0.000;115.58000
 748.55;   61.440;  -70.260;    0.000;131.70000
 748.81;   63.640;  -63.530;    0.000;127.17000
 749.08;   59.150;  -67.880;    0.000;127.03000
 749.34;   57.800;  -63.460;    0.000;121.26000
 749.60;   63.280;  -60.810;    0.000;124.09000
 749.86;   58.470;  -53.480;    0.000;111.95000
 750.12;   48.660;  -69.350;    0.000;118.01000
 750.38;   56.540;  -65.040;    0.000;121.58000
 750.64;   40.020;  -75.360;    0.000;115.38000
 750.90;   54.330;  -57.730;    0.000;112.06000
 751.16;   37.000;  -72.650;    0.000;109.65000
 751.42;   49.730;  -66.050;    0.000;115.78000
 751.68;   56.450;  -55.770;    0.000;112.22000
 751.95;   41.540;  -68.120;    0.000;109.66000
 752.21;   39.750;  -73.710;    0.000;113.46000
 752.47;   40.170;  -65.780;    0.000;105.95000
 752.73;   33.340;  -68.460;    0.000;101.80000
 752.99;   34.630;  -65.620;    0.000;100.25000
 753.25;   33.180;  -71.920;    0.000;105.10000
 753.51;   35.420;  -65.730;    0.000;101.15000
 753.77;   29.140;  -65.570;    0.000;94.71000
 754.03;   36.950;  -62.250;    0.000;99.20000
 754.29;   37.760;  -73.500;    0.000;111.26000
 754.55;   31.680;  -62.200;    0.000;93.88000
 754.81;   24.530;  -67.770;    0.000;92.30000
 755.07;   29.810;  -63.760;    0.000;93.57000
 755.33;   32.820;  -72.470;    0.000;105.29000
 755.59;   24.490;  -62.720;    0.000;87.21000
 755.85;   19.340;  -72.300;    0.000;91.64000
 756.11;   28.510;  -63.710;    0.000;92.22000
 756.37;   20.050;  -65.050;    0.000;85.10000
 756.63;   35.080;  -46.260;    0.000;81.34000
 756.89;    8.200;  -68.760;    0.000;76.96000
 757.15;   21.800;  -63.070;    0.000;84.87000
 757.41;   36.660;  -60.190;    0.000;96.85000
 757.68;   19.810;  -60.550;    0.000;80.36000
 757.94;   33.080;  -62.430;    0.000;95.51000
 758.20;   28.390;  -50.770;    0.000;79.16000
 758.46;   10.480;  -72.870;    0.000;83.35000
 758.72;   18.230;  -60.630;    0.000;78.86000
 758.98;   25.810;  -67.190;    0.000;93.00000
 759.24;   23.090;  -60.950;    0.000;84.04000
 759.50;   14.530;  -65.080;    0.000;79.61000
 759.76;   22.920;  -52.950;    0.000;75.87000
 760.02;   15.920;  -68.640;    0.000;84.56000
 760.27;   14.070;  -66.730;    0.000;80.80000
 760.53;   20.160;  -63.330;    0.000;83.49000
 760.79;    9.800;  -55.120;    0.000;64.92000
 761.05;   15.340;  -65.560;    0.000;80.90000
 761.31;   16.730;  -50.350;    0.000;67.08000
 761.57;   17.690;  -60.250;    0.000;77.94000
 761.83;   11.480;  -64.180;    0.000;75.66000
 762.09;    3.200;  -69.040;    0.000;72.24000
 762.35;    5.150;  -66.860;    0.000;72.01000
 762.61;    8.710;  -67.680;    0.000;76.39000
 762.87;   11.860;  -58.700;    0.000;70.56000
 763.13;   -7.060;  -71.060;    0.000;64.00000
 763.39;   19.080;  -47.730;    0.000;66.81000
 763.65;    0.920;  -71.990;    0.000;72.91000
 763.91;   -6.200;  -68.860;    0.000;62.66000
 764.17;    1.290;  -60.390;    0.000;61.68000
 764.43;    9.960;  -62.800;    0.000;72.76000
 764.69;   -2.080;  -70.830;    0.000;68.75000
 764.95;   -6.480;  -57.460;    0.000;50.98000
 765.21;   -6.280;  -75.860;    0.000;69.58000
 765.47;    6.260;  -58.260;    0.000;64.52000
 765.73;   -2.970;  -64.620;    0.000;61.65000
 765.98;    9.290;  -50.970;    0.000;60.26000
 766.24;   -4.980;  -70.810;    0.000;65.83000
 766.50;   -3.770;  -70.380;    0.000;66.61000
 766.76;   -0.610;  -65.780;    0.000;65.17000
 767.02;   -3.900;  -70.800;    0.000;66.90000
 767.28;   -5.970;  -68.300;    0.000;62.33000
 767.54;   -0.830;  -62.740;    0.000;61.91000
 767.80;   -8.850;  -64.940;    0.000;56.09000
 768.06;   -0.170;  -54.110;    0.000;53.94000
 768.32;   -2.790;  -65.490;    0.000;62.70000
 768.58;   -1.590;  -66.120;    0.000;64.53000
 768.83;   -8.790;  -64.670;    0.000;55.88000
 769.09;   -3.700;  -63.170;    0.000;59.47000
 769.35;   -5.560;  -65.700;    0.000;60.14000
 769.61;   -6.650;  -57.700;    0.000;51.05000
 769.87;   -9.730;  -67.850;    0.000;58.12000
 770.13;   -0.430;  -57.810;    0.000;57.38000
 770.39;  -19.900;  -80.360;    0.000;60.46000
 770.65;   -5.740;  -65.130;    0.000;59.39000
 770.90;  -14.700;  -68.230;    0.000;53.53000
 771.16;  -13.810;  -68.730;    0.000;54.92000
 771.42;  -10.310;  -66.270;    0.000;55.96000
 771.68;  -18.240;  -66.190;    0.000;47.95000
 771.94;   -3.300;  -65.460;    0.000;62.16000
 772.20;   -9.990;  -69.220;    0.000;59.23000
 772.46;  -29.620;  -75.740;    0.000;46.12000
 772.71;   -4.970;  -60.950;    0.000;55.98000
 772.97;   -3.580;  -60.710;    0.000;57.13000
 773.23;  -17.310;  -62.140;    0.000;44.83000
 773.49;   -4.450;  -62.530;    0.000;58.08000
 773.75;  -21.190;  -61.650;    0.000;40.46000
 774.01;  -16.940;  -75.240;    0.000;58.30000
 774.26;  -19.530;  -71.900;    0.000;52.37000
 774.52;  -10.760;  -61.130;    0.000;50.37000
 774.78;  -18.580;  -67.460;    0.000;48.88000
 775.04;    0.130;  -50.810;    0.000;50.94000
 775.30;  -16.270;  -66.290;    0.000;50.02000
 775.56;  -16.150;  -73.310;    0.000;57.16000
 775.81;  -19.620;  -66.090;    0.000;46.47000
 776.07;  -30.470;  -75.370;    0.000;44.90000
 776.33;  -25.180;  -68.460;    0.000;43.28000
 776.59;  -21.130;  -66.250;    0.000;45.12000
 776.85;  -26.800;  -65.230;    0.000;38.43000
 777.10;  -13.710;  -66.530;    0.000;52.82000
 777.36;  -20.730;  -76.320;    0.000;55.59000
 777.62;  -16.250;  -71.140;    0.000;54.89000
 777.88;  -27.430;  -67.550;    0.000;40.12000
 778.14;  -25.980;  -71.280;    0.000;45.30000
 778.39;  -20.660;  -59.350;    0.000;38.69000
 778.65;  -17.470;  -76.080;    0.000;58.61000
 778.91;  -34.240;  -69.460;    0.000;35.22000
 779.17;  -23.200;  -65.910;    0.000;42.71000
 779.42;  -26.800;  -70.000;    0.000;43.20000
 779.68;  -26.490;  -72.550;    0.000;46.06000
 779.94;  -19.170;  -61.510;    0.000;42.34000
 780.20;  -30.310;  -68.870;    0.000;38.56000
 780.46;  -29.950;  -64.180;    0.000;34.23000
 780.71;  -20.840;  -62.960;    0.000;42.12000
 780.97;  -25.680;  -64.720;    0.000;39.04000
 781.23;  -29.430;  -78.300;    0.000;48.87000
 781.49;  -21.980;  -56.640;    0.000;34.66000
 781.74;  -29.680;  -74.730;    0.000;45.05000
 782.00;  -30.560;  -75.150;    0.000;44.59000
 782.26;  -24.070;  -68.030;    0.000;43.96000
 782.52;  -35.160;  -62.660;    0.000;27.50000
 782.77;  -23.410;  -68.100;    0.000;44.69000
 783.03;  -33.670;  -69.130;    0.000;35.46000
 783.29;  -35.170;  -71.240;    0.000;36.07000
 783.54;  -33.890;  -62.780;    0.000;28.89000
 783.80;  -23.210;  -68.050;    0.000;44.84000
 784.06;  -31.640;  -63.550;    0.000;31.91000
 784.32;  -34.480;  -72.520;    0.000;38.04000
 784.57;   -6.390;  -47.820;    0.000;41.43000
 784.83;  -38.040;  -76.230;    0.000;38.19000
 785.09;  -39.700;  -76.220;    0.000;36.52000
 785.34;  -32.930;  -72.440;    0.000;39.51000
 785.60;  -22.980;  -59.580;    0.000;36.60000
 785.86;  -31.630;  -71.820;    0.000;40.19000
 786.12;  -27.610;  -61.570;    0.000;33.96000
 786.37;  -24.090;  -65.600;    0.000;41.51000
 786.63;  -42.820;  -71.170;    0.000;28.35000
 786.89;  -33.020;  -68.790;    0.000;35.77000
 787.14;  -28.630;  -54.860;    0.000;26.23000
 787.40;  -34.700;  -71.540;    0.000;36.84000
 787.66;  -32.400;  -65.770;    0.000;33.37000
 787.91;  -20.110;  -52.860;    0.000;32.75000
 788.17;  -43.510;  -65.710;    0.000;22.20000
 788.43;  -35.510;  -73.180;    0.000;37.67000
 788.68;  -43.550;  -71.660;    0.000;28.11000
 788.94;  -34.210;  -74.750;    0.000;40.54000
 789.20;  -35.470;  -64.840;    0.000;29.37000
 789.45;  -47.760;  -74.230;    0.000;26.47001
 789.71;  -37.980;  -67.010;    0.000;29.03000
 789.97;  -32.230;  -63.030;    0.000;30.80000
 790.22;  -32.510;  -65.710;    0.000;33.20000
 790.48;  -38.340;  -74.810;    0.000;36.47000
 790.74;  -29.050;  -63.640;    0.000;34.59000
 790.99;  -42.360;  -72.490;    0.000;30.13000
 791.25;  -35.190;  -64.710;    0.000;29.52000
 791.51;  -44.010;  -73.530;    0.000;29.52000
 791.76;  -26.790;  -59.650;    0.000;32.86000
 792.02;  -46.110;  -74.710;    0.000;28.60000
 792.27;  -27.180;  -54.830;    0.000;27.65000
 792.53;  -45.250;  -68.030;    0.000;22.78000
 792.79;  -43.150;  -66.160;    0.000;23.01000
 793.04;  -36.960;  -68.920;    0.000;31.96000
 793.30;  -42.570;  -70.820;    0.000;28.25000
 793.56;  -43.520;  -75.870;    0.000;32.35000
 793.81;  -29.380;  -50.310;    0.000;20.93000
 794.07;  -48.910;  -79.000;    0.000;30.09000
 794.32;  -40.410;  -65.900;    0.000;25.49000
 794.58;  -40.100;  -77.010;    0.000;36.91000
 794.84;  -35.810;  -60.880;    0.000;25.07000
 795.09;  -31.890;  -69.020;    0.000;37.13000
 795.35;  -32.980;  -61.980;    0.000;29.00000
 795.60;  -35.900;  -70.560;    0.000;34.66000
 795.86;  -41.640;  -63.860;    0.000;22.22000
 796.12;  -46.880;  -78.510;    0.000;31.63000
 796.37;  -48.910;  -68.490;    0.000;19.58000
 796.63;  -49.470;  -69.590;    0.000;20.12000
 796.88;  -44.200;  -65.560;    0.000;21.36000
 797.14;  -32.640;  -70.280;    0.000;37.64000
 797.39;  -35.780;  -65.640;    0.000;29.86000
 797.65;  -50.060;  -72.970;    0.000;22.91000
 797.91;  -43.540;  -73.160;    0.000;29.62000
 798.16;  -45.900;  -74.870;    0.000;28.97000
 798.42;  -42.030;  -70.790;    0.000;28.76000
 798.67;  -44.460;  -79.900;    0.000;35.44000
 798.93;  -49.490;  -66.230;    0.000;16.74000
 799.18;  -50.130;  -75.680;    0.000;25.55000
 799.44;  -49.610;  -66.210;    0.000;16.60000
 799.69;  -43.720;  -73.250;    0.000;29.53000
 799.95;  -49.540;  -73.750;    0.000;24.21000
 800.21;  -43.680;  -76.850;    0.000;33.17000
 800.46;  -30.690;  -51.900;    0.000;21.21000
 800.72;  -53.620;  -71.510;    0.000;17.89000
 800.97;  -46.590;  -72.510;    0.000;25.92000
 801.23;  -51.970;  -80.470;    0.000;28.50000
 801.48;  -46.760;  -76.540;    0.000;29.78000
 801.74;  -50.400;  -74.340;    0.000;23.93999
 801.99;  -39.180;  -63.730;    0.000;24.55000
 802.25;  -50.170;  -70.040;    0.000;19.87000
 802.50;  -47.310;  -65.610;    0.000;18.30000
 802.76;  -42.730;  -72.120;    0.000;29.39000
 803.01;  -48.820;  -74.290;    0.000;25.47000
 803.27;  -47.220;  -73.240;    0.000;26.02000
 803.52;  -48.810;  -60.520;    0.000;11.71000
 803.78;  -40.780;  -66.200;    0.000;25.42000
 804.03;  -38.380;  -59.220;    0.000;20.84000
 804.29;  -61.020;  -80.530;    0.000;19.51000
 804.54;  -45.860;  -66.360;    0.000;20.50000
 804.80;  -53.080;  -75.680;    0.000;22.60000
 805.05;  -51.620;  -69.490;    0.000;17.87000
 805.31;  -43.190;  -66.970;    0.000;23.78000
 805.56;  -47.920;  -58.470;    0.000;10.55000
 805.82;  -61.290;  -79.550;    0.000;18.26000
 806.07;  -43.360;  -62.310;    0.000;18.95000
 806.33;  -56.620;  -76.230;    0.000;19.61000
 806.58;  -61.540;  -74.560;    0.000;13.02000
 806.84;  -49.340;  -69.680;    0.000;20.34000
 807.09;  -47.670;  -67.630;    0.000;19.96000
 807.34;  -44.890;  -76.660;    0.000;31.77000
 807.60;  -39.440;  -58.680;    0.000;19.24000
 807.85;  -48.130;  -73.670;    0.000;25.54000
 808.11;  -48.200;  -69.550;    0.000;21.35000
 808.36;  -48.890;  -70.980;    0.000;22.09000
 808.62;  -55.440;  -71.470;    0.000;16.03000
 808.87;  -52.630;  -74.120;    0.000;21.49000
 809.13;  -59.710;  -74.600;    0.000;14.89000
 809.38;  -36.160;  -66.100;    0.000;29.94000
 809.63;  -57.470;  -67.340;    0.000; 9.87000
 809.89;  -47.010;  -70.460;    0.000;23.45000
 810.14;  -53.890;  -68.440;    0.000;14.55000
 810.40;  -48.060;  -76.650;    0.000;28.59000
 810.65;  -51.750;  -67.160;    0.000;15.41000
 810.91;  -60.270;  -74.900;    0.000;14.63000
 811.16;  -45.810;  -63.330;    0.000;17.52000
 811.41;  -42.170;  -72.490;    0.000;30.32000
 811.67;  -49.240;  -74.880;    0.000;25.64000
 811.92;  -40.760;  -68.170;    0.000;27.41000
 812.18;  -52.660;  -67.550;    0.000;14.89000
 812.43;  -51.860;  -76.000;    0.000;24.14000
 812.68;  -53.920;  -66.340;    0.000;12.42000
 812.94;  -54.010;  -71.130;    0.000;17.12000
 813.19;  -56.370;  -71.760;    0.000;15.39000
 813.45;  -26.700;  -50.730;    0.000;24.03000
 813.70;  -46.780;  -72.270;    0.000;25.49000
 813.95;  -51.770;  -74.870;    0.000;23.10000
 814.21;  -43.400;  -61.840;    0.000;18.44000
 814.46;  -53.210;  -74.680;    0.000;21.47000
 814.71;  -66.770;  -74.920;    0.000; 8.15000
 814.97;  -63.200;  -79.920;    0.000;16.72000
 815.22;  -56.690;  -71.060;    0.000;14.37000
 815.48;  -65.340;  -77.050;    0.000;11.71001
 815.73;  -45.360;  -64.440;    0.000;19.08000
 815.98;  -54.150;  -78.160;    0.000;24.01000
 816.24;  -60.170;  -70.740;    0.000;10.57000
 816.49;  -52.860;  -70.330;    0.000;17.47000
 816.74;  -54.060;  -68.280;    0.000;14.22000
 817.00;  -46.960;  -60.660;    0.000;13.70000
 817.25;  -54.140;  -70.740;    0.000;16.60000
 817.50;  -61.450;  -73.190;    0.000;11.74000
 817.76;  -63.680;  -71.160;    0.000; 7.48000
 818.01;  -55.920;  -80.910;    0.000;24.99001
 818.26;  -52.510;  -69.950;    0.000;17.44000
 818.52;  -53.010;  -74.150;    0.000;21.14000
 818.77;  -59.080;  -73.060;    0.000;13.98000
 819.02;   53.520;   29.560;    0.000;23.96000
 819.28;  -57.540;  -64.620;    0.000; 7.08000
 819.53;  -56.680;  -79.640;    0.000;22.96000
 819.78;  -51.350;  -63.410;    0.000;12.06000
 820.04;  -56.810;  -80.400;    0.000;23.59000
 820.29;  -56.190;  -69.270;    0.000;13.08000
 820.54;  -51.320;  -72.870;    0.000;21.55000
 820.79;  -45.430;  -63.880;    0.000;18.45000
 821.05;  -65.650;  -78.920;    0.000;13.27000
 821.30;  -42.810;  -57.000;    0.000;14.19000
 821.55;  -49.020;  -67.530;    0.000;18.51000
 821.81;  -60.000;  -65.110;    0.000; 5.11000
 822.06;  -56.940;  -69.700;    0.000;12.76000
 822.31;  -44.540;  -54.340;    0.000; 9.80000
 822.56;  -62.670;  -77.970;    0.000;15.30000
 822.82;  -65.570;  -69.810;    0.000; 4.24000
 823.07;  -67.130;  -89.380;    0.000;22.25000
 823.32;  -66.590;  -75.860;    0.000; 9.27000
 823.58;  -56.600;  -70.420;    0.000;13.82000
 823.83;  -63.670;  -70.980;    0.000; 7.31001
 824.08;  -57.850;  -78.660;    0.000;20.81001
 824.33;  -69.830;  -75.510;    0.000; 5.68000
 824.59;  -58.790;  -83.240;    0.000;24.45000
 824.84;  -55.460;  -69.990;    0.000;14.53000
 825.09;  -61.020;  -83.730;    0.000;22.71000
 825.34;  -58.360;  -74.630;    0.000;16.27000
 825.60;  -67.150;  -84.950;    0.000;17.80000
 825.85;  -59.320;  -74.770;    0.000;15.45000
 826.10;  -71.370;  -85.230;    0.000;13.86000
 826.35;  -58.530;  -69.940;    0.000;11.41000
 826.61;  -69.560;  -80.400;    0.000;10.84000
 826.86;  -62.980;  -79.490;    0.000;16.51000
 827.11;  -68.030;  -86.280;    0.000;18.25000
 827.36;  -68.380;  -71.910;    0.000; 3.53001
 827.61;  -65.410;  -84.850;    0.000;19.43999
 827.87;  -55.050;  -71.570;    0.000;16.52000
 828.12;  -63.770;  -78.830;    0.000;15.06000
 828.37;  -52.220;  -68.330;    0.000;16.11000
 828.62;  -57.990;  -77.270;    0.000;19.27999
 828.88;  -58.990;  -60.210;    0.000; 1.22000
 829.13;  -57.570;  -70.740;    0.000;13.17000
 829.38;  -60.230;  -69.280;    0.000; 9.05000
 829.63;  -67.880;  -83.630;    0.000;15.75000
 829.88;  -71.020;  -69.950;    0.000;-1.07000
 830.14;  -59.920;  -81.910;    0.000;21.99001
 830.39;  -53.720;  -58.230;    0.000; 4.51000
 830.64;  -64.870;  -82.670;    0.000;17.80000
 830.89;  -53.140;  -62.930;    0.000; 9.79000
 831.14;  -57.290;  -71.790;    0.000;14.50000
 831.39;  -69.670;  -73.460;    0.000; 3.79000
 831.65;  -69.410;  -85.810;    0.000;16.39999
 831.90;  -62.430;  -75.250;    0.000;12.82000
 832.15;  -59.820;  -75.760;    0.000;15.94000
 832.40;  -49.400;  -68.560;    0.000;19.16000
 832.65;  -63.940;  -76.110;    0.000;12.17000
 832.90;  -71.610;  -74.690;    0.000; 3.08000
 833.16;  -73.070;  -72.190;    0.000;-0.88000
 833.41;  -65.110;  -74.650;    0.000; 9.54000
 833.66;  -66.650;  -75.930;    0.000; 9.28000
 833.91;  -65.660;  -67.900;    0.000; 2.24000
 834.16;  -67.700;  -86.950;    0.000;19.25000
 834.41;  -69.690;  -77.320;    0.000; 7.63000
 834.66;  -60.470;  -80.900;    0.000;20.43000
 834.92;  -65.170;  -78.390;    0.000;13.22000
 835.17;  -70.290;  -83.210;    0.000;12.92000
 835.42;  -69.500;  -71.510;    0.000; 2.01000
 835.67;  -63.810;  -72.580;    0.000; 8.77000
 835.92;  -66.610;  -66.140;    0.000;-0.47000
 836.17;  -65.610;  -85.970;    0.000;20.36000
 836.42;  -66.730;  -76.440;    0.000; 9.71000
 836.67;  -65.590;  -84.830;    0.000;19.24001
 836.93;  -56.930;  -73.590;    0.000;16.66000
 837.18;  -68.850;  -72.250;    0.000; 3.40000
 837.43;  -67.930;  -78.260;    0.000;10.33000
 837.68;  -64.330;  -82.050;    0.000;17.72000
 837.93;  -69.720;  -76.650;    0.000; 6.93000
 838.18;  -69.950;  -83.090;    0.000;13.14000
 838.43;  -68.240;  -77.150;    0.000; 8.91000
 838.68;  -64.790;  -79.940;    0.000;15.15000
 838.93;  -64.880;  -79.860;    0.000;14.98000
 839.18;  -71.320;  -78.450;    0.000; 7.13000
 839.43;  -61.340;  -61.670;    0.000; 0.33000
 839.69;  -68.930;  -86.230;    0.000;17.30000
 839.94;  -66.010;  -73.790;    0.000; 7.78000
 840.19;  -71.530;  -77.230;    0.000; 5.70000
 840.44;  -59.740;  -72.120;    0.000;12.38000
 840.69;  -62.380;  -81.760;    0.000;19.38000
 840.94;  -62.720;  -66.470;    0.000; 3.75000
 841.19;  -57.640;  -64.420;    0.000; 6.78000
 841.44;  -65.270;  -68.610;    0.000; 3.34000
 841.69;  -58.470;  -64.030;    0.000; 5.56000
 841.94;  -71.750;  -75.480;    0.000; 3.73000
 842.19;  -71.320;  -83.640;    0.000;12.32000
 842.44;  -66.530;  -85.160;    0.000;18.63000
 842.69;  -65.340;  -77.660;    0.000;12.32001
 842.94;  -69.630;  -78.190;    0.000; 8.56001
 843.19;  -70.980;  -78.290;    0.000; 7.31000
 843.44;  -65.020;  -75.980;    0.000;10.96001
 843.69;  -78.240;  -86.680;    0.000; 8.44000
 843.94;  -32.560;  -39.320;    0.000; 6.76000
 844.19;  -72.750;  -86.460;    0.000;13.71000
 844.44;  -60.040;  -55.430;    0.000;-4.61000
 844.69;  -67.780;  -79.810;    0.000;12.03000
 844.95;  -63.400;  -73.690;    0.000;10.29000
 845.20;  -78.930;  -89.580;    0.000;10.65000
 845.45;  -53.160;  -62.840;    0.000; 9.68000
 845.70;  -68.910;  -79.910;    0.000;11.00000
 845.95;  -68.580;  -67.470;    0.000;-1.11000
 846.20;  -71.070;  -81.520;    0.000;10.45000
 846.45;  -76.640;  -76.240;    0.000;-0.40000
 846.70;  -65.120;  -83.210;    0.000;18.09000
 846.95;  -71.960;  -72.270;    0.000; 0.31000
 847.20;  -72.710;  -81.890;    0.000; 9.18000
 847.44;  -55.140;  -55.120;    0.000;-0.02000
 847.69;  -75.010;  -84.720;    0.000; 9.71000
 847.94;  -65.410;  -67.830;    0.000; 2.42000
 848.19;  -69.450;  -79.830;    0.000;10.38000
 848.44;  -61.540;  -67.870;    0.000; 6.33000
 848.69;  -72.590;  -78.940;    0.000; 6.35001
 848.94;  -64.150;  -68.220;    0.000; 4.07000
 849.19;  -74.130;  -80.140;    0.000; 6.01000
 849.44;  -67.070;  -72.650;    0.000; 5.58000
 849.69;  -70.810;  -71.590;    0.000; 0.78000
 849.94;  -74.390;  -76.930;    0.000; 2.54000
 850.19;  -59.600;  -73.360;    0.000;13.76000
 850.44;  -61.080;  -66.290;    0.000; 5.21000
 850.69;  -72.030;  -82.280;    0.000;10.25000
 850.94;  -74.790;  -74.510;    0.000;-0.28000
 851.19;  -74.750;  -79.970;    0.000; 5.22000
 851.44;  -69.620;  -74.230;    0.000; 4.61000
 851.69;  -74.870;  -88.970;    0.000;14.10000
 851.94;  -68.640;  -72.250;    0.000; 3.61000
 852.19;  -73.620;  -76.110;    0.000; 2.49000
 852.44;  -66.080;  -71.950;    0.000; 5.87000
 852.68;  -79.430;  -80.960;    0.000; 1.53000
 852.93;  -62.910;  -68.910;    0.000; 6.00000
 853.18;  -64.230;  -81.380;    0.000;17.14999
 853.43;  -73.730;  -78.500;    0.000; 4.77000
 853.68;  -70.670;  -81.760;    0.000;11.09000
 853.93;  -67.080;  -64.570;    0.000;-2.51000
 854.18;  -58.640;  -68.640;    0.000;10.00000
 854.43;  -63.350;  -71.570;    0.000; 8.22000
 854.68;  -71.210;  -81.760;    0.000;10.55000
 854.93;  -60.870;  -62.170;    0.000; 1.30000
 855.18;  -64.180;  -77.640;    0.000;13.46000
 855.42;  -67.490;  -66.050;    0.000;-1.43999
 855.67;  -66.050;  -78.320;    0.000;12.27000
 855.92;  -76.360;  -82.080;    0.000; 5.72000
 856.17;  -70.980;  -75.620;    0.000; 4.64000
 856.42;  -80.860;  -75.370;    0.000;-5.49000
 856.67;  -73.470;  -83.310;    0.000; 9.84000
 856.92;  -73.540;  -76.990;    0.000; 3.45000
 857.17;  -78.700;  -85.010;    0.000; 6.31001
 857.41;  -67.660;  -78.320;    0.000;10.66000
 857.66;  -72.460;  -73.210;    0.000; 0.75000
 857.91;  -64.680;  -66.900;    0.000; 2.22000
 858.16;  -69.810;  -79.660;    0.000; 9.85001
 858.41;  -72.040;  -73.780;    0.000; 1.74000
 858.66;  -73.050;  -75.720;    0.000; 2.67000
 858.91;  -59.850;  -68.300;    0.000; 8.45000
 859.15;  -69.660;  -87.480;    0.000;17.82000
 859.40;  -57.900;  -62.810;    0.000; 4.91000
 859.65;  -85.330;  -77.170;    0.000;-8.16000
 859.90;  -75.390;  -73.530;    0.000;-1.86000
 860.15;  -72.290;  -77.320;    0.000; 5.03000
 860.40;  -64.820;  -61.790;    0.000;-3.03000
 860.64;  -63.690;  -74.900;    0.000;11.21000
 860.89;  -71.850;  -74.710;    0.000; 2.86000
 861.14;  -69.800;  -82.280;    0.000;12.48000
 861.39;  -60.750;  -66.620;    0.000; 5.87000
 861.64;  -76.830;  -83.440;    0.000; 6.61000
 861.88;  -63.400;  -63.350;    0.000;-0.05000
 862.13;  -70.030;  -79.620;    0.000; 9.59000
 862.38;  -70.670;  -72.850;    0.000; 2.18000
 862.63;  -74.440;  -90.030;    0.000;15.59000
 862.88;  -68.020;  -78.150;    0.000;10.13000
 863.12;  -65.260;  -78.270;    0.000;13.00999
 863.37;  -75.570;  -70.270;    0.000;-5.30000
 863.62;  -74.970;  -80.030;    0.000; 5.06000
 863.87;  -80.310;  -77.710;    0.000;-2.60000
 864.12;  -67.850;  -81.170;    0.000;13.32000
 864.36;  -68.510;  -74.740;    0.000; 6.23000
 864.61;  -70.360;  -80.430;    0.000;10.07000
 864.86;  -75.260;  -75.370;    0.000; 0.11000
 865.11;  -70.220;  -80.000;    0.000; 9.78000
 865.35;  -65.180;  -69.330;    0.000; 4.15000
 865.60;  -73.630;  -80.180;    0.000; 6.55000
 865.85;  -66.260;  -69.460;    0.000; 3.20000
 866.10;  -79.700;  -78.520;    0.000;-1.18000
 866.34;  -58.650;  -70.970;    0.000;12.32000
 866.59;  -62.060;  -72.940;    0.000;10.88000
 866.84;  -68.950;  -80.580;    0.000;11.63000
 867.09;  -75.120;  -73.660;    0.000;-1.46000
 867.33;  -77.190;  -80.890;    0.000; 3.70000
 867.58;  -83.060;  -79.090;    0.000;-3.97000
 867.83;  -77.350;  -76.030;    0.000;-1.32000
 868.08;  -61.600;  -75.930;    0.000;14.33000
 868.32;  -70.660;  -77.890;    0.000; 7.23000
 868.57;  -80.890;  -80.570;    0.000;-0.32000
 868.82;  -70.100;  -70.280;    0.000; 0.18000
 869.07;  -79.810;  -88.570;    0.000; 8.76000
 869.31;  -68.980;  -71.860;    0.000; 2.88000
 869.56;  -76.460;  -85.510;    0.000; 9.05000
 869.81;  -69.290;  -69.110;    0.000;-0.18000
 870.05;  -78.470;  -88.690;    0.000;10.22000
 870.30;  -66.100;  -71.000;    0.000; 4.90000
 870.55;  -68.890;  -73.990;    0.000; 5.10000
 870.80;  -62.130;  -67.800;    0.000; 5.67000
 871.04;  -64.870;  -74.740;    0.000; 9.87000
 871.29;  -71.610;  -71.980;    0.000; 0.37000
 871.54;  -64.960;  -81.420;    0.000;16.46000
 871.78;  -75.670;  -80.770;    0.000; 5.10000
 872.03;  -74.000;  -80.330;    0.000; 6.33000
 872.28;  -68.360;  -69.600;    0.000; 1.24000
 872.52;  -66.410;  -82.020;    0.000;15.60999
 872.77;  -75.260;  -71.450;    0.000;-3.81001
 873.02;  -79.410;  -84.180;    0.000; 4.77000
 873.26;  -74.480;  -76.170;    0.000; 1.68999
 873.51;  -65.490;  -72.470;    0.000; 6.98000
 873.76;  -64.610;  -73.320;    0.000; 8.71000
 874.00;  -62.540;  -73.990;    0.000;11.45000
 874.25;  -73.090;  -81.590;    0.000; 8.50000
 874.50;  -74.750;  -83.150;    0.000; 8.40000
 874.74;  -72.540;  -73.370;    0.000; 0.83000
 874.99;  -80.060;  -84.660;    0.000; 4.60001
 875.24;  -55.310;  -56.740;    0.000; 1.43000
 875.48;  -72.230;  -83.860;    0.000;11.63000
 875.73;  -70.810;  -76.130;    0.000; 5.32000
 875.98;  -71.060;  -87.110;    0.000;16.05000
 876.22;  -69.950;  -67.050;    0.000;-2.89999
 876.47;  -67.150;  -73.650;    0.000; 6.50000
 876.71;  -68.350;  -72.930;    0.000; 4.58000
 876.96;  -60.990;  -71.230;    0.000;10.24000
 877.21;  -71.350;  -72.970;    0.000; 1.62000
 877.45;  -75.290;  -90.180;    0.000;14.89000
 877.70;  -65.210;  -75.560;    0.000;10.35000
 877.95;  -64.560;  -77.820;    0.000;13.26000
 878.19;  -50.530;  -61.360;    0.000;10.83000
 878.44;  -73.590;  -81.190;    0.000; 7.60001
 878.68;  -46.080;  -57.170;    0.000;11.09000
 878.93;  -57.890;  -78.570;    0.000;20.68000
 879.18;  -63.230;  -62.160;    0.000;-1.07000
 879.42;  -62.040;  -79.490;    0.000;17.45000
 879.67;  -70.630;  -77.840;    0.000; 7.21000
 879.91;  -72.080;  -69.200;    0.000;-2.88000
 880.16;  -59.290;  -68.380;    0.000; 9.09000
 880.40;  -67.010;  -76.600;    0.000; 9.59000
 880.65;  -66.270;  -68.110;    0.000; 1.84000
 880.90;  -55.390;  -70.920;    0.000;15.53000
 881.14;  -66.260;  -63.690;    0.000;-2.57000
 881.39;  -67.810;  -79.520;    0.000;11.71000
 881.63;  -72.210;  -68.090;    0.000;-4.12000
 881.88;  -62.600;  -73.090;    0.000;10.49000
 882.12;  -61.560;  -68.080;    0.000; 6.52000
 882.37;  -66.920;  -77.030;    0.000;10.11000
 882.62;  -73.810;  -77.360;    0.000; 3.55000
 882.86;  -69.720;  -78.920;    0.000; 9.20000
 883.11;  -62.010;  -70.390;    0.000; 8.38000
 883.35;  -61.610;  -74.500;    0.000;12.89000
 883.60;  -64.550;  -66.560;    0.000; 2.00999
 883.84;  -65.660;  -73.180;    0.000; 7.52000
 884.09;  -61.190;  -70.450;    0.000; 9.26000
 884.33;  -69.420;  -77.520;    0.000; 8.10000
 884.58;  -62.010;  -68.190;    0.000; 6.18000
 884.82;  -70.180;  -79.030;    0.000; 8.85000
 885.07;  -67.850;  -71.510;    0.000; 3.66000
 885.31;  -61.290;  -74.710;    0.000;13.42000
 885.56;  -64.400;  -64.690;    0.000; 0.29000
 885.80;  -62.940;  -83.130;    0.000;20.19000
 886.05;  -66.740;  -80.190;    0.000;13.45000
 886.29;  -58.080;  -74.270;    0.000;16.18999
 886.54;  -69.160;  -72.290;    0.000; 3.13000
 886.78;  -63.300;  -72.100;    0.000; 8.80000
 887.03;  -61.290;  -62.750;    0.000; 1.46000
 887.27;  -54.280;  -62.270;    0.000; 7.99000
 887.52;  -66.940;  -68.600;    0.000; 1.66000
 887.76;  -60.650;  -70.110;    0.000; 9.46000
 888.01;  -60.100;  -72.830;    0.000;12.73000
 888.25;  -68.840;  -76.670;    0.000; 7.83000
 888.50;  -58.160;  -65.300;    0.000; 7.14000
 888.74;  -56.580;  -73.030;    0.000;16.45000
 888.99;  -64.960;  -68.560;    0.000; 3.60000
 889.23;  -68.490;  -74.740;    0.000; 6.25000
 889.48;  -67.210;  -67.330;    0.000; 0.12000
 889.72;  -59.530;  -65.430;    0.000; 5.90000
 889.97;  -57.440;  -65.610;    0.000; 8.17000
 890.21;  -64.370;  -69.450;    0.000; 5.07999
 890.46;  -52.320;  -61.290;    0.000; 8.97000
 890.70;  -61.520;  -79.650;    0.000;18.13000
 890.94;  -56.170;  -61.400;    0.000; 5.23000
 891.19;  -56.270;  -69.150;    0.000;12.88000
 891.43;  -62.060;  -57.360;    0.000;-4.70000
 891.68;  -53.640;  -55.550;    0.000; 1.91000
 891.92;  -51.890;  -60.700;    0.000; 8.81000
 892.17;  -62.340;  -66.860;    0.000; 4.52000
 892.41;  -51.460;  -59.720;    0.000; 8.26000
 892.66;  -62.740;  -76.190;    0.000;13.45000
 892.90;  -33.770;  -40.820;    0.000; 7.05000
 893.14;  -55.980;  -75.130;    0.000;19.15000
 893.39;  -56.250;  -60.740;    0.000; 4.49000
 893.63;  -62.280;  -77.900;    0.000;15.62000
 893.88;  -62.460;  -69.930;    0.000; 7.47000
 894.12;  -63.900;  -70.570;    0.000; 6.67000
 894.36;  -52.270;  -57.010;    0.000; 4.74000
 894.61;  -57.130;  -65.570;    0.000; 8.44000
 894.85;  -51.860;  -57.860;    0.000; 6.00000
 895.10;  -50.550;  -63.260;    0.000;12.71000
 895.34;  -58.760;  -66.190;    0.000; 7.43000
 895.58;  -49.980;  -69.510;    0.000;19.53000
 895.83;  -51.420;  -58.440;    0.000; 7.02000
 896.07;  -54.940;  -67.190;    0.000;12.25000
 896.32;  -52.870;  -56.170;    0.000; 3.30000
 896.56;  -56.910;  -71.090;    0.000;14.18000
 896.80;  -49.770;  -60.750;    0.000;10.98000
 897.05;  -59.650;  -71.180;    0.000;11.53000
 897.29;  -51.910;  -50.870;    0.000;-1.04000
 897.53;  -51.840;  -67.890;    0.000;16.05000
 897.78;  -51.910;  -59.750;    0.000; 7.84000
 898.02;  -48.530;  -54.440;    0.000; 5.91000
 898.26;  -54.820;  -60.460;    0.000; 5.64000
 898.51;  -55.440;  -69.080;    0.000;13.64000
 898.75;  -46.540;  -54.110;    0.000; 7.57000
 898.99;  -48.350;  -62.590;    0.000;14.24000
 899.24;  -47.130;  -50.380;    0.000; 3.25000
 899.48;  -43.650;  -65.060;    0.000;21.41000
 899.73;  -42.360;  -51.990;    0.000; 9.63000
 899.97;  -40.050;  -46.710;    0.000; 6.66000
 900.21;  -41.270;  -46.190;    0.000; 4.92000
 900.46;  -35.800;  -42.660;    0.000; 6.86000
 900.70;  -31.740;  -32.140;    0.000; 0.40000
 900.94;  -37.560;  -52.880;    0.000;15.32000
 901.18;  -35.480;  -32.620;    0.000;-2.86000
 901.43;  -36.560;  -49.310;    0.000;12.75000
 901.67;  -30.320;  -40.040;    0.000; 9.72000
 901.91;  -18.850;  -38.500;    0.000;19.65000
 902.16;  -27.920;  -26.680;    0.000;-1.24000
 902.40;  -10.960;  -25.580;    0.000;14.62000
 902.64;  -16.670;  -27.800;    0.000;11.13000
 902.89;  -32.410;  -30.210;    0.000;-2.20000
 903.13;  -12.510;  -14.870;    0.000; 2.36000
 903.37;   -4.340;  -27.280;    0.000;22.94000
 903.61;    7.790;    0.170;    0.000; 7.62000
 903.86;   -3.350;  -13.960;    0.000;10.61000
 904.10;    9.920;    7.550;    0.000; 2.37000
 904.34;   18.510;    7.360;    0.000;11.15000
 904.59;   28.680;   19.820;    0.000; 8.86000
 904.83;   35.710;   28.120;    0.000; 7.59000
 905.07;   49.120;   43.760;    0.000; 5.36000
 905.31;   58.120;   52.600;    0.000; 5.52000
 905.56;   81.230;   74.450;    0.000; 6.78001
 905.80;   94.960;   83.880;    0.000;11.08000

