
Integration time [ms]:  10.000
Averaging Nr. [scans]: 100
Smoothing Nr. [pixels]: 0
Data measured with spectrometer [name]: 1307078U2
Wave   ;Sample   ;Dark     ;Reference;Scope Corrected for Dark
[nm]   ;[counts] ;[counts] ;[counts] 

 351.07;   18.980;    1.990;    0.000;16.99000
 351.37;   17.390;    2.840;    0.000;14.55000
 351.66;   15.560;    9.940;    0.000; 5.62000
 351.95;   10.590;   -4.530;    0.000;15.12000
 352.24;    1.040;  -15.890;    0.000;16.93000
 352.54;    5.940;  -10.120;    0.000;16.06000
 352.83;   20.030;    0.130;    0.000;19.90000
 353.12;    6.700;    2.830;    0.000; 3.87000
 353.42;   -0.370;  -15.300;    0.000;14.93000
 353.71;   -6.990;  -10.820;    0.000; 3.83000
 354.00;   16.870;    4.470;    0.000;12.40000
 354.30;    4.850;   -9.470;    0.000;14.32000
 354.59;   -5.220;   -6.260;    0.000; 1.04000
 354.88;    0.020;   -7.830;    0.000; 7.85000
 355.17;   -1.660;  -11.980;    0.000;10.32000
 355.47;   -1.460;  -12.230;    0.000;10.77000
 355.76;    7.860;   -0.430;    0.000; 8.29000
 356.05;    9.810;   -0.120;    0.000; 9.93000
 356.35;    2.320;  -10.970;    0.000;13.29000
 356.64;   22.940;    4.260;    0.000;18.68000
 356.93;   10.200;   -5.560;    0.000;15.76000
 357.22;   25.030;   11.340;    0.000;13.69000
 357.52;    3.040;   -5.230;    0.000; 8.27000
 357.81;   16.630;    3.000;    0.000;13.63000
 358.10;    2.260;  -11.750;    0.000;14.01000
 358.39;   19.190;    3.750;    0.000;15.44000
 358.69;   -2.760;   -2.590;    0.000;-0.17000
 358.98;    3.720;  -10.110;    0.000;13.83000
 359.27;   10.730;   -5.380;    0.000;16.11000
 359.57;   11.740;    5.370;    0.000; 6.37000
 359.86;    2.320;  -11.540;    0.000;13.86000
 360.15;   22.080;    2.780;    0.000;19.30000
 360.44;    8.240;  -14.280;    0.000;22.52000
 360.74;   11.660;   -1.840;    0.000;13.50000
 361.03;    2.940;   -8.680;    0.000;11.62000
 361.32;    6.210;  -10.790;    0.000;17.00000
 361.61;    1.660;  -11.050;    0.000;12.71000
 361.91;    8.340;    0.980;    0.000; 7.36000
 362.20;   -2.810;  -11.360;    0.000; 8.55000
 362.49;   13.770;   -6.030;    0.000;19.80000
 362.78;   13.610;   -1.640;    0.000;15.25000
 363.08;    4.640;   -9.640;    0.000;14.28000
 363.37;   -3.600;  -12.520;    0.000; 8.92000
 363.66;   16.230;    4.960;    0.000;11.27000
 363.95;   -8.530;  -13.210;    0.000; 4.68000
 364.24;   10.870;   -3.870;    0.000;14.74000
 364.54;   -2.200;   -4.510;    0.000; 2.31000
 364.83;    2.590;  -11.190;    0.000;13.78000
 365.12;    0.040;  -14.530;    0.000;14.57000
 365.41;   15.620;    2.210;    0.000;13.41000
 365.71;    4.570;  -12.970;    0.000;17.54000
 366.00;   -7.240;  -13.330;    0.000; 6.09000
 366.29;   -2.310;  -12.070;    0.000; 9.76000
 366.58;    9.210;   -8.210;    0.000;17.42000
 366.87;   10.590;   -4.330;    0.000;14.92000
 367.17;   15.320;   10.550;    0.000; 4.77000
 367.46;   -1.290;  -15.680;    0.000;14.39000
 367.75;    4.370;   -9.440;    0.000;13.81000
 368.04;    3.110;  -14.310;    0.000;17.42000
 368.34;    7.980;   -3.350;    0.000;11.33000
 368.63;    7.550;   -5.870;    0.000;13.42000
 368.92;   18.650;    4.770;    0.000;13.88000
 369.21;   11.140;   -4.180;    0.000;15.32000
 369.50;   21.590;    6.490;    0.000;15.10000
 369.80;    4.760;   -9.770;    0.000;14.53000
 370.09;    5.700;   -3.650;    0.000; 9.35000
 370.38;    4.720;  -11.370;    0.000;16.09000
 370.67;    4.570;  -10.340;    0.000;14.91000
 370.96;   -2.260;  -10.990;    0.000; 8.73000
 371.26;    6.820;  -10.670;    0.000;17.49000
 371.55;   -3.180;  -18.820;    0.000;15.64000
 371.84;    5.240;   -3.730;    0.000; 8.97000
 372.13;   -6.610;   -8.840;    0.000; 2.23000
 372.42;   12.660;    1.670;    0.000;10.99000
 372.71;   16.300;   -5.020;    0.000;21.32000
 373.01;    7.880;   -9.790;    0.000;17.67000
 373.30;    0.000;  -18.500;    0.000;18.50000
 373.59;   13.990;    1.490;    0.000;12.50000
 373.88;    9.890;   -2.930;    0.000;12.82000
 374.17;   11.180;   -3.020;    0.000;14.20000
 374.46;    2.080;  -12.260;    0.000;14.34000
 374.76;   25.750;    9.200;    0.000;16.55000
 375.05;   28.870;    6.350;    0.000;22.52000
 375.34;    4.740;   -7.790;    0.000;12.53000
 375.63;    4.070;  -11.110;    0.000;15.18000
 375.92;   13.940;   -5.550;    0.000;19.49000
 376.21;   -9.400;  -15.000;    0.000; 5.60000
 376.51;   -5.460;  -10.860;    0.000; 5.40000
 376.80;   14.120;   -1.600;    0.000;15.72000
 377.09;    7.570;  -15.780;    0.000;23.35000
 377.38;    7.050;   -5.020;    0.000;12.07000
 377.67;   10.540;   -1.550;    0.000;12.09000
 377.96;    3.620;   -8.760;    0.000;12.38000
 378.25;    6.200;   -7.470;    0.000;13.67000
 378.55;    6.340;  -17.830;    0.000;24.17000
 378.84;   -4.180;  -10.140;    0.000; 5.96000
 379.13;    8.690;   -3.610;    0.000;12.30000
 379.42;   10.550;  -13.640;    0.000;24.19000
 379.71;    4.330;   -9.550;    0.000;13.88000
 380.00;   16.910;    4.600;    0.000;12.31000
 380.29;   -3.420;  -20.900;    0.000;17.48000
 380.59;   -1.320;  -13.550;    0.000;12.23000
 380.88;   -1.800;  -11.250;    0.000; 9.45000
 381.17;   -5.220;  -14.120;    0.000; 8.90000
 381.46;    4.640;   -1.490;    0.000; 6.13000
 381.75;    6.140;   -6.720;    0.000;12.86000
 382.04;   -0.950;   -6.950;    0.000; 6.00000
 382.33;   10.590;   -8.710;    0.000;19.30000
 382.62;   -0.330;  -17.870;    0.000;17.54000
 382.91;   11.310;   -4.340;    0.000;15.65000
 383.21;    0.670;  -15.710;    0.000;16.38000
 383.50;    0.170;  -13.910;    0.000;14.08000
 383.79;   11.200;   -7.940;    0.000;19.14000
 384.08;   -2.000;  -17.080;    0.000;15.08000
 384.37;  -11.880;   -8.960;    0.000;-2.92000
 384.66;    1.990;   -5.480;    0.000; 7.47000
 384.95;   -8.110;  -18.320;    0.000;10.21000
 385.24;   -2.260;  -10.570;    0.000; 8.31000
 385.53;   -3.040;  -10.020;    0.000; 6.98000
 385.83;    0.650;  -19.960;    0.000;20.61000
 386.12;    6.600;   -7.370;    0.000;13.97000
 386.41;    1.220;  -15.640;    0.000;16.86000
 386.70;   -5.220;  -22.760;    0.000;17.54000
 386.99;    5.250;   -5.870;    0.000;11.12000
 387.28;   13.540;   -9.050;    0.000;22.59000
 387.57;    8.460;   -8.090;    0.000;16.55000
 387.86;    0.750;  -13.520;    0.000;14.27000
 388.15;   -6.000;  -11.820;    0.000; 5.82000
 388.44;   -6.500;  -13.510;    0.000; 7.01000
 388.73;   -2.010;   -9.650;    0.000; 7.64000
 389.02;    3.240;  -12.670;    0.000;15.91000
 389.31;   -3.820;  -17.780;    0.000;13.96000
 389.61;   -0.190;  -12.580;    0.000;12.39000
 389.90;   -1.280;   -1.550;    0.000; 0.27000
 390.19;   -4.100;  -17.080;    0.000;12.98000
 390.48;   13.270;   -7.260;    0.000;20.53000
 390.77;    3.580;  -16.370;    0.000;19.95000
 391.06;    3.210;  -14.890;    0.000;18.10000
 391.35;   -3.920;  -20.660;    0.000;16.74000
 391.64;   15.940;    3.120;    0.000;12.82000
 391.93;   -8.260;  -27.680;    0.000;19.42000
 392.22;   -0.900;   -4.250;    0.000; 3.35000
 392.51;   12.550;   -0.480;    0.000;13.03000
 392.80;    6.620;    0.130;    0.000; 6.49000
 393.09;    0.900;  -17.160;    0.000;18.06000
 393.38;    7.250;   -5.590;    0.000;12.84000
 393.67;    4.610;  -11.850;    0.000;16.46000
 393.96;   11.080;   -3.580;    0.000;14.66000
 394.25;    7.210;   -5.270;    0.000;12.48000
 394.54;    4.100;  -10.940;    0.000;15.04000
 394.83;   -6.830;  -26.700;    0.000;19.87000
 395.13;    5.740;  -17.240;    0.000;22.98000
 395.42;    1.670;  -12.590;    0.000;14.26000
 395.71;    9.840;   -4.120;    0.000;13.96000
 396.00;    4.850;   -6.090;    0.000;10.94000
 396.29;    1.920;   -2.370;    0.000; 4.29000
 396.58;   -9.630;  -14.700;    0.000; 5.07000
 396.87;    3.280;  -12.070;    0.000;15.35000
 397.16;   -0.970;  -17.540;    0.000;16.57000
 397.45;    5.470;   -9.060;    0.000;14.53000
 397.74;   -5.340;  -14.860;    0.000; 9.52000
 398.03;    6.600;  -11.180;    0.000;17.78000
 398.32;   -5.480;  -21.950;    0.000;16.47000
 398.61;    5.000;  -13.140;    0.000;18.14000
 398.90;    4.640;  -10.560;    0.000;15.20000
 399.19;    6.140;   -7.320;    0.000;13.46000
 399.48;   -1.330;  -15.870;    0.000;14.54000
 399.77;    8.900;  -12.280;    0.000;21.18000
 400.06;   11.360;  -14.080;    0.000;25.44000
 400.35;    5.160;  -10.410;    0.000;15.57000
 400.64;   -8.490;  -17.960;    0.000; 9.47000
 400.93;   23.810;   -6.800;    0.000;30.61000
 401.22;   -4.660;  -17.840;    0.000;13.18000
 401.51;    9.930;  -13.020;    0.000;22.95000
 401.80;    1.320;  -16.350;    0.000;17.67000
 402.09;   -3.310;  -14.710;    0.000;11.40000
 402.38;   -5.880;  -16.230;    0.000;10.35000
 402.67;   -3.450;   -7.210;    0.000; 3.76000
 402.96;    6.280;   -7.580;    0.000;13.86000
 403.25;   24.050;    5.550;    0.000;18.50000
 403.54;    9.360;   -7.190;    0.000;16.55000
 403.83;    0.980;  -11.910;    0.000;12.89000
 404.12;   -0.070;  -13.410;    0.000;13.34000
 404.41;    4.750;   -0.210;    0.000; 4.96000
 404.70;    0.340;  -17.410;    0.000;17.75000
 404.98;    4.720;  -14.010;    0.000;18.73000
 405.27;    3.890;  -14.400;    0.000;18.29000
 405.56;   16.080;    4.220;    0.000;11.86000
 405.85;  -10.520;  -15.830;    0.000; 5.31000
 406.14;    1.080;  -13.630;    0.000;14.71000
 406.43;   -2.530;  -10.620;    0.000; 8.09000
 406.72;   11.350;  -12.290;    0.000;23.64000
 407.01;   -7.560;  -21.100;    0.000;13.54000
 407.30;   -6.290;  -20.190;    0.000;13.90000
 407.59;   -7.090;  -19.810;    0.000;12.72000
 407.88;    8.480;   -8.870;    0.000;17.35000
 408.17;    2.480;  -17.110;    0.000;19.59000
 408.46;   12.410;   -4.060;    0.000;16.47000
 408.75;   11.060;   -4.650;    0.000;15.71000
 409.04;    0.610;  -19.590;    0.000;20.20000
 409.33;    1.260;  -19.630;    0.000;20.89000
 409.62;   11.230;   -2.110;    0.000;13.34000
 409.91;   -9.540;  -26.460;    0.000;16.92000
 410.20;    1.180;   -9.140;    0.000;10.32000
 410.48;    5.550;   -7.780;    0.000;13.33000
 410.77;    1.450;  -13.310;    0.000;14.76000
 411.06;    5.610;  -11.580;    0.000;17.19000
 411.35;   12.970;    5.610;    0.000; 7.36000
 411.64;    5.730;   -9.610;    0.000;15.34000
 411.93;    3.860;  -10.440;    0.000;14.30000
 412.22;   -0.730;  -19.600;    0.000;18.87000
 412.51;   -6.670;  -16.220;    0.000; 9.55000
 412.80;    3.720;  -15.400;    0.000;19.12000
 413.09;    3.330;  -10.870;    0.000;14.20000
 413.38;    5.370;  -13.750;    0.000;19.12000
 413.67;    0.960;  -21.080;    0.000;22.04000
 413.96;  -12.250;  -31.980;    0.000;19.73000
 414.24;    1.680;  -19.800;    0.000;21.48000
 414.53;    4.880;  -17.200;    0.000;22.08000
 414.82;    5.420;  -10.120;    0.000;15.54000
 415.11;    8.990;   -0.960;    0.000; 9.95000
 415.40;    9.550;   -8.850;    0.000;18.40000
 415.69;   -1.320;  -15.490;    0.000;14.17000
 415.98;    1.550;  -23.990;    0.000;25.54000
 416.27;  -11.700;  -24.270;    0.000;12.57000
 416.56;   13.920;   -3.280;    0.000;17.20000
 416.84;   -7.310;  -19.790;    0.000;12.48000
 417.13;   -4.490;  -14.540;    0.000;10.05000
 417.42;    7.560;   -8.280;    0.000;15.84000
 417.71;   10.720;   -8.120;    0.000;18.84000
 418.00;    4.330;  -16.780;    0.000;21.11000
 418.29;   13.970;   -4.550;    0.000;18.52000
 418.58;   -1.010;  -16.490;    0.000;15.48000
 418.87;    2.320;  -15.660;    0.000;17.98000
 419.15;   -2.810;  -18.900;    0.000;16.09000
 419.44;    4.700;  -18.980;    0.000;23.68000
 419.73;    2.750;  -11.850;    0.000;14.60000
 420.02;    6.620;   -7.110;    0.000;13.73000
 420.31;   -2.450;  -30.570;    0.000;28.12000
 420.60;    7.410;   -5.040;    0.000;12.45000
 420.89;    0.710;  -21.480;    0.000;22.19000
 421.18;    5.970;   -9.290;    0.000;15.26000
 421.46;    6.200;   -5.340;    0.000;11.54000
 421.75;    5.450;  -15.320;    0.000;20.77000
 422.04;   -6.150;  -21.410;    0.000;15.26000
 422.33;   17.700;    2.320;    0.000;15.38000
 422.62;    5.760;  -18.220;    0.000;23.98000
 422.91;    3.960;  -24.820;    0.000;28.78000
 423.19;   -3.310;  -28.920;    0.000;25.61000
 423.48;   19.490;    0.140;    0.000;19.35000
 423.77;    0.150;  -18.100;    0.000;18.25000
 424.06;    4.350;   -9.180;    0.000;13.53000
 424.35;   -6.870;  -16.940;    0.000;10.07000
 424.64;   13.890;   -2.420;    0.000;16.31000
 424.93;   -5.180;  -26.250;    0.000;21.07000
 425.21;    1.690;  -17.130;    0.000;18.82000
 425.50;    6.370;  -12.130;    0.000;18.50000
 425.79;    6.070;  -10.680;    0.000;16.75000
 426.08;    0.040;  -16.970;    0.000;17.01000
 426.37;   -0.630;   -9.660;    0.000; 9.03000
 426.65;   -4.440;  -22.930;    0.000;18.49000
 426.94;    1.840;  -22.840;    0.000;24.68000
 427.23;    4.240;  -15.010;    0.000;19.25000
 427.52;    1.720;  -11.990;    0.000;13.71000
 427.81;  -14.860;  -29.120;    0.000;14.26000
 428.10;   21.540;   -4.670;    0.000;26.21000
 428.38;  -13.190;  -27.520;    0.000;14.33000
 428.67;    6.660;   -2.590;    0.000; 9.25000
 428.96;  -19.400;  -31.540;    0.000;12.14000
 429.25;    4.430;  -14.100;    0.000;18.53000
 429.54;    1.640;  -13.980;    0.000;15.62000
 429.82;    9.570;   -9.990;    0.000;19.56000
 430.11;    4.920;  -17.100;    0.000;22.02000
 430.40;   12.320;  -12.650;    0.000;24.97000
 430.69;    1.530;  -13.860;    0.000;15.39000
 430.98;    6.720;  -21.990;    0.000;28.71000
 431.26;    6.760;   -8.510;    0.000;15.27000
 431.55;    7.040;   -6.460;    0.000;13.50000
 431.84;    1.670;  -21.790;    0.000;23.46000
 432.13;    6.930;  -13.900;    0.000;20.83000
 432.41;   -8.160;  -33.040;    0.000;24.88000
 432.70;    0.320;  -21.040;    0.000;21.36000
 432.99;   -1.900;  -16.870;    0.000;14.97000
 433.28;   -1.320;  -19.660;    0.000;18.34000
 433.57;   12.380;  -10.610;    0.000;22.99000
 433.85;    6.500;  -10.450;    0.000;16.95000
 434.14;   -3.910;  -24.160;    0.000;20.25000
 434.43;   15.500;    1.150;    0.000;14.35000
 434.72;    2.560;  -20.670;    0.000;23.23000
 435.00;   -9.960;  -23.620;    0.000;13.66000
 435.29;   -2.010;  -17.490;    0.000;15.48000
 435.58;    9.200;   -8.150;    0.000;17.35000
 435.87;   -2.330;  -25.230;    0.000;22.90000
 436.15;    2.670;  -22.240;    0.000;24.91000
 436.44;   -2.800;  -20.080;    0.000;17.28000
 436.73;    0.620;  -15.600;    0.000;16.22000
 437.02;   -0.130;  -19.490;    0.000;19.36000
 437.30;   12.440;   -4.440;    0.000;16.88000
 437.59;    2.610;  -17.640;    0.000;20.25000
 437.88;    5.850;   -8.810;    0.000;14.66000
 438.17;  -11.860;  -28.660;    0.000;16.80000
 438.45;   -3.090;  -19.800;    0.000;16.71000
 438.74;   -6.390;  -16.400;    0.000;10.01000
 439.03;   16.550;  -14.480;    0.000;31.03000
 439.32;   -4.580;  -25.370;    0.000;20.79000
 439.60;   -0.320;  -22.430;    0.000;22.11000
 439.89;    2.890;  -18.250;    0.000;21.14000
 440.18;   -0.640;  -20.970;    0.000;20.33000
 440.46;   -7.340;  -29.720;    0.000;22.38000
 440.75;   17.020;   -6.850;    0.000;23.87000
 441.04;   -6.190;  -28.000;    0.000;21.81000
 441.33;    2.750;  -17.230;    0.000;19.98000
 441.61;  -11.580;  -28.680;    0.000;17.10000
 441.90;   15.360;    0.830;    0.000;14.53000
 442.19;  -10.220;  -30.670;    0.000;20.45000
 442.47;    4.300;  -10.780;    0.000;15.08000
 442.76;   -2.310;  -22.750;    0.000;20.44000
 443.05;   10.790;  -21.380;    0.000;32.17000
 443.34;   -1.110;  -30.430;    0.000;29.32000
 443.62;    7.760;  -17.090;    0.000;24.85000
 443.91;  -11.900;  -22.620;    0.000;10.72000
 444.20;   14.520;    4.770;    0.000; 9.75000
 444.48;  -10.350;  -24.400;    0.000;14.05000
 444.77;   23.280;    9.730;    0.000;13.55000
 445.06;   -6.110;  -26.390;    0.000;20.28000
 445.34;    3.010;  -12.470;    0.000;15.48000
 445.63;   -8.460;  -25.530;    0.000;17.07000
 445.92;   27.930;    6.760;    0.000;21.17000
 446.21;   -2.630;  -22.450;    0.000;19.82000
 446.49;    7.900;  -14.610;    0.000;22.51000
 446.78;    4.650;  -11.330;    0.000;15.98000
 447.07;   -5.390;   -9.930;    0.000; 4.54000
 447.35;  -10.820;  -24.390;    0.000;13.57000
 447.64;    7.010;   -9.840;    0.000;16.85000
 447.93;   -3.650;  -24.630;    0.000;20.98000
 448.21;   -5.950;  -21.700;    0.000;15.75000
 448.50;   -5.120;  -23.560;    0.000;18.44000
 448.79;   -6.860;  -20.390;    0.000;13.53000
 449.07;    8.160;  -12.200;    0.000;20.36000
 449.36;    0.670;  -25.580;    0.000;26.25000
 449.65;   -8.740;  -25.970;    0.000;17.23000
 449.93;    1.990;   -9.050;    0.000;11.04000
 450.22;    2.520;  -21.560;    0.000;24.08000
 450.51;   -3.690;  -25.890;    0.000;22.20000
 450.79;   -0.640;  -27.730;    0.000;27.09000
 451.08;    6.120;  -16.520;    0.000;22.64000
 451.36;    2.120;  -14.260;    0.000;16.38000
 451.65;    7.100;  -14.880;    0.000;21.98000
 451.94;   -8.590;  -29.220;    0.000;20.63000
 452.22;   -5.960;  -25.260;    0.000;19.30000
 452.51;   -7.090;  -19.340;    0.000;12.25000
 452.80;    0.260;  -25.310;    0.000;25.57000
 453.08;  -10.070;  -24.790;    0.000;14.72000
 453.37;   10.020;   -7.670;    0.000;17.69000
 453.66;   -0.670;  -23.540;    0.000;22.87000
 453.94;   11.280;  -22.460;    0.000;33.74000
 454.23;   -4.050;  -32.840;    0.000;28.79000
 454.51;   12.390;  -13.500;    0.000;25.89000
 454.80;  -12.940;  -32.380;    0.000;19.44000
 455.09;    6.470;  -18.230;    0.000;24.70000
 455.37;   13.020;   -9.480;    0.000;22.50000
 455.66;   -0.670;  -17.710;    0.000;17.04000
 455.95;    2.130;   -9.720;    0.000;11.85000
 456.23;   17.870;  -12.820;    0.000;30.69000
 456.52;   -1.640;  -24.840;    0.000;23.20000
 456.80;  -11.610;  -27.870;    0.000;16.26000
 457.09;   -0.460;  -29.660;    0.000;29.20000
 457.38;   19.240;   -4.090;    0.000;23.33000
 457.66;    2.080;  -22.610;    0.000;24.69000
 457.95;   -7.200;  -23.380;    0.000;16.18000
 458.23;   -3.080;  -25.240;    0.000;22.16000
 458.52;   13.600;  -13.190;    0.000;26.79000
 458.81;   -8.640;  -23.660;    0.000;15.02000
 459.09;   -0.590;  -19.720;    0.000;19.13000
 459.38;   -9.520;  -30.970;    0.000;21.45000
 459.66;    3.170;  -24.540;    0.000;27.71000
 459.95;  -12.700;  -17.730;    0.000; 5.03000
 460.23;   10.630;  -19.520;    0.000;30.15000
 460.52;   -1.240;  -20.510;    0.000;19.27000
 460.81;   -7.240;  -27.310;    0.000;20.07000
 461.09;   -6.030;  -28.620;    0.000;22.59000
 461.38;    3.480;  -16.580;    0.000;20.06000
 461.66;   -8.040;  -30.120;    0.000;22.08000
 461.95;    5.450;  -21.580;    0.000;27.03000
 462.23;    6.330;  -15.290;    0.000;21.62000
 462.52;    2.130;  -33.350;    0.000;35.48000
 462.81;   -9.100;  -34.430;    0.000;25.33000
 463.09;    8.900;  -22.640;    0.000;31.54000
 463.38;  -13.300;  -34.400;    0.000;21.10000
 463.66;   -4.580;  -25.720;    0.000;21.14000
 463.95;   -1.900;  -23.300;    0.000;21.40000
 464.23;    4.200;  -13.770;    0.000;17.97000
 464.52;   -3.470;  -25.790;    0.000;22.32000
 464.80;   -3.220;  -22.270;    0.000;19.05000
 465.09;    4.330;  -15.500;    0.000;19.83000
 465.38;   -2.190;  -31.170;    0.000;28.98000
 465.66;   -2.650;  -34.180;    0.000;31.53000
 465.95;    6.790;  -13.170;    0.000;19.96000
 466.23;  -11.380;  -39.810;    0.000;28.43000
 466.52;  -10.570;  -26.140;    0.000;15.57000
 466.80;   19.740;   -9.390;    0.000;29.13000
 467.09;    2.680;  -22.750;    0.000;25.43000
 467.37;    1.930;  -18.880;    0.000;20.81000
 467.66;    8.820;  -16.140;    0.000;24.96000
 467.94;   -4.750;  -24.810;    0.000;20.06000
 468.23;    3.000;  -19.950;    0.000;22.95000
 468.51;    5.580;  -11.990;    0.000;17.57000
 468.80;   -9.070;  -24.660;    0.000;15.59000
 469.08;   -5.060;  -22.650;    0.000;17.59000
 469.37;   -1.450;  -15.420;    0.000;13.97000
 469.66;    3.560;  -25.130;    0.000;28.69000
 469.94;   -2.220;  -22.920;    0.000;20.70000
 470.23;   -1.910;  -19.480;    0.000;17.57000
 470.51;    4.140;  -21.700;    0.000;25.84000
 470.80;   12.860;  -14.170;    0.000;27.03000
 471.08;    2.020;  -24.980;    0.000;27.00000
 471.37;    2.600;  -22.870;    0.000;25.47000
 471.65;   11.940;  -11.550;    0.000;23.49000
 471.94;   -5.280;  -37.450;    0.000;32.17000
 472.22;   -9.960;  -30.200;    0.000;20.24000
 472.51;  -10.800;  -28.820;    0.000;18.02000
 472.79;    0.400;  -18.730;    0.000;19.13000
 473.08;   -4.160;  -26.180;    0.000;22.02000
 473.36;    8.020;  -10.910;    0.000;18.93000
 473.64;   -0.630;  -26.000;    0.000;25.37000
 473.93;    3.300;  -26.520;    0.000;29.82000
 474.21;   -2.520;  -32.440;    0.000;29.92000
 474.50;    4.010;  -22.240;    0.000;26.25000
 474.78;   11.710;   -6.350;    0.000;18.06000
 475.07;    1.000;  -21.020;    0.000;22.02000
 475.35;   -0.210;  -19.560;    0.000;19.35000
 475.64;   -2.050;  -26.260;    0.000;24.21000
 475.92;    1.940;  -28.450;    0.000;30.39000
 476.21;    9.020;  -26.200;    0.000;35.22000
 476.49;    3.990;  -22.820;    0.000;26.81000
 476.78;   -4.240;  -24.020;    0.000;19.78000
 477.06;   -1.810;  -26.290;    0.000;24.48000
 477.35;   14.610;  -24.950;    0.000;39.56000
 477.63;   -5.750;  -31.450;    0.000;25.70000
 477.91;    3.880;  -21.250;    0.000;25.13000
 478.20;    3.690;  -32.050;    0.000;35.74000
 478.48;    2.840;  -28.860;    0.000;31.70000
 478.77;   -1.410;  -26.670;    0.000;25.26000
 479.05;   -5.380;  -26.730;    0.000;21.35000
 479.34;    3.130;  -25.260;    0.000;28.39000
 479.62;    2.200;  -22.540;    0.000;24.74000
 479.91;   -2.760;  -25.850;    0.000;23.09000
 480.19;   27.440;   -6.410;    0.000;33.85000
 480.47;   -1.710;  -31.670;    0.000;29.96000
 480.76;   12.840;  -22.550;    0.000;35.39000
 481.04;    5.640;  -28.450;    0.000;34.09000
 481.33;   21.700;   -5.690;    0.000;27.39000
 481.61;   24.630;  -29.120;    0.000;53.75000
 481.90;   13.180;  -23.420;    0.000;36.60000
 482.18;   10.730;  -28.430;    0.000;39.16000
 482.46;   27.070;  -20.570;    0.000;47.64000
 482.75;   22.050;  -23.240;    0.000;45.29000
 483.03;   29.900;  -26.580;    0.000;56.48000
 483.32;   26.840;  -28.070;    0.000;54.91000
 483.60;   38.540;  -23.380;    0.000;61.92000
 483.88;   28.460;  -40.750;    0.000;69.21000
 484.17;   46.410;  -20.730;    0.000;67.14000
 484.45;   52.910;  -27.840;    0.000;80.75000
 484.74;   57.590;  -23.640;    0.000;81.23000
 485.02;   70.400;  -24.600;    0.000;95.00000
 485.30;   73.310;  -23.730;    0.000;97.04000
 485.59;   74.200;  -23.620;    0.000;97.82000
 485.87;  106.590;  -12.160;    0.000;118.75000
 486.16;  104.510;  -24.400;    0.000;128.91000
 486.44;  114.670;  -25.040;    0.000;139.71000
 486.72;  115.080;  -33.010;    0.000;148.09000
 487.01;  136.040;  -30.210;    0.000;166.24999
 487.29;  152.790;  -22.520;    0.000;175.30999
 487.58;  178.290;  -14.390;    0.000;192.67999
 487.86;  183.760;  -24.810;    0.000;208.56999
 488.14;  195.400;  -31.580;    0.000;226.97999
 488.43;  206.740;  -32.780;    0.000;239.52000
 488.71;  237.640;  -28.340;    0.000;265.98000
 488.99;  259.680;  -24.200;    0.000;283.87999
 489.28;  280.870;  -21.500;    0.000;302.37000
 489.56;  304.480;  -34.720;    0.000;339.20001
 489.85;  324.770;  -32.510;    0.000;357.27999
 490.13;  355.930;  -28.490;    0.000;384.41999
 490.41;  384.890;  -18.750;    0.000;403.64001
 490.70;  425.640;  -31.500;    0.000;457.14001
 490.98;  447.270;  -28.680;    0.000;475.94999
 491.26;  484.160;  -29.990;    0.000;514.15000
 491.55;  536.880;  -30.740;    0.000;567.62000
 491.83;  569.320;  -18.200;    0.000;587.52001
 492.11;  604.590;  -17.410;    0.000;622.00003
 492.40;  629.970;  -23.950;    0.000;653.91997
 492.68;  691.930;  -15.510;    0.000;707.43999
 492.96;  740.620;  -28.490;    0.000;769.10999
 493.25;  793.470;  -23.660;    0.000;817.12997
 493.53;  846.570;  -34.580;    0.000;881.15001
 493.81;  896.150;  -31.170;    0.000;927.32002
 494.10;  943.590;  -24.100;    0.000;967.69003
 494.38; 1027.050;  -21.310;    0.000;1048.36005
 494.66; 1070.720;  -30.330;    0.000;1101.04997
 494.95; 1143.420;  -28.360;    0.000;1171.78004
 495.23; 1203.550;  -25.800;    0.000;1229.35005
 495.51; 1264.090;  -28.470;    0.000;1292.55997
 495.80; 1327.910;  -39.880;    0.000;1367.79004
 496.08; 1416.350;  -15.720;    0.000;1432.06998
 496.36; 1494.830;  -11.590;    0.000;1506.41996
 496.65; 1554.390;  -24.500;    0.000;1578.89001
 496.93; 1624.620;  -25.490;    0.000;1650.10999
 497.21; 1716.860;  -25.560;    0.000;1742.41998
 497.50; 1818.220;  -21.360;    0.000;1839.57997
 497.78; 1890.320;  -22.570;    0.000;1912.88995
 498.06; 1971.260;  -29.040;    0.000;2000.30001
 498.34; 2061.310;  -26.730;    0.000;2088.04006
 498.63; 2172.140;  -33.570;    0.000;2205.70989
 498.91; 2276.650;  -23.580;    0.000;2300.22990
 499.19; 2388.660;  -26.700;    0.000;2415.35991
 499.48; 2462.680;  -25.520;    0.000;2488.19993
 499.76; 2571.250;  -25.150;    0.000;2596.40000
 500.04; 2679.350;  -28.270;    0.000;2707.62010
 500.32; 2785.710;  -14.580;    0.000;2800.28996
 500.61; 2898.340;  -32.320;    0.000;2930.66009
 500.89; 3002.020;  -30.760;    0.000;3032.78002
 501.17; 3100.450;  -30.710;    0.000;3131.15995
 501.46; 3234.850;  -22.350;    0.000;3257.20010
 501.74; 3366.430;  -18.090;    0.000;3384.51993
 502.02; 3493.900;  -15.300;    0.000;3509.19990
 502.30; 3615.260;  -18.010;    0.000;3633.27001
 502.59; 3690.750;  -38.280;    0.000;3729.03000
 502.87; 3844.560;  -29.970;    0.000;3874.53006
 503.15; 3974.180;  -35.630;    0.000;4009.80993
 503.43; 4097.710;  -22.000;    0.000;4119.70996
 503.72; 4215.280;  -30.040;    0.000;4245.31979
 504.00; 4352.300;  -33.470;    0.000;4385.76981
 504.28; 4468.190;  -28.460;    0.000;4496.64994
 504.56; 4609.270;  -28.300;    0.000;4637.57002
 504.85; 4799.910;  -19.360;    0.000;4819.27016
 505.13; 4900.130;  -29.910;    0.000;4930.03988
 505.41; 5022.780;  -30.150;    0.000;5052.92978
 505.69; 5180.240;  -24.400;    0.000;5204.64023
 505.98; 5308.930;  -24.150;    0.000;5333.08018
 506.26; 5469.290;  -22.980;    0.000;5492.27004
 506.54; 5598.800;  -35.460;    0.000;5634.25980
 506.82; 5722.610;  -24.120;    0.000;5746.72986
 507.11; 5876.700;  -31.550;    0.000;5908.25019
 507.39; 6006.380;  -41.840;    0.000;6048.21988
 507.67; 6171.260;  -27.870;    0.000;6199.12977
 507.95; 6316.950;  -32.940;    0.000;6349.89019
 508.23; 6448.180;  -35.230;    0.000;6483.41018
 508.52; 6601.770;  -24.250;    0.000;6626.02002
 508.80; 6734.890;  -31.510;    0.000;6766.40014
 509.08; 6909.940;  -19.620;    0.000;6929.55994
 509.36; 7036.030;  -23.880;    0.000;7059.90978
 509.65; 7162.520;  -23.990;    0.000;7186.51002
 509.93; 7322.830;  -30.950;    0.000;7353.78008
 510.21; 7454.900;  -19.850;    0.000;7474.74990
 510.49; 7588.370;  -30.360;    0.000;7618.73012
 510.77; 7754.910;  -34.430;    0.000;7789.34016
 511.06; 7850.300;  -34.890;    0.000;7885.18980
 511.34; 8028.440;  -27.620;    0.000;8056.05994
 511.62; 8184.220;  -28.950;    0.000;8213.17022
 511.90; 8298.590;  -21.870;    0.000;8320.45984
 512.18; 8433.470;  -24.880;    0.000;8458.34973
 512.47; 8576.270;  -18.980;    0.000;8595.24953
 512.75; 8726.430;  -38.220;    0.000;8764.64969
 513.03; 8829.640;  -23.360;    0.000;8852.99965
 513.31; 9000.420;  -33.010;    0.000;9033.42992
 513.59; 9141.600;  -27.410;    0.000;9169.00961
 513.87; 9277.400;  -27.310;    0.000;9304.71039
 514.16; 9447.510;  -25.240;    0.000;9472.74977
 514.44; 9537.590;  -24.030;    0.000;9561.61984
 514.72; 9659.970;  -25.030;    0.000;9684.99973
 515.00; 9834.170;  -17.810;    0.000;9851.97992
 515.28; 9936.640;  -19.280;    0.000;9955.91965
 515.56;10046.310;  -27.990;    0.000;10074.29957
 515.85;10222.390;  -24.510;    0.000;10246.89965
 516.13;10336.460;  -20.170;    0.000;10356.62996
 516.41;10458.510;  -39.440;    0.000;10497.94976
 516.69;10608.700;  -26.690;    0.000;10635.39020
 516.97;10729.640;  -20.650;    0.000;10750.28965
 517.25;10847.010;  -27.620;    0.000;10874.62977
 517.54;10951.710;  -14.870;    0.000;10966.57996
 517.82;11126.780;  -25.560;    0.000;11152.34027
 518.10;11221.970;  -12.750;    0.000;11234.71973
 518.38;11340.180;  -29.460;    0.000;11369.63969
 518.66;11462.050;  -13.080;    0.000;11475.12980
 518.94;11592.590;  -33.270;    0.000;11625.85984
 519.22;11700.910;  -12.810;    0.000;11713.72016
 519.51;11808.600;  -31.490;    0.000;11840.08961
 519.79;11919.590;  -30.480;    0.000;11950.06984
 520.07;12039.870;  -26.870;    0.000;12066.74012
 520.35;12164.990;  -26.720;    0.000;12191.71023
 520.63;12254.920;  -23.060;    0.000;12277.97992
 520.91;12379.370;  -26.770;    0.000;12406.14012
 521.19;12494.550;  -38.370;    0.000;12532.91980
 521.47;12573.150;  -34.040;    0.000;12607.19039
 521.75;12707.070;  -18.800;    0.000;12725.87031
 522.04;12846.400;  -20.950;    0.000;12867.35039
 522.32;12930.290;  -28.850;    0.000;12959.14004
 522.60;13054.760;   -2.200;    0.000;13056.95977
 522.88;13125.480;  -27.480;    0.000;13152.96047
 523.16;13221.440;  -30.510;    0.000;13251.95043
 523.44;13391.510;  -14.660;    0.000;13406.16977
 523.72;13435.330;  -14.230;    0.000;13449.56008
 524.00;13541.370;  -19.990;    0.000;13561.36012
 524.28;13662.520;  -13.820;    0.000;13676.33953
 524.57;13701.160;  -19.210;    0.000;13720.37016
 524.85;13849.770;  -18.070;    0.000;13867.83953
 525.13;13950.890;   -7.880;    0.000;13958.76965
 525.41;14045.390;  -15.200;    0.000;14060.58965
 525.69;14158.000;  -22.730;    0.000;14180.73000
 525.97;14259.440;  -11.300;    0.000;14270.74043
 526.25;14246.150;  -30.900;    0.000;14277.05039
 526.53;14439.510;  -24.080;    0.000;14463.58977
 526.81;14501.480;  -32.680;    0.000;14534.16047
 527.09;14592.620;  -18.610;    0.000;14611.23012
 527.37;14682.770;  -33.990;    0.000;14716.75953
 527.65;14793.730;  -20.330;    0.000;14814.06047
 527.93;14866.570;  -30.530;    0.000;14897.10031
 528.22;14939.350;  -21.370;    0.000;14960.71961
 528.50;15020.170;  -30.810;    0.000;15050.97992
 528.78;15168.090;  -19.390;    0.000;15187.47984
 529.06;15166.130;  -18.110;    0.000;15184.23988
 529.34;15315.250;  -12.610;    0.000;15327.86000
 529.62;15376.680;  -25.580;    0.000;15402.25969
 529.90;15437.470;  -18.220;    0.000;15455.68973
 530.18;15553.420;  -16.900;    0.000;15570.31992
 530.46;15645.170;  -12.490;    0.000;15657.65992
 530.74;15727.400;  -16.000;    0.000;15743.40039
 531.02;15847.920;   -8.990;    0.000;15856.90992
 531.30;15902.140;  -17.900;    0.000;15920.03965
 531.58;15960.190;  -22.140;    0.000;15982.33043
 531.86;16054.340;  -16.120;    0.000;16070.45984
 532.14;16125.730;  -14.770;    0.000;16140.50047
 532.42;16174.330;  -15.480;    0.000;16189.81008
 532.70;16309.910;  -15.860;    0.000;16325.77016
 532.98;16304.670;  -16.040;    0.000;16320.70992
 533.26;16426.230;   -9.200;    0.000;16435.43047
 533.54;16473.270;  -13.350;    0.000;16486.61953
 533.82;16577.250;  -12.340;    0.000;16589.59000
 534.10;16619.561;  -20.000;    0.000;16639.56055
 534.38;16727.260;  -16.730;    0.000;16743.98977
 534.66;16814.471;  -19.020;    0.000;16833.49070
 534.94;16851.320;  -15.430;    0.000;16866.75031
 535.22;16903.789;  -25.480;    0.000;16929.26906
 535.50;17049.381;  -16.270;    0.000;17065.65086
 535.78;17054.840;  -35.370;    0.000;17090.20984
 536.06;17131.439;  -21.060;    0.000;17152.49945
 536.34;17186.320;  -27.730;    0.000;17214.05031
 536.62;17269.949;  -21.040;    0.000;17290.98922
 536.90;17360.779;  -23.680;    0.000;17384.45930
 537.18;17375.461;  -20.220;    0.000;17395.68094
 537.46;17537.600;  -32.690;    0.000;17570.28961
 537.74;17572.770;  -25.030;    0.000;17597.79953
 538.02;17644.391;  -23.550;    0.000;17667.94062
 538.30;17637.170;   -6.860;    0.000;17644.02992
 538.58;17791.689;  -30.360;    0.000;17822.04945
 538.86;17839.750;   -6.790;    0.000;17846.54000
 539.14;17890.949;  -24.250;    0.000;17915.19922
 539.42;17962.980;    7.090;    0.000;17955.89047
 539.70;18061.570;  -28.650;    0.000;18090.22031
 539.98;18086.221;   -6.010;    0.000;18092.23070
 540.26;18137.660;  -20.240;    0.000;18157.90016
 540.54;18146.990;  -28.370;    0.000;18175.36024
 540.82;18303.270;  -30.880;    0.000;18334.14953
 541.10;18349.100;  -11.720;    0.000;18360.81961
 541.38;18421.699;  -29.890;    0.000;18451.58922
 541.66;18447.830;  -19.600;    0.000;18467.43008
 541.94;18511.391;  -20.400;    0.000;18531.79062
 542.22;18544.150;  -22.450;    0.000;18566.60039
 542.50;18593.971;  -25.920;    0.000;18619.89070
 542.78;18663.029;  -22.300;    0.000;18685.32930
 543.06;18700.150;  -24.780;    0.000;18724.93039
 543.34;18771.619;  -13.100;    0.000;18784.71914
 543.62;18817.000;  -22.330;    0.000;18839.33000
 543.90;18858.471;  -21.000;    0.000;18879.47070
 544.17;18964.381;  -28.870;    0.000;18993.25086
 544.45;18962.789;  -25.940;    0.000;18988.72906
 544.73;18990.990;  -19.130;    0.000;19010.12023
 545.01;19128.160;  -25.070;    0.000;19153.23016
 545.29;19167.551;  -23.350;    0.000;19190.90078
 545.57;19238.750;  -13.760;    0.000;19252.51000
 545.85;19301.869;  -16.940;    0.000;19318.80914
 546.13;19328.891;  -27.870;    0.000;19356.76063
 546.41;19373.770;  -16.310;    0.000;19390.07953
 546.69;19390.340;  -32.210;    0.000;19422.54984
 546.97;19401.080;  -24.550;    0.000;19425.63008
 547.25;19438.180;  -27.210;    0.000;19465.38969
 547.52;19505.100;  -26.500;    0.000;19531.59961
 547.80;19561.820;  -20.870;    0.000;19582.69031
 548.08;19629.699;  -23.140;    0.000;19652.83922
 548.36;19642.609;  -18.030;    0.000;19660.63938
 548.64;19645.949;  -17.680;    0.000;19663.62922
 548.92;19714.500;  -24.050;    0.000;19738.55000
 549.20;19724.670;  -19.710;    0.000;19744.37992
 549.48;19786.650;  -15.170;    0.000;19801.82039
 549.76;19813.641;  -15.590;    0.000;19829.23063
 550.04;19843.301;  -23.170;    0.000;19866.47078
 550.31;19874.029;  -27.150;    0.000;19901.17930
 550.59;19933.230;  -12.080;    0.000;19945.31047
 550.87;19931.830;  -29.450;    0.000;19961.28008
 551.15;19930.779;  -18.290;    0.000;19949.06930
 551.43;19984.670;  -24.870;    0.000;20009.53992
 551.71;20050.480;  -24.400;    0.000;20074.88047
 551.99;20077.279;  -24.990;    0.000;20102.26930
 552.27;20013.980;  -24.030;    0.000;20038.01047
 552.54;20109.631;  -22.450;    0.000;20132.08086
 552.82;20140.289;  -10.980;    0.000;20151.26906
 553.10;20138.961;  -23.500;    0.000;20162.46094
 553.38;20164.670;  -13.410;    0.000;20178.07992
 553.66;20138.529;  -23.070;    0.000;20161.59930
 553.94;20275.119;  -13.110;    0.000;20288.22914
 554.22;20242.670;  -13.670;    0.000;20256.33992
 554.49;20235.230;  -16.040;    0.000;20251.27047
 554.77;20238.740;  -16.190;    0.000;20254.93023
 555.05;20360.680;  -15.740;    0.000;20376.41969
 555.33;20270.811;  -32.440;    0.000;20303.25055
 555.61;20305.939;  -25.560;    0.000;20331.49945
 555.89;20241.311;  -33.180;    0.000;20274.49055
 556.16;20354.350;  -25.590;    0.000;20379.93961
 556.44;20329.289;  -32.100;    0.000;20361.38906
 556.72;20296.650;  -29.140;    0.000;20325.79039
 557.00;20401.820;  -31.520;    0.000;20433.34031
 557.28;20356.369;  -17.510;    0.000;20373.87914
 557.56;20421.711;  -21.250;    0.000;20442.96094
 557.83;20375.430;  -25.100;    0.000;20400.52969
 558.11;20401.430;  -15.320;    0.000;20416.74969
 558.39;20415.070;  -15.190;    0.000;20430.26031
 558.67;20409.619;  -19.950;    0.000;20429.56914
 558.95;20378.270;  -29.320;    0.000;20407.58953
 559.23;20418.910;  -27.530;    0.000;20446.44016
 559.50;20386.820;  -21.290;    0.000;20408.11031
 559.78;20445.150;  -17.790;    0.000;20462.94039
 560.06;20386.279;  -22.880;    0.000;20409.15930
 560.34;20364.830;  -13.260;    0.000;20378.09008
 560.62;20406.279;  -24.200;    0.000;20430.47930
 560.89;20361.131;  -14.400;    0.000;20375.53086
 561.17;20370.730;  -13.580;    0.000;20384.31047
 561.45;20326.090;  -31.100;    0.000;20357.18984
 561.73;20325.359;  -25.680;    0.000;20351.03938
 562.00;20360.680;  -26.560;    0.000;20387.23969
 562.28;20302.381;  -20.620;    0.000;20323.00086
 562.56;20338.980;  -26.640;    0.000;20365.62047
 562.84;20361.119;  -11.530;    0.000;20372.64914
 563.12;20286.080;  -33.150;    0.000;20319.23008
 563.39;20316.301;  -30.760;    0.000;20347.06078
 563.67;20282.090;  -22.790;    0.000;20304.87984
 563.95;20203.170;  -23.690;    0.000;20226.85992
 564.23;20256.070;  -23.130;    0.000;20279.20031
 564.50;20229.400;  -16.770;    0.000;20246.17039
 564.78;20224.160;  -10.770;    0.000;20234.93016
 565.06;20145.400;  -24.010;    0.000;20169.41039
 565.34;20158.109;  -21.080;    0.000;20179.18937
 565.61;20198.561;  -15.850;    0.000;20214.41055
 565.89;20135.529;  -10.570;    0.000;20146.09930
 566.17;20116.811;  -33.940;    0.000;20150.75055
 566.45;20116.320;  -18.770;    0.000;20135.09031
 566.73;20084.609;  -28.520;    0.000;20113.12938
 567.00;20035.961;  -31.220;    0.000;20067.18094
 567.28;19927.020;  -26.710;    0.000;19953.72953
 567.56;19930.439;  -20.940;    0.000;19951.37945
 567.83;19933.289;  -22.790;    0.000;19956.07906
 568.11;19903.660;  -26.120;    0.000;19929.78016
 568.39;19890.590;  -30.490;    0.000;19921.07984
 568.67;19876.070;  -27.500;    0.000;19903.57031
 568.94;19777.740;  -23.260;    0.000;19801.00023
 569.22;19731.570;  -22.350;    0.000;19753.92031
 569.50;19755.760;  -31.970;    0.000;19787.72976
 569.78;19697.439;  -23.620;    0.000;19721.05945
 570.05;19674.189;  -30.470;    0.000;19704.65945
 570.33;19657.199;  -24.910;    0.000;19682.10922
 570.61;19559.869;  -15.430;    0.000;19575.29914
 570.88;19543.801;  -38.820;    0.000;19582.62078
 571.16;19500.211;  -23.130;    0.000;19523.34094
 571.44;19461.699;  -35.510;    0.000;19497.20922
 571.72;19408.119;  -20.230;    0.000;19428.34914
 571.99;19386.420;  -30.400;    0.000;19416.81992
 572.27;19381.580;  -20.910;    0.000;19402.49008
 572.55;19312.471;  -30.340;    0.000;19342.81070
 572.82;19265.320;  -20.980;    0.000;19286.30031
 573.10;19202.359;  -22.520;    0.000;19224.87938
 573.38;19150.680;  -33.590;    0.000;19184.26969
 573.65;19101.480;  -11.540;    0.000;19113.02047
 573.93;19038.131;  -23.340;    0.000;19061.47086
 574.21;18986.090;  -22.650;    0.000;19008.73984
 574.48;18961.631;  -27.240;    0.000;18988.87086
 574.76;18874.430;  -31.270;    0.000;18905.69969
 575.04;18857.199;  -15.830;    0.000;18873.02922
 575.32;18816.910;  -21.200;    0.000;18838.11016
 575.59;18789.350;  -16.300;    0.000;18805.64961
 575.87;18648.189;  -40.340;    0.000;18688.52945
 576.15;18659.580;  -10.810;    0.000;18670.39008
 576.42;18562.311;  -28.300;    0.000;18590.61055
 576.70;18473.811;  -33.860;    0.000;18507.67055
 576.98;18442.020;  -32.330;    0.000;18474.34953
 577.25;18400.609;  -28.350;    0.000;18428.95938
 577.53;18362.240;  -31.160;    0.000;18393.40023
 577.80;18304.119;  -29.180;    0.000;18333.29914
 578.08;18246.859;  -29.770;    0.000;18276.62938
 578.36;18148.400;  -21.590;    0.000;18169.99039
 578.63;18041.500;  -37.290;    0.000;18078.79000
 578.91;17999.900;  -26.150;    0.000;18026.05039
 579.19;17931.250;  -31.750;    0.000;17963.00000
 579.46;17931.051;  -24.900;    0.000;17955.95078
 579.74;17847.270;  -22.420;    0.000;17869.68953
 580.02;17743.570;  -29.350;    0.000;17772.92031
 580.29;17731.680;  -37.840;    0.000;17769.51969
 580.57;17648.471;  -30.530;    0.000;17679.00070
 580.84;17581.391;  -30.850;    0.000;17612.24063
 581.12;17561.189;  -27.750;    0.000;17588.93945
 581.40;17441.891;  -34.120;    0.000;17476.01062
 581.67;17373.641;  -30.300;    0.000;17403.94062
 581.95;17301.260;  -36.850;    0.000;17338.10976
 582.23;17187.670;  -28.420;    0.000;17216.08992
 582.50;17078.471;  -40.300;    0.000;17118.77070
 582.78;17029.801;  -28.770;    0.000;17058.57078
 583.05;16907.711;  -25.840;    0.000;16933.55094
 583.33;16845.000;  -21.520;    0.000;16866.52000
 583.61;16781.779;  -21.280;    0.000;16803.05930
 583.88;16740.580;  -18.760;    0.000;16759.34008
 584.16;16686.039;  -32.140;    0.000;16718.17906
 584.43;16572.961;  -29.000;    0.000;16601.96094
 584.71;16486.391;  -24.070;    0.000;16510.46062
 584.99;16425.619;  -21.770;    0.000;16447.38914
 585.26;16332.060;  -32.080;    0.000;16364.13957
 585.54;16194.810;  -36.460;    0.000;16231.26957
 585.81;16194.940;  -34.050;    0.000;16228.99043
 586.09;16105.060;  -15.310;    0.000;16120.36957
 586.37;15979.420;  -42.360;    0.000;16021.77992
 586.64;15964.940;  -24.820;    0.000;15989.76043
 586.92;15865.990;  -30.380;    0.000;15896.37023
 587.19;15818.490;  -24.020;    0.000;15842.51023
 587.47;15744.050;  -38.630;    0.000;15782.67981
 587.74;15704.450;  -24.440;    0.000;15728.89020
 588.02;15606.980;  -22.400;    0.000;15629.38047
 588.30;15489.400;  -31.970;    0.000;15521.37039
 588.57;15424.060;  -29.980;    0.000;15454.03957
 588.85;15305.280;  -32.590;    0.000;15337.87027
 589.12;15260.010;  -35.900;    0.000;15295.90977
 589.40;15168.310;  -22.810;    0.000;15191.11957
 589.67;15088.130;  -27.690;    0.000;15115.81988
 589.95;15073.030;  -11.930;    0.000;15084.96027
 590.22;14988.190;  -29.920;    0.000;15018.11043
 590.50;14877.480;  -19.810;    0.000;14897.29047
 590.77;14826.900;  -32.070;    0.000;14858.97039
 591.05;14738.080;  -28.680;    0.000;14766.76008
 591.33;14658.730;  -29.200;    0.000;14687.93047
 591.60;14584.580;  -34.000;    0.000;14618.58008
 591.88;14507.710;  -25.320;    0.000;14533.02996
 592.15;14409.280;  -30.460;    0.000;14439.74027
 592.43;14307.320;  -39.680;    0.000;14347.00031
 592.70;14260.260;  -23.960;    0.000;14284.21976
 592.98;14157.140;  -39.190;    0.000;14196.32965
 593.25;14054.010;  -10.770;    0.000;14064.77977
 593.53;13975.020;  -29.230;    0.000;14004.24953
 593.80;13857.080;  -30.750;    0.000;13887.83008
 594.08;13793.700;  -37.180;    0.000;13830.88020
 594.35;13670.550;  -31.070;    0.000;13701.61980
 594.63;13663.280;  -21.940;    0.000;13685.22027
 594.90;13553.980;  -34.240;    0.000;13588.22047
 595.18;13438.560;  -26.450;    0.000;13465.00957
 595.45;13388.830;  -30.900;    0.000;13419.73008
 595.73;13268.560;  -35.600;    0.000;13304.15957
 596.00;13211.240;  -29.900;    0.000;13241.14023
 596.28;13128.930;  -41.410;    0.000;13170.33969
 596.55;13037.090;  -36.570;    0.000;13073.65984
 596.83;12952.140;  -34.320;    0.000;12986.45965
 597.10;12863.870;  -17.350;    0.000;12881.22012
 597.38;12792.180;  -25.390;    0.000;12817.56969
 597.65;12664.100;  -23.040;    0.000;12687.13961
 597.93;12624.300;  -47.520;    0.000;12671.81981
 598.20;12557.310;  -29.950;    0.000;12587.25957
 598.48;12446.130;  -39.720;    0.000;12485.84988
 598.75;12327.890;  -38.990;    0.000;12366.87965
 599.03;12254.990;  -25.450;    0.000;12280.44024
 599.30;12187.830;  -33.700;    0.000;12221.53008
 599.58;12113.550;  -24.090;    0.000;12137.63980
 599.85;12034.860;  -20.370;    0.000;12055.23035
 600.12;11946.680;  -29.390;    0.000;11976.06969
 600.40;11828.570;  -39.550;    0.000;11868.12031
 600.67;11771.130;  -39.490;    0.000;11810.61988
 600.95;11686.100;  -24.510;    0.000;11710.60961
 601.22;11645.560;  -31.680;    0.000;11677.23957
 601.50;11538.650;  -26.410;    0.000;11565.06039
 601.77;11452.310;  -33.040;    0.000;11485.34957
 602.05;11401.820;  -12.840;    0.000;11414.66031
 602.32;11332.590;  -26.150;    0.000;11358.73984
 602.59;11231.510;  -37.960;    0.000;11269.46976
 602.87;11149.110;  -36.580;    0.000;11185.69035
 603.14;11062.400;  -44.730;    0.000;11107.13039
 603.42;11001.000;  -26.580;    0.000;11027.58000
 603.69;10944.980;  -37.870;    0.000;10982.85047
 603.97;10851.460;  -43.790;    0.000;10895.24996
 604.24;10780.410;  -40.170;    0.000;10820.58015
 604.51;10709.180;  -22.580;    0.000;10731.75969
 604.79;10669.410;  -25.880;    0.000;10695.29016
 605.06;10585.050;  -33.420;    0.000;10618.46980
 605.34;10502.900;  -29.770;    0.000;10532.67039
 605.61;10424.450;  -40.440;    0.000;10464.89019
 605.89;10324.150;  -27.190;    0.000;10351.34039
 606.16;10324.040;  -39.370;    0.000;10363.41004
 606.43;10242.300;  -15.550;    0.000;10257.84980
 606.71;10148.400;  -48.100;    0.000;10196.50039
 606.98;10123.720;  -35.410;    0.000;10159.12973
 607.26;10019.380;  -35.790;    0.000;10055.16988
 607.53; 9965.380;  -36.110;    0.000;10001.48988
 607.80; 9885.640;  -44.650;    0.000;9930.28965
 608.08; 9862.560;  -39.850;    0.000;9902.40957
 608.35; 9757.130;  -41.460;    0.000;9798.58988
 608.62; 9672.880;  -33.970;    0.000;9706.84988
 608.90; 9659.900;  -39.640;    0.000;9699.54039
 609.17; 9568.010;  -32.290;    0.000;9600.29977
 609.45; 9506.340;  -43.540;    0.000;9549.87984
 609.72; 9473.030;  -25.940;    0.000;9498.97027
 609.99; 9379.090;  -54.580;    0.000;9433.66985
 610.27; 9366.270;  -33.980;    0.000;9400.24953
 610.54; 9299.570;  -53.950;    0.000;9353.52031
 610.81; 9222.030;  -40.300;    0.000;9262.33027
 611.09; 9171.390;  -31.150;    0.000;9202.53965
 611.36; 9097.060;  -35.360;    0.000;9132.41957
 611.64; 9080.190;  -44.100;    0.000;9124.29043
 611.91; 9053.960;  -32.700;    0.000;9086.65996
 612.18; 8979.190;  -34.140;    0.000;9013.33043
 612.46; 8894.730;  -36.560;    0.000;8931.29047
 612.73; 8877.340;  -39.030;    0.000;8916.36984
 613.00; 8769.020;  -38.110;    0.000;8807.12953
 613.28; 8715.150;  -32.120;    0.000;8747.27039
 613.55; 8650.380;  -45.300;    0.000;8695.67988
 613.82; 8522.290;  -51.080;    0.000;8573.37004
 614.10; 8498.880;  -41.190;    0.000;8540.06988
 614.37; 8393.320;  -41.870;    0.000;8435.19031
 614.64; 8324.840;  -36.410;    0.000;8361.24984
 614.92; 8249.710;  -39.630;    0.000;8289.33996
 615.19; 8159.040;  -29.580;    0.000;8188.62004
 615.46; 8043.330;  -41.030;    0.000;8084.36008
 615.74; 7917.810;  -36.750;    0.000;7954.56006
 616.01; 7808.210;  -53.870;    0.000;7862.07996
 616.28; 7693.290;  -41.570;    0.000;7734.86004
 616.56; 7568.750;  -47.850;    0.000;7616.60000
 616.83; 7446.200;  -23.950;    0.000;7470.15020
 617.10; 7385.430;  -34.050;    0.000;7419.48018
 617.37; 7379.290;  -25.940;    0.000;7405.23004
 617.65; 7475.150;  -41.240;    0.000;7516.38990
 617.92; 7506.330;  -29.900;    0.000;7536.23008
 618.19; 7465.120;  -46.220;    0.000;7511.34012
 618.47; 7383.700;  -38.070;    0.000;7421.77020
 618.74; 7364.410;  -50.090;    0.000;7414.50016
 619.01; 7314.910;  -38.340;    0.000;7353.25016
 619.28; 7281.330;  -43.640;    0.000;7324.97008
 619.56; 7269.340;  -38.060;    0.000;7307.39985
 619.83; 7222.220;  -39.710;    0.000;7261.93021
 620.10; 7181.950;  -31.220;    0.000;7213.17019
 620.38; 7135.990;  -52.170;    0.000;7188.16023
 620.65; 7099.650;  -46.120;    0.000;7145.76990
 620.92; 7062.580;  -42.600;    0.000;7105.18008
 621.19; 7056.020;  -43.000;    0.000;7099.02002
 621.47; 7055.220;  -40.820;    0.000;7096.04021
 621.74; 7095.380;  -41.630;    0.000;7137.00988
 622.01; 7091.660;  -43.850;    0.000;7135.51015
 622.28; 7084.820;  -32.550;    0.000;7117.36982
 622.56; 7047.970;  -42.800;    0.000;7090.77021
 622.83; 7035.790;  -37.130;    0.000;7072.92004
 623.10; 6996.750;  -48.260;    0.000;7045.01000
 623.38; 6965.360;  -35.400;    0.000;7000.75986
 623.65; 6974.080;  -17.330;    0.000;6991.41008
 623.92; 6929.980;  -32.240;    0.000;6962.21998
 624.19; 6893.120;  -53.540;    0.000;6946.66012
 624.46; 6885.650;  -30.480;    0.000;6916.12990
 624.74; 6857.450;  -39.050;    0.000;6896.50019
 625.01; 6826.010;  -26.210;    0.000;6852.21976
 625.28; 6790.980;  -44.030;    0.000;6835.00998
 625.55; 6755.450;  -44.700;    0.000;6800.15020
 625.83; 6736.700;  -43.650;    0.000;6780.35020
 626.10; 6701.760;  -35.370;    0.000;6737.12976
 626.37; 6664.000;  -51.170;    0.000;6715.17000
 626.64; 6652.310;  -46.220;    0.000;6698.53006
 626.92; 6615.520;  -40.280;    0.000;6655.80002
 627.19; 6583.810;  -37.500;    0.000;6621.31006
 627.46; 6559.800;  -39.980;    0.000;6599.77980
 627.73; 6545.560;  -33.180;    0.000;6578.74006
 628.00; 6512.070;  -39.210;    0.000;6551.27982
 628.28; 6508.660;  -35.220;    0.000;6543.88016
 628.55; 6483.600;  -46.210;    0.000;6529.81010
 628.82; 6450.670;  -27.350;    0.000;6478.01992
 629.09; 6415.860;  -47.190;    0.000;6463.04986
 629.36; 6369.130;  -42.190;    0.000;6411.31988
 629.64; 6338.120;  -41.460;    0.000;6379.58012
 629.91; 6310.430;  -32.990;    0.000;6343.42018
 630.18; 6290.110;  -50.880;    0.000;6340.98986
 630.45; 6276.410;  -51.820;    0.000;6328.23016
 630.72; 6207.980;  -62.210;    0.000;6270.18998
 631.00; 6184.610;  -42.860;    0.000;6227.46986
 631.27; 6185.700;  -42.790;    0.000;6228.49020
 631.54; 6139.420;  -43.780;    0.000;6183.19992
 631.81; 6124.720;  -35.020;    0.000;6159.74022
 632.08; 6101.220;  -40.130;    0.000;6141.35022
 632.35; 6077.540;  -50.910;    0.000;6128.45004
 632.63; 6060.810;  -43.240;    0.000;6104.05006
 632.90; 6033.330;  -44.370;    0.000;6077.70008
 633.17; 6004.410;  -40.840;    0.000;6045.25016
 633.44; 5991.760;  -52.000;    0.000;6043.75977
 633.71; 5988.280;  -32.170;    0.000;6020.44978
 633.98; 5993.930;  -30.510;    0.000;6024.44018
 634.25; 5960.500;  -34.090;    0.000;5994.59000
 634.53; 5931.550;  -34.830;    0.000;5966.37981
 634.80; 5922.620;  -39.750;    0.000;5962.37012
 635.07; 5917.550;  -49.230;    0.000;5966.77980
 635.34; 5920.390;  -23.990;    0.000;5944.38014
 635.61; 5902.960;  -50.510;    0.000;5953.46996
 635.88; 5898.630;  -44.250;    0.000;5942.87988
 636.15; 5893.690;  -43.150;    0.000;5936.83994
 636.43; 5915.850;  -38.010;    0.000;5953.86010
 636.70; 5932.240;  -43.060;    0.000;5975.30024
 636.97; 5856.820;  -38.410;    0.000;5895.22982
 637.24; 5819.340;  -50.350;    0.000;5869.68984
 637.51; 5728.540;  -31.980;    0.000;5760.52004
 637.78; 5639.300;  -46.720;    0.000;5686.01981
 638.05; 5618.740;  -39.310;    0.000;5658.05024
 638.32; 5601.390;  -31.150;    0.000;5632.54014
 638.60; 5561.410;  -44.910;    0.000;5606.32016
 638.87; 5497.840;  -50.240;    0.000;5548.07985
 639.14; 5486.690;  -43.540;    0.000;5530.22994
 639.41; 5436.660;  -32.120;    0.000;5468.78016
 639.68; 5392.310;  -45.810;    0.000;5438.12006
 639.95; 5356.050;  -51.890;    0.000;5407.93980
 640.22; 5330.040;  -48.220;    0.000;5378.26004
 640.49; 5312.680;  -45.740;    0.000;5358.42018
 640.76; 5282.170;  -35.730;    0.000;5317.89992
 641.03; 5176.660;  -50.560;    0.000;5227.22016
 641.30; 5147.000;  -42.310;    0.000;5189.31000
 641.58; 5107.110;  -49.140;    0.000;5156.24986
 641.85; 5047.520;  -43.210;    0.000;5090.73002
 642.12; 4962.890;  -51.320;    0.000;5014.21014
 642.39; 4980.310;  -48.990;    0.000;5029.30006
 642.66; 4938.140;  -45.590;    0.000;4983.73014
 642.93; 4905.850;  -29.310;    0.000;4935.16010
 643.20; 4862.020;  -45.820;    0.000;4907.84002
 643.47; 4861.260;  -42.670;    0.000;4903.92976
 643.74; 4786.170;  -51.730;    0.000;4837.89992
 644.01; 4756.220;  -42.950;    0.000;4799.17022
 644.28; 4722.160;  -60.830;    0.000;4782.99016
 644.55; 4695.070;  -47.560;    0.000;4742.62983
 644.82; 4688.110;  -32.270;    0.000;4720.37986
 645.09; 4672.280;  -35.500;    0.000;4707.77979
 645.36; 4610.420;  -50.290;    0.000;4660.70992
 645.63; 4592.410;  -43.920;    0.000;4636.33015
 645.91; 4550.850;  -46.930;    0.000;4597.78010
 646.18; 4533.740;  -38.010;    0.000;4571.75023
 646.45; 4489.540;  -41.290;    0.000;4530.83004
 646.72; 4469.720;  -48.770;    0.000;4518.49022
 646.99; 4429.050;  -41.040;    0.000;4470.08981
 647.26; 4434.280;  -41.240;    0.000;4475.51979
 647.53; 4377.990;  -54.690;    0.000;4432.68023
 647.80; 4379.980;  -27.780;    0.000;4407.75998
 648.07; 4311.760;  -58.730;    0.000;4370.48977
 648.34; 4325.740;  -34.280;    0.000;4360.02023
 648.61; 4267.450;  -47.500;    0.000;4314.95020
 648.88; 4286.460;  -44.020;    0.000;4330.47996
 649.15; 4214.780;  -52.630;    0.000;4267.40979
 649.42; 4210.240;  -48.650;    0.000;4258.89024
 649.69; 4154.810;  -46.880;    0.000;4201.69006
 649.96; 4134.180;  -41.340;    0.000;4175.52018
 650.23; 4115.990;  -59.960;    0.000;4175.95023
 650.50; 4091.620;  -53.140;    0.000;4144.76012
 650.77; 4054.680;  -61.220;    0.000;4115.89993
 651.04; 4045.060;  -42.700;    0.000;4087.76006
 651.31; 4007.780;  -58.050;    0.000;4065.83003
 651.58; 3977.260;  -46.320;    0.000;4023.58001
 651.85; 3965.040;  -57.610;    0.000;4022.65004
 652.12; 3965.800;  -30.010;    0.000;3995.81005
 652.39; 3930.940;  -47.470;    0.000;3978.40994
 652.66; 3903.210;  -50.490;    0.000;3953.69996
 652.93; 3869.320;  -50.350;    0.000;3919.67007
 653.20; 3846.800;  -40.500;    0.000;3887.30005
 653.47; 3825.020;  -56.060;    0.000;3881.08002
 653.74; 3811.850;  -42.910;    0.000;3854.76010
 654.01; 3783.130;  -45.890;    0.000;3829.01988
 654.28; 3732.110;  -39.800;    0.000;3771.91011
 654.55; 3712.480;  -56.340;    0.000;3768.81998
 654.81; 3721.760;  -45.420;    0.000;3767.18001
 655.08; 3675.230;  -44.350;    0.000;3719.57998
 655.35; 3661.330;  -44.320;    0.000;3705.65008
 655.62; 3622.680;  -45.660;    0.000;3668.33993
 655.89; 3599.680;  -50.060;    0.000;3649.73993
 656.16; 3579.660;  -51.110;    0.000;3630.76991
 656.43; 3550.510;  -52.210;    0.000;3602.72001
 656.70; 3514.310;  -57.420;    0.000;3571.73006
 656.97; 3518.370;  -49.610;    0.000;3567.98012
 657.24; 3479.070;  -51.930;    0.000;3531.00007
 657.51; 3472.560;  -43.090;    0.000;3515.65006
 657.78; 3439.690;  -43.490;    0.000;3483.17994
 658.05; 3437.320;  -42.030;    0.000;3479.35007
 658.32; 3398.950;  -53.310;    0.000;3452.25995
 658.59; 3387.870;  -44.810;    0.000;3432.68012
 658.86; 3336.650;  -50.680;    0.000;3387.32990
 659.12; 3344.600;  -47.800;    0.000;3392.40010
 659.39; 3289.760;  -54.290;    0.000;3344.05001
 659.66; 3288.750;  -36.090;    0.000;3324.84000
 659.93; 3278.180;  -42.230;    0.000;3320.40993
 660.20; 3235.670;  -37.790;    0.000;3273.45992
 660.47; 3224.140;  -53.470;    0.000;3277.60989
 660.74; 3186.610;  -52.820;    0.000;3239.43011
 661.01; 3172.610;  -43.790;    0.000;3216.40011
 661.28; 3165.730;  -40.930;    0.000;3206.65998
 661.55; 3166.530;  -13.100;    0.000;3179.63003
 661.81; 3101.150;  -55.540;    0.000;3156.68990
 662.08; 3077.180;  -46.830;    0.000;3124.00993
 662.35; 3058.270;  -50.920;    0.000;3109.19002
 662.62; 3043.480;  -52.300;    0.000;3095.77998
 662.89; 3019.910;  -51.970;    0.000;3071.87991
 663.16; 2986.870;  -49.180;    0.000;3036.05012
 663.43; 2956.890;  -46.940;    0.000;3003.82989
 663.70; 2928.930;  -59.600;    0.000;2988.52993
 663.96; 2925.550;  -43.330;    0.000;2968.88005
 664.23; 2896.980;  -64.220;    0.000;2961.19998
 664.50; 2890.080;  -48.710;    0.000;2938.79008
 664.77; 2847.080;  -51.030;    0.000;2898.11008
 665.04; 2853.150;  -48.780;    0.000;2901.92990
 665.31; 2829.960;  -54.760;    0.000;2884.71996
 665.58; 2827.540;  -49.660;    0.000;2877.20004
 665.84; 2773.830;  -55.670;    0.000;2829.50008
 666.11; 2774.850;  -49.530;    0.000;2824.38010
 666.38; 2737.780;  -56.960;    0.000;2794.74003
 666.65; 2725.070;  -48.440;    0.000;2773.51007
 666.92; 2706.810;  -61.380;    0.000;2768.19006
 667.19; 2682.470;  -50.390;    0.000;2732.85997
 667.46; 2680.010;  -49.900;    0.000;2729.91001
 667.72; 2644.600;  -43.000;    0.000;2687.60010
 667.99; 2655.480;  -50.920;    0.000;2706.39998
 668.26; 2613.560;  -29.430;    0.000;2642.99006
 668.53; 2597.060;  -61.920;    0.000;2658.98006
 668.80; 2592.430;  -33.970;    0.000;2626.39993
 669.06; 2557.130;  -51.800;    0.000;2608.92988
 669.33; 2551.270;  -43.590;    0.000;2594.86002
 669.60; 2509.490;  -58.870;    0.000;2568.35999
 669.87; 2498.960;  -46.440;    0.000;2545.39996
 670.14; 2484.820;  -50.360;    0.000;2535.18007
 670.41; 2484.050;  -41.980;    0.000;2526.03005
 670.67; 2428.300;  -42.520;    0.000;2470.82005
 670.94; 2392.190;  -54.670;    0.000;2446.85994
 671.21; 2409.990;  -45.490;    0.000;2455.47999
 671.48; 2383.800;  -49.520;    0.000;2433.32005
 671.75; 2356.610;  -59.790;    0.000;2416.40011
 672.01; 2347.510;  -44.080;    0.000;2391.59001
 672.28; 2327.770;  -52.640;    0.000;2380.41002
 672.55; 2324.780;  -37.120;    0.000;2361.90003
 672.82; 2281.990;  -54.630;    0.000;2336.61999
 673.08; 2287.530;  -49.040;    0.000;2336.57003
 673.35; 2250.810;  -55.440;    0.000;2306.25006
 673.62; 2235.930;  -46.870;    0.000;2282.79993
 673.89; 2216.860;  -55.170;    0.000;2272.03011
 674.16; 2199.050;  -57.760;    0.000;2256.81005
 674.42; 2178.870;  -47.940;    0.000;2226.81012
 674.69; 2165.850;  -39.700;    0.000;2205.55010
 674.96; 2163.520;  -50.250;    0.000;2213.77002
 675.23; 2122.650;  -61.580;    0.000;2184.22990
 675.49; 2107.950;  -58.140;    0.000;2166.08995
 675.76; 2104.170;  -47.890;    0.000;2152.05992
 676.03; 2082.140;  -42.090;    0.000;2124.22989
 676.30; 2053.600;  -51.680;    0.000;2105.28010
 676.56; 2035.330;  -56.460;    0.000;2091.78996
 676.83; 2040.230;  -43.720;    0.000;2083.94998
 677.10; 1989.270;  -53.570;    0.000;2042.84002
 677.37; 2006.520;  -48.110;    0.000;2054.63002
 677.63; 1974.670;  -53.920;    0.000;2028.59004
 677.90; 1972.120;  -50.800;    0.000;2022.91999
 678.17; 1958.320;  -51.820;    0.000;2010.13995
 678.44; 1963.750;  -46.980;    0.000;2010.73000
 678.70; 1908.550;  -63.530;    0.000;1972.08005
 678.97; 1925.580;  -55.410;    0.000;1980.98996
 679.24; 1869.020;  -54.480;    0.000;1923.50002
 679.50; 1847.900;  -62.210;    0.000;1910.11002
 679.77; 1871.460;  -50.610;    0.000;1922.06996
 680.04; 1869.260;  -46.910;    0.000;1916.17001
 680.31; 1819.310;  -56.210;    0.000;1875.52006
 680.57; 1819.230;  -54.280;    0.000;1873.50998
 680.84; 1807.620;  -61.530;    0.000;1869.14999
 681.11; 1822.420;  -44.650;    0.000;1867.07005
 681.37; 1769.670;  -59.060;    0.000;1828.73005
 681.64; 1754.430;  -43.030;    0.000;1797.46005
 681.91; 1737.320;  -58.290;    0.000;1795.60995
 682.17; 1755.370;  -37.730;    0.000;1793.09999
 682.44; 1700.570;  -56.890;    0.000;1757.45995
 682.71; 1683.230;  -49.600;    0.000;1732.82998
 682.98; 1680.020;  -57.550;    0.000;1737.57002
 683.24; 1668.650;  -57.200;    0.000;1725.85003
 683.51; 1667.350;  -61.060;    0.000;1728.40998
 683.78; 1642.930;  -56.140;    0.000;1699.07005
 684.04; 1645.470;  -56.030;    0.000;1701.49997
 684.31; 1614.840;  -65.410;    0.000;1680.24997
 684.58; 1599.820;  -60.330;    0.000;1660.14995
 684.84; 1599.160;  -45.720;    0.000;1644.88004
 685.11; 1569.540;  -61.320;    0.000;1630.86004
 685.38; 1564.670;  -54.090;    0.000;1618.76004
 685.64; 1533.930;  -55.840;    0.000;1589.77005
 685.91; 1550.020;  -48.800;    0.000;1598.82002
 686.17; 1541.360;  -52.500;    0.000;1593.85999
 686.44; 1517.610;  -47.040;    0.000;1564.64999
 686.71; 1497.410;  -69.340;    0.000;1566.75003
 686.97; 1495.050;  -61.270;    0.000;1556.32005
 687.24; 1473.290;  -55.300;    0.000;1528.59004
 687.51; 1459.710;  -55.730;    0.000;1515.43996
 687.77; 1458.130;  -55.320;    0.000;1513.45000
 688.04; 1437.780;  -53.560;    0.000;1491.34003
 688.31; 1440.230;  -60.360;    0.000;1500.58998
 688.57; 1440.050;  -42.800;    0.000;1482.85005
 688.84; 1410.100;  -54.400;    0.000;1464.49998
 689.10; 1406.140;  -60.080;    0.000;1466.22002
 689.37; 1402.450;  -53.200;    0.000;1455.64995
 689.64; 1385.450;  -62.880;    0.000;1448.32995
 689.90; 1369.950;  -66.970;    0.000;1436.91995
 690.17; 1341.570;  -61.960;    0.000;1403.52995
 690.44; 1327.300;  -71.470;    0.000;1398.77005
 690.70; 1330.610;  -48.020;    0.000;1378.62999
 690.97; 1298.530;  -67.550;    0.000;1366.08003
 691.23; 1296.090;  -53.030;    0.000;1349.11996
 691.50; 1273.400;  -53.280;    0.000;1326.68002
 691.77; 1275.500;  -59.250;    0.000;1334.75000
 692.03; 1261.460;  -59.590;    0.000;1321.04996
 692.30; 1264.280;  -52.970;    0.000;1317.25003
 692.56; 1221.460;  -61.140;    0.000;1282.59996
 692.83; 1230.110;  -49.500;    0.000;1279.60999
 693.10; 1223.770;  -53.280;    0.000;1277.05002
 693.36; 1212.880;  -42.000;    0.000;1254.88000
 693.63; 1177.170;  -64.510;    0.000;1241.68005
 693.89; 1178.330;  -55.350;    0.000;1233.67995
 694.16; 1166.110;  -50.790;    0.000;1216.89999
 694.42; 1156.360;  -51.270;    0.000;1207.62999
 694.69; 1151.950;  -40.380;    0.000;1192.32995
 694.96; 1163.630;  -33.890;    0.000;1197.52000
 695.22; 1117.070;  -55.260;    0.000;1172.32994
 695.49; 1114.730;  -31.710;    0.000;1146.43998
 695.75; 1089.640;  -66.650;    0.000;1156.29002
 696.02; 1071.620;  -49.310;    0.000;1120.93000
 696.28; 1069.620;  -46.910;    0.000;1116.52999
 696.55; 1063.620;  -54.660;    0.000;1118.27999
 696.81; 1054.210;  -62.250;    0.000;1116.45996
 697.08; 1034.770;  -54.150;    0.000;1088.92002
 697.34; 1019.820;  -57.540;    0.000;1077.36001
 697.61; 1014.730;  -56.810;    0.000;1071.53998
 697.88; 1001.460;  -62.100;    0.000;1063.56002
 698.14;  981.420;  -58.940;    0.000;1040.35998
 698.41;  956.310;  -56.650;    0.000;1012.96000
 698.67;  961.470;  -52.920;    0.000;1014.38997
 698.94;  965.720;  -58.190;    0.000;1023.90997
 699.20;  940.360;  -47.850;    0.000;988.20998
 699.47;  919.550;  -68.830;    0.000;988.37999
 699.73;  923.360;  -58.380;    0.000;981.73999
 700.00;  903.460;  -64.630;    0.000;968.09002
 700.26;  902.010;  -59.530;    0.000;961.54001
 700.53;  891.330;  -54.230;    0.000;945.56002
 700.79;  872.240;  -54.050;    0.000;926.28999
 701.06;  867.180;  -64.410;    0.000;931.59000
 701.32;  854.400;  -47.200;    0.000;901.60003
 701.59;  841.160;  -59.220;    0.000;900.37997
 701.85;  848.250;  -57.540;    0.000;905.79000
 702.12;  800.220;  -64.900;    0.000;865.11997
 702.38;  802.840;  -52.820;    0.000;855.66003
 702.65;  793.780;  -57.340;    0.000;851.12003
 702.91;  797.390;  -41.130;    0.000;838.52002
 703.18;  763.890;  -57.340;    0.000;821.23001
 703.44;  758.440;  -65.650;    0.000;824.09000
 703.71;  733.760;  -50.250;    0.000;784.01001
 703.97;  738.300;  -60.810;    0.000;799.10999
 704.24;  734.290;  -48.680;    0.000;782.96998
 704.50;  702.110;  -62.670;    0.000;764.77998
 704.76;  706.230;  -53.590;    0.000;759.81998
 705.03;  690.950;  -53.270;    0.000;744.22001
 705.29;  680.190;  -68.330;    0.000;748.52000
 705.56;  676.120;  -47.460;    0.000;723.57999
 705.82;  646.670;  -62.540;    0.000;709.20998
 706.09;  664.140;  -35.470;    0.000;699.61002
 706.35;  629.140;  -65.830;    0.000;694.97002
 706.62;  636.480;  -43.730;    0.000;680.20998
 706.88;  603.800;  -65.400;    0.000;669.19999
 707.15;  614.470;  -63.540;    0.000;678.00997
 707.41;  584.790;  -69.930;    0.000;654.71998
 707.67;  567.390;  -58.660;    0.000;626.05001
 707.94;  581.510;  -47.320;    0.000;628.83001
 708.20;  554.720;  -61.750;    0.000;616.46997
 708.47;  551.540;  -56.200;    0.000;607.73998
 708.73;  556.150;  -55.700;    0.000;611.85003
 709.00;  532.300;  -61.320;    0.000;593.61999
 709.26;  527.760;  -47.280;    0.000;575.04001
 709.52;  504.100;  -59.520;    0.000;563.62001
 709.79;  518.930;  -47.280;    0.000;566.20999
 710.05;  492.300;  -65.410;    0.000;557.70999
 710.32;  491.190;  -49.210;    0.000;540.40000
 710.58;  468.880;  -64.440;    0.000;533.32001
 710.84;  473.520;  -52.760;    0.000;526.27999
 711.11;  475.170;  -50.760;    0.000;525.93001
 711.37;  476.550;  -48.120;    0.000;524.66999
 711.64;  447.850;  -59.290;    0.000;507.14001
 711.90;  464.830;  -47.730;    0.000;512.55999
 712.16;  446.810;  -57.190;    0.000;504.00000
 712.43;  439.150;  -47.120;    0.000;486.26999
 712.69;  430.330;  -59.770;    0.000;490.09999
 712.96;  423.310;  -61.520;    0.000;484.83000
 713.22;  420.300;  -63.180;    0.000;483.47999
 713.48;  422.590;  -63.970;    0.000;486.56000
 713.75;  407.030;  -45.320;    0.000;452.35000
 714.01;  404.590;  -56.290;    0.000;460.88000
 714.27;  401.320;  -61.760;    0.000;463.08001
 714.54;  405.840;  -48.990;    0.000;454.83000
 714.80;  393.170;  -44.990;    0.000;438.16002
 715.06;  389.740;  -48.390;    0.000;438.12999
 715.33;  381.460;  -64.460;    0.000;445.91999
 715.59;  365.270;  -65.090;    0.000;430.35999
 715.86;  369.870;  -62.730;    0.000;432.59999
 716.12;  372.770;  -44.380;    0.000;417.14999
 716.38;  365.420;  -53.380;    0.000;418.80001
 716.65;  363.900;  -62.740;    0.000;426.64000
 716.91;  347.050;  -65.510;    0.000;412.55999
 717.17;  355.850;  -53.390;    0.000;409.24001
 717.44;  358.860;  -50.170;    0.000;409.02998
 717.70;  349.400;  -58.520;    0.000;407.91999
 717.96;  330.110;  -59.390;    0.000;389.49998
 718.23;  346.040;  -47.140;    0.000;393.18001
 718.49;  335.150;  -63.040;    0.000;398.18999
 718.75;  337.120;  -56.440;    0.000;393.55999
 719.02;  319.760;  -65.540;    0.000;385.30001
 719.28;  337.520;  -51.330;    0.000;388.84999
 719.54;  320.590;  -66.400;    0.000;386.99000
 719.80;  326.210;  -60.320;    0.000;386.52999
 720.07;  318.140;  -63.050;    0.000;381.19001
 720.33;  320.110;  -49.840;    0.000;369.94999
 720.59;  323.210;  -54.840;    0.000;378.04999
 720.86;  310.220;  -73.400;    0.000;383.62000
 721.12;  314.210;  -54.650;    0.000;368.85999
 721.38;  322.060;  -55.690;    0.000;377.75000
 721.65;  306.920;  -54.520;    0.000;361.44001
 721.91;  320.650;  -52.450;    0.000;373.09999
 722.17;  292.040;  -76.730;    0.000;368.77001
 722.43;  316.910;  -49.480;    0.000;366.39000
 722.70;  296.670;  -65.770;    0.000;362.44001
 722.96;  315.710;  -53.300;    0.000;369.00999
 723.22;  302.370;  -73.430;    0.000;375.80000
 723.48;  313.690;  -56.180;    0.000;369.87000
 723.75;  294.330;  -67.640;    0.000;361.96999
 724.01;  301.140;  -55.620;    0.000;356.76001
 724.27;  288.580;  -67.820;    0.000;356.39999
 724.54;  294.950;  -47.620;    0.000;342.57001
 724.80;  303.870;  -66.900;    0.000;370.77000
 725.06;  300.950;  -58.380;    0.000;359.33001
 725.32;  305.960;  -52.140;    0.000;358.09999
 725.59;  302.410;  -63.950;    0.000;366.36000
 725.85;  286.630;  -72.120;    0.000;358.75001
 726.11;  293.840;  -55.390;    0.000;349.23000
 726.37;  297.530;  -64.820;    0.000;362.35000
 726.64;  316.120;  -37.500;    0.000;353.62000
 726.90;  298.210;  -56.310;    0.000;354.51999
 727.16;  299.210;  -54.440;    0.000;353.64999
 727.42;  281.270;  -60.840;    0.000;342.10999
 727.68;  295.500;  -53.090;    0.000;348.59000
 727.95;  279.610;  -76.660;    0.000;356.26999
 728.21;  300.890;  -49.790;    0.000;350.68002
 728.47;  285.410;  -58.260;    0.000;343.67000
 728.73;  307.850;  -45.620;    0.000;353.47001
 729.00;  277.950;  -57.750;    0.000;335.70001
 729.26;  295.020;  -46.240;    0.000;341.25999
 729.52;  269.630;  -69.960;    0.000;339.59000
 729.78;  288.210;  -58.640;    0.000;346.84999
 730.04;  280.140;  -58.120;    0.000;338.26001
 730.31;  277.440;  -64.750;    0.000;342.19000
 730.57;  260.580;  -66.880;    0.000;327.45998
 730.83;  272.750;  -59.830;    0.000;332.58000
 731.09;  291.240;  -55.260;    0.000;346.49999
 731.35;  280.980;  -58.140;    0.000;339.12001
 731.62;  257.110;  -73.940;    0.000;331.04999
 731.88;  275.200;  -62.720;    0.000;337.92001
 732.14;  267.170;  -57.910;    0.000;325.08001
 732.40;  274.450;  -69.570;    0.000;344.02001
 732.66;  265.980;  -59.720;    0.000;325.70001
 732.92;  256.300;  -69.610;    0.000;325.90999
 733.19;  253.320;  -64.460;    0.000;317.78001
 733.45;  268.810;  -53.510;    0.000;322.32000
 733.71;  249.610;  -62.160;    0.000;311.77000
 733.97;  296.880;  -25.260;    0.000;322.14001
 734.23;  249.840;  -66.750;    0.000;316.59000
 734.49;  260.780;  -64.230;    0.000;325.01000
 734.76;  247.490;  -58.640;    0.000;306.13000
 735.02;  264.610;  -59.310;    0.000;323.91999
 735.28;  255.370;  -55.300;    0.000;310.66999
 735.54;  245.840;  -60.740;    0.000;306.58000
 735.80;  238.630;  -72.340;    0.000;310.97000
 736.06;  249.430;  -54.220;    0.000;303.64999
 736.32;  232.220;  -66.000;    0.000;298.22000
 736.59;  237.450;  -71.880;    0.000;309.32999
 736.85;  233.690;  -57.030;    0.000;290.72000
 737.11;  232.060;  -64.070;    0.000;296.13000
 737.37;  226.630;  -76.050;    0.000;302.68001
 737.63;  235.280;  -66.390;    0.000;301.67000
 737.89;  230.180;  -57.810;    0.000;287.98999
 738.15;  239.580;  -49.020;    0.000;288.60000
 738.41;  222.190;  -71.740;    0.000;293.93000
 738.67;  223.050;  -53.450;    0.000;276.50000
 738.94;  209.040;  -73.730;    0.000;282.77000
 739.20;  215.790;  -71.160;    0.000;286.95000
 739.46;  228.300;  -57.050;    0.000;285.35000
 739.72;  207.120;  -73.350;    0.000;280.46999
 739.98;  202.880;  -62.480;    0.000;265.36000
 740.24;  207.750;  -56.860;    0.000;264.61000
 740.50;  209.780;  -57.360;    0.000;267.14000
 740.76;  203.670;  -68.690;    0.000;272.36000
 741.02;  201.640;  -70.870;    0.000;272.51000
 741.28;  198.590;  -58.510;    0.000;257.09999
 741.54;  204.470;  -53.990;    0.000;258.46000
 741.81;  207.940;  -55.250;    0.000;263.19000
 742.07;  182.570;  -66.200;    0.000;248.77000
 742.33;  194.180;  -48.910;    0.000;243.08999
 742.59;  190.270;  -60.130;    0.000;250.40001
 742.85;  194.400;  -55.100;    0.000;249.49999
 743.11;  163.190;  -76.530;    0.000;239.72000
 743.37;  189.450;  -61.350;    0.000;250.80000
 743.63;  165.550;  -75.800;    0.000;241.35001
 743.89;  182.250;  -59.440;    0.000;241.69000
 744.15;  165.720;  -62.650;    0.000;228.37000
 744.41;  173.230;  -58.030;    0.000;231.25999
 744.67;  165.870;  -64.390;    0.000;230.25999
 744.93;  166.940;  -60.990;    0.000;227.93000
 745.19;  151.380;  -66.920;    0.000;218.30000
 745.45;  162.500;  -67.110;    0.000;229.61000
 745.71;  158.700;  -63.100;    0.000;221.80000
 745.97;  168.910;  -58.360;    0.000;227.27000
 746.23;  144.550;  -65.530;    0.000;210.08000
 746.49;  148.870;  -58.960;    0.000;207.82999
 746.75;  153.580;  -62.950;    0.000;216.53000
 747.02;  146.710;  -69.200;    0.000;215.91000
 747.28;  136.890;  -75.780;    0.000;212.67000
 747.54;  141.340;  -59.290;    0.000;200.63000
 747.80;  136.730;  -66.430;    0.000;203.16000
 748.06;  138.170;  -64.430;    0.000;202.60000
 748.32;  135.460;  -68.280;    0.000;203.74001
 748.58;  141.910;  -56.410;    0.000;198.32000
 748.84;  135.880;  -60.900;    0.000;196.78001
 749.10;  221.640;   14.290;    0.000;207.35000
 749.36;  129.300;  -58.640;    0.000;187.94000
 749.62;  131.960;  -53.300;    0.000;185.26001
 749.88;  124.400;  -63.380;    0.000;187.78000
 750.14;  112.420;  -62.320;    0.000;174.74000
 750.40;  115.410;  -62.710;    0.000;178.12000
 750.66;  133.180;  -53.170;    0.000;186.34999
 750.91;  112.720;  -57.390;    0.000;170.11000
 751.17;  106.130;  -60.510;    0.000;166.64000
 751.43;  102.070;  -67.510;    0.000;169.58000
 751.69;  117.490;  -53.130;    0.000;170.62000
 751.95;  107.640;  -58.380;    0.000;166.02000
 752.21;  115.010;  -54.270;    0.000;169.28000
 752.47;  109.320;  -66.590;    0.000;175.91000
 752.73;  108.400;  -59.420;    0.000;167.82000
 752.99;   86.370;  -67.420;    0.000;153.79000
 753.25;   97.720;  -61.010;    0.000;158.73000
 753.51;   91.750;  -64.170;    0.000;155.92000
 753.77;   92.760;  -58.420;    0.000;151.18000
 754.03;   91.570;  -63.170;    0.000;154.74000
 754.29;   88.120;  -60.390;    0.000;148.51000
 754.55;   89.000;  -59.530;    0.000;148.53000
 754.81;   76.860;  -64.020;    0.000;140.88000
 755.07;   82.300;  -65.730;    0.000;148.03001
 755.33;   87.420;  -53.650;    0.000;141.07000
 755.59;   76.690;  -65.350;    0.000;142.04000
 755.85;   84.080;  -62.930;    0.000;147.01000
 756.10;   78.860;  -62.610;    0.000;141.47000
 756.36;   75.560;  -63.220;    0.000;138.78000
 756.62;   69.950;  -76.090;    0.000;146.03999
 756.88;   78.880;  -63.210;    0.000;142.09000
 757.14;   66.060;  -54.900;    0.000;120.96000
 757.40;   75.930;  -58.450;    0.000;134.38000
 757.66;   72.820;  -52.890;    0.000;125.71000
 757.92;   66.680;  -53.070;    0.000;119.75000
 758.18;   64.640;  -70.780;    0.000;135.42000
 758.44;   69.020;  -61.350;    0.000;130.37000
 758.70;   61.450;  -62.310;    0.000;123.76000
 758.95;   69.200;  -55.510;    0.000;124.71000
 759.21;   49.120;  -71.730;    0.000;120.85000
 759.47;   73.490;  -55.090;    0.000;128.58000
 759.73;   50.900;  -66.680;    0.000;117.58000
 759.99;   58.070;  -65.250;    0.000;123.32000
 760.25;   47.250;  -76.330;    0.000;123.58000
 760.51;   51.390;  -66.640;    0.000;118.03000
 760.77;   44.990;  -62.640;    0.000;107.63000
 761.02;   60.700;  -55.290;    0.000;115.99000
 761.28;   47.200;  -72.630;    0.000;119.83000
 761.54;   55.880;  -59.090;    0.000;114.97000
 761.80;   38.270;  -67.640;    0.000;105.91000
 762.06;   64.030;  -50.180;    0.000;114.21000
 762.32;   33.120;  -79.560;    0.000;112.68000
 762.58;   41.820;  -63.330;    0.000;105.15000
 762.83;   54.270;  -60.260;    0.000;114.53000
 763.09;   48.660;  -60.390;    0.000;109.05000
 763.35;   37.750;  -70.560;    0.000;108.31000
 763.61;   47.940;  -54.640;    0.000;102.58000
 763.87;   58.500;  -50.690;    0.000;109.19000
 764.13;   42.120;  -61.450;    0.000;103.57000
 764.38;   32.320;  -65.440;    0.000;97.76000
 764.64;   31.900;  -69.840;    0.000;101.74000
 764.90;   41.550;  -70.080;    0.000;111.63000
 765.16;   46.500;  -56.430;    0.000;102.93000
 765.42;   32.790;  -72.650;    0.000;105.44000
 765.68;   39.730;  -70.250;    0.000;109.98000
 765.93;   26.730;  -73.680;    0.000;100.41000
 766.19;   49.390;  -50.430;    0.000;99.82000
 766.45;   22.030;  -71.110;    0.000;93.14000
 766.71;   38.590;  -54.730;    0.000;93.32000
 766.97;   34.820;  -68.930;    0.000;103.75000
 767.22;   35.550;  -59.260;    0.000;94.81000
 767.48;   17.420;  -71.090;    0.000;88.51000
 767.74;   32.570;  -61.560;    0.000;94.13000
 768.00;   20.890;  -77.530;    0.000;98.42000
 768.26;   29.750;  -62.040;    0.000;91.79000
 768.51;   26.090;  -60.300;    0.000;86.39000
 768.77;   45.260;  -47.940;    0.000;93.20000
 769.03;   19.300;  -78.410;    0.000;97.71000
 769.29;   21.330;  -71.790;    0.000;93.12000
 769.54;   14.650;  -73.200;    0.000;87.85000
 769.80;   21.730;  -67.540;    0.000;89.27000
 770.06;   16.150;  -74.660;    0.000;90.81000
 770.32;   18.520;  -76.440;    0.000;94.96000
 770.57;    7.120;  -80.070;    0.000;87.19000
 770.83;   20.580;  -63.860;    0.000;84.44000
 771.09;   12.280;  -69.770;    0.000;82.05000
 771.35;   16.260;  -65.060;    0.000;81.32000
 771.61;   16.160;  -76.250;    0.000;92.41000
 771.86;   18.640;  -52.550;    0.000;71.19000
 772.12;    0.350;  -82.060;    0.000;82.41000
 772.38;   18.120;  -70.920;    0.000;89.04000
 772.63;   24.400;  -70.280;    0.000;94.68000
 772.89;   22.020;  -67.220;    0.000;89.24000
 773.15;    3.880;  -70.020;    0.000;73.90000
 773.41;   21.370;  -75.520;    0.000;96.89000
 773.66;    9.010;  -64.250;    0.000;73.26000
 773.92;   20.330;  -62.320;    0.000;82.65000
 774.18;   24.490;  -60.500;    0.000;84.99000
 774.44;    3.610;  -69.740;    0.000;73.35000
 774.69;   16.420;  -66.950;    0.000;83.37000
 774.95;   14.220;  -61.260;    0.000;75.48000
 775.21;   23.100;  -56.740;    0.000;79.84000
 775.46;    3.090;  -71.760;    0.000;74.85000
 775.72;    3.590;  -74.010;    0.000;77.60000
 775.98;   11.170;  -57.630;    0.000;68.80000
 776.24;    0.000;  -78.090;    0.000;78.09000
 776.49;    8.830;  -65.450;    0.000;74.28000
 776.75;    6.130;  -70.010;    0.000;76.14000
 777.01;    3.060;  -73.480;    0.000;76.54000
 777.26;    9.870;  -53.890;    0.000;63.76000
 777.52;    2.660;  -58.810;    0.000;61.47000
 777.78;   -0.660;  -72.700;    0.000;72.04000
 778.03;   10.700;  -56.180;    0.000;66.88000
 778.29;    3.630;  -65.510;    0.000;69.14000
 778.55;    9.790;  -64.990;    0.000;74.78000
 778.80;   -4.670;  -66.480;    0.000;61.81000
 779.06;    1.890;  -72.690;    0.000;74.58000
 779.32;   -2.460;  -76.670;    0.000;74.21000
 779.57;   -5.370;  -67.570;    0.000;62.20000
 779.83;   -2.690;  -69.500;    0.000;66.81000
 780.09;   -3.180;  -65.320;    0.000;62.14000
 780.34;   -3.240;  -69.050;    0.000;65.81000
 780.60;   13.730;  -54.350;    0.000;68.08000
 780.86;    1.440;  -70.540;    0.000;71.98000
 781.11;    1.710;  -60.140;    0.000;61.85000
 781.37;   -8.340;  -89.190;    0.000;80.85000
 781.63;   15.130;  -53.500;    0.000;68.63000
 781.88;  -14.620;  -75.250;    0.000;60.63000
 782.14;   -0.340;  -65.990;    0.000;65.65000
 782.39;   -2.970;  -73.460;    0.000;70.49000
 782.65;    3.360;  -67.340;    0.000;70.70000
 782.91;    3.670;  -61.740;    0.000;65.41000
 783.16;   -6.610;  -64.430;    0.000;57.82000
 783.42;  -16.850;  -78.900;    0.000;62.05000
 783.67;    4.530;  -60.080;    0.000;64.61000
 783.93;  -17.340;  -75.140;    0.000;57.80000
 784.19;   -6.030;  -63.580;    0.000;57.55000
 784.44;    0.060;  -59.560;    0.000;59.62000
 784.70;    3.860;  -51.310;    0.000;55.17000
 784.96;  -19.260;  -79.860;    0.000;60.60000
 785.21;  -15.580;  -67.680;    0.000;52.10000
 785.47;    0.690;  -48.970;    0.000;49.66000
 785.72;  -11.520;  -76.220;    0.000;64.70000
 785.98;  -22.340;  -73.540;    0.000;51.20000
 786.23;   -8.660;  -71.420;    0.000;62.76000
 786.49;  -23.550;  -76.000;    0.000;52.45000
 786.75;   -9.210;  -71.520;    0.000;62.31000
 787.00;  -23.200;  -75.060;    0.000;51.86000
 787.26;  -15.330;  -65.970;    0.000;50.64000
 787.51;  -10.040;  -71.990;    0.000;61.95000
 787.77;   -1.540;  -54.030;    0.000;52.49000
 788.02;    3.050;  -61.800;    0.000;64.85000
 788.28;  -11.940;  -70.640;    0.000;58.70000
 788.54;  -17.720;  -63.910;    0.000;46.19000
 788.79;   -2.660;  -58.120;    0.000;55.46000
 789.05;  -23.960;  -77.260;    0.000;53.30000
 789.30;  -16.700;  -63.070;    0.000;46.37000
 789.56;  -27.360;  -83.770;    0.000;56.41000
 789.81;  -19.960;  -70.330;    0.000;50.37000
 790.07;  -23.280;  -76.840;    0.000;53.56000
 790.32;  -19.200;  -67.480;    0.000;48.28000
 790.58;  -27.400;  -76.340;    0.000;48.94000
 790.83;  -21.540;  -66.550;    0.000;45.01000
 791.09;  -26.340;  -80.200;    0.000;53.86000
 791.35;  -27.960;  -74.470;    0.000;46.51000
 791.60;  -29.430;  -88.380;    0.000;58.95000
 791.86;  -17.530;  -60.380;    0.000;42.85000
 792.11;  -25.320;  -63.000;    0.000;37.68000
 792.37;  -20.210;  -71.430;    0.000;51.22000
 792.62;  -17.635;  -70.745;    0.000;53.11000
 792.88;  -15.060;  -70.060;    0.000;55.00000
 793.13;  -36.140;  -70.130;    0.000;33.99000
 793.39;  -24.900;  -73.500;    0.000;48.60000
 793.64;  -29.070;  -78.890;    0.000;49.82000
 793.90;  -20.480;  -64.800;    0.000;44.32000
 794.15;  -16.610;  -62.780;    0.000;46.17000
 794.41;  -17.110;  -61.310;    0.000;44.20000
 794.66;  -20.810;  -62.340;    0.000;41.53000
 794.92;  -26.480;  -63.470;    0.000;36.99000
 795.17;  -30.770;  -78.030;    0.000;47.26000
 795.43;  -36.300;  -81.320;    0.000;45.02000
 795.68;  -21.590;  -65.590;    0.000;44.00000
 795.94;  -14.360;  -63.900;    0.000;49.54000
 796.19;  -26.110;  -67.970;    0.000;41.86000
 796.44;  -21.600;  -76.220;    0.000;54.62000
 796.70;  -20.730;  -65.720;    0.000;44.99000
 796.95;  -15.000;  -54.340;    0.000;39.34000
 797.21;  -40.060;  -80.910;    0.000;40.85000
 797.46;  -31.030;  -78.690;    0.000;47.66000
 797.72;  -35.770;  -82.870;    0.000;47.10000
 797.97;  -32.980;  -82.520;    0.000;49.54000
 798.23;  -37.070;  -76.920;    0.000;39.85000
 798.48;  -19.700;  -63.290;    0.000;43.59000
 798.74;  -29.660;  -71.360;    0.000;41.70000
 798.99;  -29.530;  -74.330;    0.000;44.80000
 799.24;  -31.020;  -71.830;    0.000;40.81000
 799.50;  -24.000;  -63.300;    0.000;39.30000
 799.75;  -30.380;  -68.600;    0.000;38.22000
 800.01;  -43.520;  -68.250;    0.000;24.73000
 800.26;  -43.460;  -80.860;    0.000;37.40000
 800.52;  -33.770;  -72.700;    0.000;38.93000
 800.77;  -42.530;  -78.340;    0.000;35.81000
 801.02;  -37.650;  -78.570;    0.000;40.92000
 801.28;  -40.680;  -84.840;    0.000;44.16000
 801.53;  -29.270;  -60.400;    0.000;31.13000
 801.79;  -34.900;  -67.370;    0.000;32.47000
 802.04;  -33.070;  -68.440;    0.000;35.37000
 802.29;  -44.780;  -75.880;    0.000;31.10000
 802.55;  -30.770;  -61.940;    0.000;31.17000
 802.80;  -33.770;  -70.790;    0.000;37.02000
 803.06;  -27.640;  -66.900;    0.000;39.26000
 803.31;  -41.320;  -70.290;    0.000;28.97000
 803.56;  -29.820;  -66.680;    0.000;36.86000
 803.82;  -45.910;  -76.730;    0.000;30.82000
 804.07;  -34.710;  -70.630;    0.000;35.92000
 804.32;  -38.510;  -78.040;    0.000;39.53000
 804.58;  -36.180;  -75.000;    0.000;38.82000
 804.83;  -37.430;  -76.500;    0.000;39.07000
 805.09;  -37.260;  -63.990;    0.000;26.73000
 805.34;  -44.120;  -69.630;    0.000;25.51000
 805.59;  -28.720;  -58.930;    0.000;30.21000
 805.85;  -45.170;  -80.680;    0.000;35.51000
 806.10;  -31.430;  -65.530;    0.000;34.10000
 806.35;  -33.000;  -67.770;    0.000;34.77000
 806.61;  -32.650;  -75.980;    0.000;43.33000
 806.86;  -44.620;  -79.500;    0.000;34.88000
 807.11;  -28.340;  -62.610;    0.000;34.27000
 807.37;  -24.800;  -56.160;    0.000;31.36000
 807.62;  -41.370;  -77.550;    0.000;36.18000
 807.87;  -39.760;  -71.820;    0.000;32.06000
 808.13;  -42.070;  -73.880;    0.000;31.81000
 808.38;  -41.130;  -72.370;    0.000;31.24000
 808.63;  -32.700;  -66.890;    0.000;34.19000
 808.89;  -49.440;  -81.230;    0.000;31.79000
 809.14;  -36.490;  -74.120;    0.000;37.63000
 809.39;  -45.620;  -88.710;    0.000;43.09000
 809.65;  -44.690;  -69.050;    0.000;24.36000
 809.90;  -42.320;  -83.440;    0.000;41.12000
 810.15;  -40.870;  -78.660;    0.000;37.79000
 810.41;  -38.750;  -68.470;    0.000;29.72000
 810.66;  -36.990;  -70.200;    0.000;33.21000
 810.91;  -45.230;  -69.770;    0.000;24.54000
 811.16;  -42.170;  -74.940;    0.000;32.77000
 811.42;  -45.400;  -71.010;    0.000;25.61000
 811.67;  -43.050;  -72.410;    0.000;29.36000
 811.92;  -53.990;  -82.960;    0.000;28.97000
 812.18;  -36.980;  -69.050;    0.000;32.07000
 812.43;  -56.000;  -77.030;    0.000;21.03000
 812.68;  -36.480;  -69.130;    0.000;32.65000
 812.93;  -47.540;  -81.060;    0.000;33.52000
 813.19;  -36.770;  -57.500;    0.000;20.73000
 813.44;  -55.010;  -78.150;    0.000;23.14000
 813.69;  -30.010;  -60.290;    0.000;30.28000
 813.95;  -47.430;  -72.300;    0.000;24.87000
 814.20;  -41.820;  -69.340;    0.000;27.52000
 814.45;  -51.660;  -82.170;    0.000;30.51000
 814.70;  -31.340;  -61.380;    0.000;30.04000
 814.96;  -53.730;  -78.600;    0.000;24.87000
 815.21;  -40.510;  -69.070;    0.000;28.56000
 815.46;  -50.520;  -77.560;    0.000;27.04000
 815.71;  -35.410;  -70.640;    0.000;35.23000
 815.96;  -47.510;  -73.920;    0.000;26.41000
 816.22;  -48.090;  -75.550;    0.000;27.46000
 816.47;  -50.210;  -75.610;    0.000;25.40000
 816.72;  -45.960;  -64.380;    0.000;18.42000
 816.97;  -45.840;  -69.030;    0.000;23.19000
 817.23;  -32.320;  -58.770;    0.000;26.45000
 817.48;  -42.370;  -72.640;    0.000;30.27000
 817.73;  -51.060;  -68.910;    0.000;17.85000
 817.98;  -41.180;  -62.500;    0.000;21.32000
 818.23;  -42.550;  -69.600;    0.000;27.05000
 818.49;  -45.050;  -82.830;    0.000;37.78000
 818.74;  -29.910;  -63.160;    0.000;33.25000
 818.99;  -49.660;  -76.980;    0.000;27.32000
 819.24;  -31.850;  -56.900;    0.000;25.05000
 819.50;  -56.190;  -85.700;    0.000;29.51000
 819.75;  -37.750;  -58.460;    0.000;20.71000
 820.00;  -24.600;  -51.580;    0.000;26.98000
 820.25;  -44.730;  -76.950;    0.000;32.22000
 820.50;  -55.920;  -76.040;    0.000;20.12000
 820.75;  -36.850;  -58.290;    0.000;21.44000
 821.01;  -54.230;  -72.980;    0.000;18.75000
 821.26;  -48.540;  -61.870;    0.000;13.33000
 821.51;  -48.390;  -75.230;    0.000;26.84000
 821.76;  -49.290;  -74.500;    0.000;25.21000
 822.01;  -44.610;  -69.050;    0.000;24.44000
 822.26;  -42.250;  -75.290;    0.000;33.04000
 822.52;  -44.800;  -75.780;    0.000;30.98000
 822.77;  -50.370;  -73.230;    0.000;22.86000
 823.02;  -57.260;  -82.200;    0.000;24.94000
 823.27;  -52.160;  -74.650;    0.000;22.49000
 823.52;  -54.110;  -83.590;    0.000;29.48000
 823.77;  -45.820;  -71.930;    0.000;26.11000
 824.03;  -46.020;  -66.100;    0.000;20.08000
 824.28;  -52.230;  -73.830;    0.000;21.60000
 824.53;  -53.240;  -76.580;    0.000;23.34000
 824.78;  -47.940;  -73.800;    0.000;25.86000
 825.03;  -58.170;  -81.540;    0.000;23.37000
 825.28;  -52.770;  -77.210;    0.000;24.44000
 825.53;  -49.520;  -74.480;    0.000;24.96000
 825.78;  -34.340;  -64.840;    0.000;30.50000
 826.04;  -50.000;  -71.720;    0.000;21.72000
 826.29;  -45.990;  -69.860;    0.000;23.87000
 826.54;  -53.510;  -78.410;    0.000;24.90001
 826.79;  -33.420;  -73.020;    0.000;39.60000
 827.04;  -57.870;  -84.000;    0.000;26.13000
 827.29;  -43.100;  -74.210;    0.000;31.11000
 827.54;  -52.200;  -73.620;    0.000;21.42000
 827.79;  -50.040;  -70.830;    0.000;20.79000
 828.04;  -44.980;  -72.100;    0.000;27.12000
 828.29;  -45.820;  -67.810;    0.000;21.99000
 828.55;  -56.980;  -72.130;    0.000;15.15000
 828.80;  -45.480;  -71.180;    0.000;25.70000
 829.05;  -55.590;  -70.120;    0.000;14.53000
 829.30;  -57.140;  -79.380;    0.000;22.24000
 829.55;  -49.950;  -77.730;    0.000;27.78000
 829.80;  -45.120;  -69.970;    0.000;24.85000
 830.05;  -61.650;  -71.210;    0.000; 9.56000
 830.30;  -53.820;  -74.490;    0.000;20.67000
 830.55;  -52.710;  -73.870;    0.000;21.16000
 830.80;  -53.190;  -72.120;    0.000;18.93000
 831.05;  -47.510;  -73.240;    0.000;25.73000
 831.30;  -34.670;  -61.610;    0.000;26.94000
 831.55;  -49.140;  -72.070;    0.000;22.93000
 831.80;  -48.990;  -76.090;    0.000;27.09999
 832.05;  -54.080;  -72.350;    0.000;18.27000
 832.30;  -40.120;  -56.990;    0.000;16.87000
 832.56;  -55.650;  -74.880;    0.000;19.23000
 832.81;  -56.710;  -81.530;    0.000;24.82000
 833.06;  -49.370;  -70.100;    0.000;20.73000
 833.31;  -56.430;  -72.540;    0.000;16.11000
 833.56;  -50.850;  -79.370;    0.000;28.52000
 833.81;  -49.800;  -71.960;    0.000;22.16000
 834.06;  -50.070;  -76.960;    0.000;26.89000
 834.31;  -52.420;  -78.130;    0.000;25.71000
 834.56;  -52.660;  -66.970;    0.000;14.31000
 834.81;  -59.840;  -83.940;    0.000;24.10000
 835.06;  -62.360;  -84.050;    0.000;21.69000
 835.31;  -48.930;  -64.180;    0.000;15.25000
 835.56;  -49.720;  -70.370;    0.000;20.65000
 835.81;  -47.210;  -67.350;    0.000;20.14000
 836.06;  -46.600;  -63.940;    0.000;17.34000
 836.31;  -60.360;  -73.980;    0.000;13.62000
 836.56;  -57.260;  -79.330;    0.000;22.07000
 836.81;  -53.640;  -71.010;    0.000;17.37000
 837.06;  -56.400;  -63.870;    0.000; 7.47000
 837.31;  -59.240;  -74.940;    0.000;15.70000
 837.56;  -62.960;  -88.560;    0.000;25.60000
 837.81;  -51.480;  -68.370;    0.000;16.89000
 838.06;  -53.610;  -79.050;    0.000;25.44000
 838.31;  -63.110;  -77.890;    0.000;14.78000
 838.56;  -70.200;  -87.890;    0.000;17.69000
 838.80;  -59.060;  -74.450;    0.000;15.39000
 839.05;  -57.330;  -72.720;    0.000;15.39000
 839.30;  -66.950;  -81.530;    0.000;14.58000
 839.55;  -59.450;  -74.880;    0.000;15.43000
 839.80;  -50.210;  -72.710;    0.000;22.50000
 840.05;  -62.990;  -77.730;    0.000;14.74000
 840.30;  -44.310;  -62.950;    0.000;18.64000
 840.55;  -61.910;  -77.380;    0.000;15.47000
 840.80;  -46.910;  -60.500;    0.000;13.59000
 841.05;  -51.090;  -77.450;    0.000;26.36000
 841.30;  -45.110;  -64.750;    0.000;19.64000
 841.55;  -60.940;  -82.380;    0.000;21.44000
 841.80;  -61.480;  -80.340;    0.000;18.86000
 842.05;  -74.460;  -93.420;    0.000;18.96000
 842.30;  -53.940;  -72.220;    0.000;18.28000
 842.55;  -52.770;  -72.190;    0.000;19.42000
 842.79;  -64.080;  -78.840;    0.000;14.75999
 843.04;  -50.570;  -63.610;    0.000;13.04000
 843.29;  -54.600;  -70.050;    0.000;15.45000
 843.54;  -46.880;  -72.130;    0.000;25.25000
 843.79;  -54.030;  -77.040;    0.000;23.01000
 844.04;  -53.550;  -74.220;    0.000;20.67000
 844.29;  -58.650;  -71.690;    0.000;13.04000
 844.54;  -62.790;  -78.650;    0.000;15.86000
 844.79;  -51.710;  -76.030;    0.000;24.32000
 845.04;  -55.920;  -70.190;    0.000;14.27000
 845.28;  -55.740;  -74.780;    0.000;19.04000
 845.53;  -61.310;  -75.020;    0.000;13.71000
 845.78;  -42.180;  -59.080;    0.000;16.90000
 846.03;  -65.550;  -74.510;    0.000; 8.96000
 846.28;  -51.920;  -70.160;    0.000;18.24001
 846.53;  -47.830;  -58.960;    0.000;11.13000
 846.78;  -48.920;  -73.040;    0.000;24.12000
 847.02;  -45.100;  -58.760;    0.000;13.66000
 847.27;  -53.650;  -67.500;    0.000;13.85000
 847.52;  -65.940;  -80.170;    0.000;14.23000
 847.77;  -52.160;  -75.890;    0.000;23.73000
 848.02;  -61.380;  -79.510;    0.000;18.13000
 848.27;  -51.820;  -72.730;    0.000;20.91000
 848.52;  -59.160;  -80.850;    0.000;21.69000
 848.76;  -50.890;  -60.510;    0.000; 9.62000
 849.01;  -61.310;  -78.490;    0.000;17.18000
 849.26;  -56.340;  -76.380;    0.000;20.04000
 849.51;  -51.980;  -72.410;    0.000;20.43000
 849.76;  -62.690;  -75.550;    0.000;12.86000
 850.01;  -69.250;  -83.570;    0.000;14.32000
 850.25;  -58.540;  -69.620;    0.000;11.08000
 850.50;  -70.040;  -82.060;    0.000;12.02000
 850.75;  -63.790;  -65.940;    0.000; 2.15000
 851.00;  -60.670;  -76.370;    0.000;15.70000
 851.25;  -59.140;  -68.640;    0.000; 9.50000
 851.49;  -68.940;  -80.630;    0.000;11.68999
 851.74;  -63.210;  -74.970;    0.000;11.76000
 851.99;  -57.220;  -73.100;    0.000;15.88000
 852.24;  -62.470;  -77.500;    0.000;15.03000
 852.49;  -69.170;  -79.380;    0.000;10.21000
 852.73;  -60.420;  -78.890;    0.000;18.47000
 852.98;  -67.290;  -74.210;    0.000; 6.92000
 853.23;  -58.060;  -76.100;    0.000;18.04000
 853.48;  -74.160;  -81.410;    0.000; 7.25000
 853.73;  -62.040;  -76.970;    0.000;14.93000
 853.97;  -64.970;  -75.100;    0.000;10.13000
 854.22;  -66.690;  -76.230;    0.000; 9.54000
 854.47;  -70.780;  -82.400;    0.000;11.62000
 854.72;  -58.920;  -68.920;    0.000;10.00000
 854.96;  -73.160;  -78.580;    0.000; 5.42000
 855.21;  -51.040;  -71.010;    0.000;19.97000
 855.46;  -41.640;  -59.170;    0.000;17.53000
 855.71;  -72.320;  -85.800;    0.000;13.48000
 855.95;  -60.580;  -74.110;    0.000;13.53000
 856.20;  -60.920;  -72.760;    0.000;11.84000
 856.45;  -67.620;  -85.610;    0.000;17.99000
 856.70;  -65.740;  -70.870;    0.000; 5.13000
 856.94;  -76.040;  -79.390;    0.000; 3.35000
 857.19;  -52.940;  -64.950;    0.000;12.01000
 857.44;  -64.890;  -74.140;    0.000; 9.25000
 857.69;  -63.050;  -74.080;    0.000;11.03000
 857.93;  -61.230;  -72.170;    0.000;10.94000
 858.18;  -54.080;  -65.400;    0.000;11.32000
 858.43;  -63.610;  -74.950;    0.000;11.34000
 858.67;  -45.770;  -62.950;    0.000;17.18000
 858.92;  -65.010;  -76.360;    0.000;11.35000
 859.17;  -18.370;  -54.150;    0.000;35.78000
 859.42;  -67.940;  -78.880;    0.000;10.93999
 859.66;  -60.630;  -79.670;    0.000;19.04000
 859.91;  -70.290;  -75.430;    0.000; 5.14000
 860.16;  -68.910;  -85.150;    0.000;16.24000
 860.40;  -59.600;  -73.870;    0.000;14.27000
 860.65;  -70.300;  -76.580;    0.000; 6.28000
 860.90;  -70.870;  -87.770;    0.000;16.89999
 861.14;  -56.780;  -79.050;    0.000;22.27000
 861.39;  -64.710;  -79.040;    0.000;14.33000
 861.64;  -57.960;  -69.400;    0.000;11.44000
 861.88;  -71.470;  -85.710;    0.000;14.24000
 862.13;  -61.400;  -71.250;    0.000; 9.85000
 862.38;  -75.330;  -85.130;    0.000; 9.80000
 862.62;  -58.260;  -73.110;    0.000;14.85000
 862.87;  -59.720;  -74.050;    0.000;14.33000
 863.12;  -69.950;  -85.480;    0.000;15.53001
 863.36;  -67.140;  -77.780;    0.000;10.64000
 863.61;  -61.710;  -70.330;    0.000; 8.62000
 863.86;  -59.730;  -83.090;    0.000;23.36000
 864.10;  -69.080;  -74.370;    0.000; 5.29000
 864.35;  -60.660;  -78.440;    0.000;17.78000
 864.60;  -63.740;  -76.350;    0.000;12.61000
 864.84;  -73.460;  -78.230;    0.000; 4.77000
 865.09;  -56.880;  -66.680;    0.000; 9.80000
 865.33;  -65.910;  -82.700;    0.000;16.78999
 865.58;  -52.150;  -67.180;    0.000;15.03000
 865.83;  -70.360;  -80.080;    0.000; 9.72000
 866.07;  -70.410;  -81.320;    0.000;10.91000
 866.32;  -41.470;  -54.500;    0.000;13.03000
 866.57;  -51.960;  -70.470;    0.000;18.51000
 866.81;  -75.200;  -82.540;    0.000; 7.34000
 867.06;  -66.630;  -77.360;    0.000;10.73000
 867.30;  -72.260;  -83.760;    0.000;11.50000
 867.55;  -66.170;  -80.860;    0.000;14.69000
 867.80;  -59.760;  -70.830;    0.000;11.07000
 868.04;  -68.810;  -70.790;    0.000; 1.98000
 868.29;  -73.250;  -74.480;    0.000; 1.23000
 868.53;  -56.460;  -69.440;    0.000;12.98000
 868.78;  -77.510;  -84.070;    0.000; 6.56000
 869.03;  -57.450;  -68.510;    0.000;11.06000
 869.27;  -65.990;  -77.050;    0.000;11.06001
 869.52;  -66.280;  -83.420;    0.000;17.14000
 869.76;  -64.020;  -67.410;    0.000; 3.39001
 870.01;  -57.430;  -67.550;    0.000;10.12000
 870.25;  -59.550;  -65.140;    0.000; 5.59000
 870.50;  -57.780;  -70.290;    0.000;12.51000
 870.75;  -63.600;  -82.930;    0.000;19.33000
 870.99;  -60.070;  -70.660;    0.000;10.59000
 871.24;  -67.650;  -80.160;    0.000;12.51000
 871.48;  -62.340;  -69.890;    0.000; 7.55000
 871.73;  -68.510;  -75.060;    0.000; 6.55000
 871.97;  -74.540;  -77.380;    0.000; 2.84000
 872.22;  -62.900;  -80.500;    0.000;17.60000
 872.46;  -54.500;  -68.790;    0.000;14.29000
 872.71;  -77.070;  -83.910;    0.000; 6.84000
 872.95;  -60.130;  -67.870;    0.000; 7.74000
 873.20;  -61.100;  -72.490;    0.000;11.39000
 873.44;  -57.670;  -65.600;    0.000; 7.93000
 873.69;  -75.950;  -86.780;    0.000;10.83000
 873.94;  -48.240;  -68.320;    0.000;20.08000
 874.18;  -74.030;  -81.740;    0.000; 7.71000
 874.43;  -62.080;  -78.500;    0.000;16.42000
 874.67;  -60.940;  -79.530;    0.000;18.59000
 874.92;  -53.470;  -61.980;    0.000; 8.51000
 875.16;  -59.080;  -71.600;    0.000;12.52000
 875.41;  -68.380;  -74.550;    0.000; 6.17001
 875.65;  -65.340;  -72.820;    0.000; 7.48000
 875.90;  -52.340;  -57.710;    0.000; 5.37000
 876.14;  -76.100;  -85.280;    0.000; 9.18000
 876.39;  -65.780;  -68.330;    0.000; 2.55000
 876.63;  -74.020;  -80.430;    0.000; 6.41000
 876.88;  -71.020;  -67.830;    0.000;-3.18999
 877.12;  -67.590;  -78.920;    0.000;11.33000
 877.36;  -66.330;  -70.470;    0.000; 4.14000
 877.61;  -70.950;  -72.490;    0.000; 1.54000
 877.85;  -65.510;  -67.300;    0.000; 1.79000
 878.10;  -68.320;  -68.070;    0.000;-0.25000
 878.34;  -60.210;  -65.220;    0.000; 5.01000
 878.59;  -63.730;  -74.140;    0.000;10.41000
 878.83;  -62.940;  -77.480;    0.000;14.54000
 879.08;  -60.350;  -71.810;    0.000;11.46000
 879.32;  -63.500;  -75.140;    0.000;11.64000
 879.57;  -46.950;  -61.580;    0.000;14.63000
 879.81;  -63.850;  -78.450;    0.000;14.60000
 880.05;  -64.350;  -62.330;    0.000;-2.02000
 880.30;  -60.820;  -69.030;    0.000; 8.21000
 880.54;  -65.510;  -74.620;    0.000; 9.11000
 880.79;  -65.560;  -74.890;    0.000; 9.33000
 881.03;  -62.780;  -76.740;    0.000;13.96000
 881.28;  -53.400;  -61.820;    0.000; 8.42000
 881.52;  -74.250;  -78.630;    0.000; 4.38000
 881.76;  -63.720;  -63.620;    0.000;-0.10000
 882.01;  -65.350;  -70.160;    0.000; 4.81001
 882.25;  -68.440;  -70.020;    0.000; 1.57999
 882.50;  -69.480;  -76.690;    0.000; 7.21000
 882.74;  -54.410;  -58.310;    0.000; 3.90000
 882.98;  -63.220;  -71.460;    0.000; 8.24000
 883.23;  -62.200;  -72.830;    0.000;10.63000
 883.47;  -60.340;  -64.540;    0.000; 4.20000
 883.72;  -59.260;  -63.640;    0.000; 4.38000
 883.96;  -56.410;  -69.160;    0.000;12.75000
 884.20;  -57.220;  -72.280;    0.000;15.06000
 884.45;  -65.210;  -69.830;    0.000; 4.62000
 884.69;  -50.130;  -54.450;    0.000; 4.32000
 884.94;  -49.640;  -57.560;    0.000; 7.92000
 885.18;  -60.720;  -68.170;    0.000; 7.45000
 885.42;  -62.160;  -70.470;    0.000; 8.31000
 885.67;  -51.850;  -65.500;    0.000;13.65000
 885.91;  -69.230;  -76.290;    0.000; 7.06000
 886.15;  -58.970;  -70.610;    0.000;11.64000
 886.40;  -62.990;  -66.170;    0.000; 3.18000
 886.64;  -63.010;  -68.810;    0.000; 5.80000
 886.88;  -68.860;  -75.520;    0.000; 6.66000
 887.13;  -42.460;  -61.410;    0.000;18.95000
 887.37;  -65.380;  -76.880;    0.000;11.50000
 887.62;  -47.810;  -56.020;    0.000; 8.21000
 887.86;  -54.990;  -70.890;    0.000;15.90000
 888.10;  -54.380;  -64.840;    0.000;10.46000
 888.35;  -57.670;  -61.600;    0.000; 3.93000
 888.59;  -53.980;  -64.870;    0.000;10.89000
 888.83;  -55.540;  -68.950;    0.000;13.41000
 889.07;  -49.640;  -59.470;    0.000; 9.83000
 889.32;  -57.120;  -70.170;    0.000;13.05000
 889.56;  -52.820;  -62.350;    0.000; 9.53000
 889.80;  -56.480;  -60.710;    0.000; 4.23000
 890.05;  -61.820;  -57.640;    0.000;-4.18000
 890.29;  -54.690;  -66.700;    0.000;12.01000
 890.53;  -49.190;  -66.790;    0.000;17.60000
 890.78;  -63.200;  -62.500;    0.000;-0.70000
 891.02;  -44.710;  -56.430;    0.000;11.72000
 891.26;  -68.540;  -68.100;    0.000;-0.44000
 891.51;  -48.370;  -54.610;    0.000; 6.24000
 891.75;  -47.130;  -53.430;    0.000; 6.30000
 891.99;  -60.520;  -66.610;    0.000; 6.09000
 892.23;  -63.840;  -69.110;    0.000; 5.27000
 892.48;  -41.750;  -50.770;    0.000; 9.02000
 892.72;  -56.320;  -55.570;    0.000;-0.75000
 892.96;  -44.130;  -53.150;    0.000; 9.02000
 893.20;  -59.800;  -64.400;    0.000; 4.60000
 893.45;  -61.380;  -60.030;    0.000;-1.35000
 893.69;  -58.610;  -62.920;    0.000; 4.31000
 893.93;  -37.970;  -48.190;    0.000;10.22000
 894.17;  -46.550;  -57.110;    0.000;10.56000
 894.42;  -43.690;  -58.560;    0.000;14.87000
 894.66;  -39.590;  -56.160;    0.000;16.57000
 894.90;  -37.280;  -44.390;    0.000; 7.11000
 895.14;  -55.790;  -54.700;    0.000;-1.09000
 895.39;  -51.580;  -54.160;    0.000; 2.58000
 895.63;  -39.620;  -46.130;    0.000; 6.51000
 895.87;  -53.190;  -45.090;    0.000;-8.10000
 896.11;  -44.530;  -47.000;    0.000; 2.47000
 896.36;  -28.800;  -40.580;    0.000;11.78000
 896.60;  -55.560;  -64.630;    0.000; 9.07000
 896.84;  -22.450;  -34.960;    0.000;12.51000
 897.08;  -26.490;  -41.800;    0.000;15.31000
 897.32;  -32.480;  -37.560;    0.000; 5.08000
 897.57;  -23.180;  -42.160;    0.000;18.98000
 897.81;  -48.540;  -39.390;    0.000;-9.15000
 898.05;  -34.070;  -41.300;    0.000; 7.23000
 898.29;  -18.190;  -35.390;    0.000;17.20000
 898.53;  -34.240;  -37.290;    0.000; 3.05000
 898.78;  -24.240;  -33.330;    0.000; 9.09000
 899.02;  -27.050;  -30.870;    0.000; 3.82000
 899.26;  -15.910;  -20.780;    0.000; 4.87000
 899.50;    0.520;  -10.960;    0.000;11.48000
 899.74;  -17.820;  -25.610;    0.000; 7.79000
 899.99;  -13.370;  -21.070;    0.000; 7.70000
 900.23;   -5.610;    2.230;    0.000;-7.84000
 900.47;  -16.550;  -20.220;    0.000; 3.67000
 900.71;    3.290;   -2.550;    0.000; 5.84000
 900.95;    6.810;   -0.240;    0.000; 7.05000
 901.19;   15.320;   14.960;    0.000; 0.36000
 901.44;   21.920;    5.540;    0.000;16.38000
 901.68;   32.560;   31.200;    0.000; 1.36000
 901.92;   35.240;   34.600;    0.000; 0.64000
 902.16;   50.540;   46.190;    0.000; 4.35000
 902.40;   58.500;   56.140;    0.000; 2.36000
 902.64;   76.120;   82.740;    0.000;-6.62000
 902.88;  101.840;   92.020;    0.000; 9.82000
 903.13;  119.470;  105.920;    0.000;13.55000

