
Integration time [ms]:  10.000
Averaging Nr. [scans]: 100
Smoothing Nr. [pixels]: 0
Data measured with spectrometer [name]: 1307078U2
Wave   ;Sample   ;Dark     ;Reference;Scope Corrected for Dark
[nm]   ;[counts] ;[counts] ;[counts] 

 351.07;   13.550;    1.990;    0.000;11.56000
 351.37;   20.400;    2.840;    0.000;17.56000
 351.66;   13.320;    9.940;    0.000; 3.38000
 351.95;   10.520;   -4.530;    0.000;15.05000
 352.24;    9.780;  -15.890;    0.000;25.67000
 352.54;    5.940;  -10.120;    0.000;16.06000
 352.83;   14.300;    0.130;    0.000;14.17000
 353.12;    9.880;    2.830;    0.000; 7.05000
 353.42;    5.820;  -15.300;    0.000;21.12000
 353.71;    3.760;  -10.820;    0.000;14.58000
 354.00;   16.190;    4.470;    0.000;11.72000
 354.30;    2.150;   -9.470;    0.000;11.62000
 354.59;    9.960;   -6.260;    0.000;16.22000
 354.88;    1.610;   -7.830;    0.000; 9.44000
 355.17;    5.900;  -11.980;    0.000;17.88000
 355.47;    4.450;  -12.230;    0.000;16.68000
 355.76;    0.810;   -0.430;    0.000; 1.24000
 356.05;   11.880;   -0.120;    0.000;12.00000
 356.35;    1.010;  -10.970;    0.000;11.98000
 356.64;   16.620;    4.260;    0.000;12.36000
 356.93;   11.190;   -5.560;    0.000;16.75000
 357.22;   25.610;   11.340;    0.000;14.27000
 357.52;    6.060;   -5.230;    0.000;11.29000
 357.81;   17.680;    3.000;    0.000;14.68000
 358.10;   -5.090;  -11.750;    0.000; 6.66000
 358.39;   17.560;    3.750;    0.000;13.81000
 358.69;   -2.870;   -2.590;    0.000;-0.28000
 358.98;   -6.350;  -10.110;    0.000; 3.76000
 359.27;   10.570;   -5.380;    0.000;15.95000
 359.57;   11.730;    5.370;    0.000; 6.36000
 359.86;    1.070;  -11.540;    0.000;12.61000
 360.15;   17.090;    2.780;    0.000;14.31000
 360.44;    4.660;  -14.280;    0.000;18.94000
 360.74;   11.840;   -1.840;    0.000;13.68000
 361.03;    3.090;   -8.680;    0.000;11.77000
 361.32;    6.930;  -10.790;    0.000;17.72000
 361.61;   -2.580;  -11.050;    0.000; 8.47000
 361.91;    3.860;    0.980;    0.000; 2.88000
 362.20;    1.530;  -11.360;    0.000;12.89000
 362.49;    8.910;   -6.030;    0.000;14.94000
 362.78;   11.850;   -1.640;    0.000;13.49000
 363.08;    9.340;   -9.640;    0.000;18.98000
 363.37;   10.340;  -12.520;    0.000;22.86000
 363.66;   16.570;    4.960;    0.000;11.61000
 363.95;    2.150;  -13.210;    0.000;15.36000
 364.24;   18.240;   -3.870;    0.000;22.11000
 364.54;    5.370;   -4.510;    0.000; 9.88000
 364.83;    7.450;  -11.190;    0.000;18.64000
 365.12;   -6.820;  -14.530;    0.000; 7.71000
 365.41;   19.550;    2.210;    0.000;17.34000
 365.71;    3.620;  -12.970;    0.000;16.59000
 366.00;    4.290;  -13.330;    0.000;17.62000
 366.29;   -5.530;  -12.070;    0.000; 6.54000
 366.58;   10.810;   -8.210;    0.000;19.02000
 366.87;    2.800;   -4.330;    0.000; 7.13000
 367.17;   19.520;   10.550;    0.000; 8.97000
 367.46;    2.710;  -15.680;    0.000;18.39000
 367.75;    7.580;   -9.440;    0.000;17.02000
 368.04;   -1.310;  -14.310;    0.000;13.00000
 368.34;    4.960;   -3.350;    0.000; 8.31000
 368.63;    1.050;   -5.870;    0.000; 6.92000
 368.92;   19.980;    4.770;    0.000;15.21000
 369.21;   14.900;   -4.180;    0.000;19.08000
 369.50;   16.600;    6.490;    0.000;10.11000
 369.80;   10.840;   -9.770;    0.000;20.61000
 370.09;    7.050;   -3.650;    0.000;10.70000
 370.38;   -0.760;  -11.370;    0.000;10.61000
 370.67;   -4.390;  -10.340;    0.000; 5.95000
 370.96;    5.490;  -10.990;    0.000;16.48000
 371.26;    6.590;  -10.670;    0.000;17.26000
 371.55;   -0.090;  -18.820;    0.000;18.73000
 371.84;    8.450;   -3.730;    0.000;12.18000
 372.13;    0.140;   -8.840;    0.000; 8.98000
 372.42;   12.420;    1.670;    0.000;10.75000
 372.71;   11.030;   -5.020;    0.000;16.05000
 373.01;   -4.400;   -9.790;    0.000; 5.39000
 373.30;   -7.580;  -18.500;    0.000;10.92000
 373.59;   17.200;    1.490;    0.000;15.71000
 373.88;   10.190;   -2.930;    0.000;13.12000
 374.17;   12.310;   -3.020;    0.000;15.33000
 374.46;    3.420;  -12.260;    0.000;15.68000
 374.76;   24.380;    9.200;    0.000;15.18000
 375.05;   17.540;    6.350;    0.000;11.19000
 375.34;    5.020;   -7.790;    0.000;12.81000
 375.63;   -5.230;  -11.110;    0.000; 5.88000
 375.92;   10.360;   -5.550;    0.000;15.91000
 376.21;   -9.670;  -15.000;    0.000; 5.33000
 376.51;    7.440;  -10.860;    0.000;18.30000
 376.80;    5.570;   -1.600;    0.000; 7.17000
 377.09;    6.780;  -15.780;    0.000;22.56000
 377.38;    5.450;   -5.020;    0.000;10.47000
 377.67;   13.040;   -1.550;    0.000;14.59000
 377.96;    2.270;   -8.760;    0.000;11.03000
 378.25;    3.010;   -7.470;    0.000;10.48000
 378.55;    1.060;  -17.830;    0.000;18.89000
 378.84;    4.100;  -10.140;    0.000;14.24000
 379.13;    9.730;   -3.610;    0.000;13.34000
 379.42;    1.610;  -13.640;    0.000;15.25000
 379.71;    4.130;   -9.550;    0.000;13.68000
 380.00;   14.300;    4.600;    0.000; 9.70000
 380.29;  -10.060;  -20.900;    0.000;10.84000
 380.59;    5.580;  -13.550;    0.000;19.13000
 380.88;  -10.430;  -11.250;    0.000; 0.82000
 381.17;    1.680;  -14.120;    0.000;15.80000
 381.46;    8.860;   -1.490;    0.000;10.35000
 381.75;    9.250;   -6.720;    0.000;15.97000
 382.04;    6.060;   -6.950;    0.000;13.01000
 382.33;    8.590;   -8.710;    0.000;17.30000
 382.62;   -0.520;  -17.870;    0.000;17.35000
 382.91;   13.620;   -4.340;    0.000;17.96000
 383.21;   -1.960;  -15.710;    0.000;13.75000
 383.50;    8.340;  -13.910;    0.000;22.25000
 383.79;    6.580;   -7.940;    0.000;14.52000
 384.08;   -5.920;  -17.080;    0.000;11.16000
 384.37;    0.840;   -8.960;    0.000; 9.80000
 384.66;   -4.690;   -5.480;    0.000; 0.79000
 384.95;   -1.230;  -18.320;    0.000;17.09000
 385.24;   -5.660;  -10.570;    0.000; 4.91000
 385.53;   -5.490;  -10.020;    0.000; 4.53000
 385.83;   -3.100;  -19.960;    0.000;16.86000
 386.12;   10.520;   -7.370;    0.000;17.89000
 386.41;   -4.240;  -15.640;    0.000;11.40000
 386.70;   -5.440;  -22.760;    0.000;17.32000
 386.99;    5.720;   -5.870;    0.000;11.59000
 387.28;   10.860;   -9.050;    0.000;19.91000
 387.57;    4.730;   -8.090;    0.000;12.82000
 387.86;   -1.710;  -13.520;    0.000;11.81000
 388.15;    0.210;  -11.820;    0.000;12.03000
 388.44;   -5.350;  -13.510;    0.000; 8.16000
 388.73;    6.380;   -9.650;    0.000;16.03000
 389.02;    1.720;  -12.670;    0.000;14.39000
 389.31;   -4.550;  -17.780;    0.000;13.23000
 389.61;   11.720;  -12.580;    0.000;24.30000
 389.90;    0.090;   -1.550;    0.000; 1.64000
 390.19;   -4.770;  -17.080;    0.000;12.31000
 390.48;    4.650;   -7.260;    0.000;11.91000
 390.77;    1.050;  -16.370;    0.000;17.42000
 391.06;    5.120;  -14.890;    0.000;20.01000
 391.35;    0.820;  -20.660;    0.000;21.48000
 391.64;    4.810;    3.120;    0.000; 1.69000
 391.93;   -8.250;  -27.680;    0.000;19.43000
 392.22;    3.580;   -4.250;    0.000; 7.83000
 392.51;   13.330;   -0.480;    0.000;13.81000
 392.80;   13.840;    0.130;    0.000;13.71000
 393.09;    2.190;  -17.160;    0.000;19.35000
 393.38;    6.450;   -5.590;    0.000;12.04000
 393.67;    5.610;  -11.850;    0.000;17.46000
 393.96;    4.680;   -3.580;    0.000; 8.26000
 394.25;    3.760;   -5.270;    0.000; 9.03000
 394.54;    7.400;  -10.940;    0.000;18.34000
 394.83;    0.510;  -26.700;    0.000;27.21000
 395.13;    6.640;  -17.240;    0.000;23.88000
 395.42;    3.620;  -12.590;    0.000;16.21000
 395.71;    9.290;   -4.120;    0.000;13.41000
 396.00;    4.030;   -6.090;    0.000;10.12000
 396.29;   11.500;   -2.370;    0.000;13.87000
 396.58;    3.350;  -14.700;    0.000;18.05000
 396.87;   11.020;  -12.070;    0.000;23.09000
 397.16;   -7.510;  -17.540;    0.000;10.03000
 397.45;    1.320;   -9.060;    0.000;10.38000
 397.74;    1.720;  -14.860;    0.000;16.58000
 398.03;    2.390;  -11.180;    0.000;13.57000
 398.32;   -8.880;  -21.950;    0.000;13.07000
 398.61;    4.370;  -13.140;    0.000;17.51000
 398.90;    8.150;  -10.560;    0.000;18.71000
 399.19;    8.920;   -7.320;    0.000;16.24000
 399.48;   -9.780;  -15.870;    0.000; 6.09000
 399.77;    7.450;  -12.280;    0.000;19.73000
 400.06;   10.340;  -14.080;    0.000;24.42000
 400.35;    2.660;  -10.410;    0.000;13.07000
 400.64;    2.500;  -17.960;    0.000;20.46000
 400.93;   15.380;   -6.800;    0.000;22.18000
 401.22;    3.420;  -17.840;    0.000;21.26000
 401.51;    9.390;  -13.020;    0.000;22.41000
 401.80;    1.290;  -16.350;    0.000;17.64000
 402.09;    5.850;  -14.710;    0.000;20.56000
 402.38;    2.000;  -16.230;    0.000;18.23000
 402.67;    1.130;   -7.210;    0.000; 8.34000
 402.96;    7.070;   -7.580;    0.000;14.65000
 403.25;   14.560;    5.550;    0.000; 9.01000
 403.54;   11.940;   -7.190;    0.000;19.13000
 403.83;    1.900;  -11.910;    0.000;13.81000
 404.12;    6.270;  -13.410;    0.000;19.68000
 404.41;    7.350;   -0.210;    0.000; 7.56000
 404.70;    3.450;  -17.410;    0.000;20.86000
 404.98;    5.960;  -14.010;    0.000;19.97000
 405.27;    1.710;  -14.400;    0.000;16.11000
 405.56;   21.250;    4.220;    0.000;17.03000
 405.85;    4.040;  -15.830;    0.000;19.87000
 406.14;   11.130;  -13.630;    0.000;24.76000
 406.43;   -6.650;  -10.620;    0.000; 3.97000
 406.72;   14.030;  -12.290;    0.000;26.32000
 407.01;   -2.700;  -21.100;    0.000;18.40000
 407.30;    5.050;  -20.190;    0.000;25.24000
 407.59;   -2.170;  -19.810;    0.000;17.64000
 407.88;   14.360;   -8.870;    0.000;23.23000
 408.17;    3.920;  -17.110;    0.000;21.03000
 408.46;    9.580;   -4.060;    0.000;13.64000
 408.75;   17.440;   -4.650;    0.000;22.09000
 409.04;   -4.610;  -19.590;    0.000;14.98000
 409.33;    1.410;  -19.630;    0.000;21.04000
 409.62;    8.370;   -2.110;    0.000;10.48000
 409.91;   -5.640;  -26.460;    0.000;20.82000
 410.20;    2.540;   -9.140;    0.000;11.68000
 410.48;   12.520;   -7.780;    0.000;20.30000
 410.77;    2.000;  -13.310;    0.000;15.31000
 411.06;   18.460;  -11.580;    0.000;30.04000
 411.35;   18.200;    5.610;    0.000;12.59000
 411.64;   10.610;   -9.610;    0.000;20.22000
 411.93;    4.490;  -10.440;    0.000;14.93000
 412.22;    4.990;  -19.600;    0.000;24.59000
 412.51;    3.630;  -16.220;    0.000;19.85000
 412.80;    9.610;  -15.400;    0.000;25.01000
 413.09;   12.020;  -10.870;    0.000;22.89000
 413.38;    8.600;  -13.750;    0.000;22.35000
 413.67;    2.850;  -21.080;    0.000;23.93000
 413.96;   -5.830;  -31.980;    0.000;26.15000
 414.24;   13.250;  -19.800;    0.000;33.05000
 414.53;   20.080;  -17.200;    0.000;37.28000
 414.82;   21.580;  -10.120;    0.000;31.70000
 415.11;   17.350;   -0.960;    0.000;18.31000
 415.40;   11.080;   -8.850;    0.000;19.93000
 415.69;    2.660;  -15.490;    0.000;18.15000
 415.98;   11.600;  -23.990;    0.000;35.59000
 416.27;   -5.860;  -24.270;    0.000;18.41000
 416.56;   17.520;   -3.280;    0.000;20.80000
 416.84;    4.320;  -19.790;    0.000;24.11000
 417.13;    4.910;  -14.540;    0.000;19.45000
 417.42;   16.430;   -8.280;    0.000;24.71000
 417.71;    9.930;   -8.120;    0.000;18.05000
 418.00;    4.000;  -16.780;    0.000;20.78000
 418.29;   12.220;   -4.550;    0.000;16.77000
 418.58;    5.900;  -16.490;    0.000;22.39000
 418.87;    7.490;  -15.660;    0.000;23.15000
 419.15;    7.250;  -18.900;    0.000;26.15000
 419.44;   10.400;  -18.980;    0.000;29.38000
 419.73;   10.140;  -11.850;    0.000;21.99000
 420.02;   18.350;   -7.110;    0.000;25.46000
 420.31;   -0.960;  -30.570;    0.000;29.61000
 420.60;   17.300;   -5.040;    0.000;22.34000
 420.89;   -4.280;  -21.480;    0.000;17.20000
 421.18;   18.080;   -9.290;    0.000;27.37000
 421.46;   14.610;   -5.340;    0.000;19.95000
 421.75;    9.050;  -15.320;    0.000;24.37000
 422.04;   -4.370;  -21.410;    0.000;17.04000
 422.33;   26.220;    2.320;    0.000;23.90000
 422.62;   18.530;  -18.220;    0.000;36.75000
 422.91;    6.730;  -24.820;    0.000;31.55000
 423.19;    1.350;  -28.920;    0.000;30.27000
 423.48;   22.060;    0.140;    0.000;21.92000
 423.77;    9.080;  -18.100;    0.000;27.18000
 424.06;    9.880;   -9.180;    0.000;19.06000
 424.35;    3.020;  -16.940;    0.000;19.96000
 424.64;   28.020;   -2.420;    0.000;30.44000
 424.93;    2.080;  -26.250;    0.000;28.33000
 425.21;   10.800;  -17.130;    0.000;27.93000
 425.50;   24.420;  -12.130;    0.000;36.55000
 425.79;    8.250;  -10.680;    0.000;18.93000
 426.08;   10.040;  -16.970;    0.000;27.01000
 426.37;   10.750;   -9.660;    0.000;20.41000
 426.65;   -1.530;  -22.930;    0.000;21.40000
 426.94;   11.170;  -22.840;    0.000;34.01000
 427.23;   10.200;  -15.010;    0.000;25.21000
 427.52;    5.250;  -11.990;    0.000;17.24000
 427.81;    5.580;  -29.120;    0.000;34.70000
 428.10;   23.260;   -4.670;    0.000;27.93000
 428.38;   -5.560;  -27.520;    0.000;21.96000
 428.67;    8.500;   -2.590;    0.000;11.09000
 428.96;  -10.870;  -31.540;    0.000;20.67000
 429.25;    4.050;  -14.100;    0.000;18.15000
 429.54;    6.340;  -13.980;    0.000;20.32000
 429.82;   14.700;   -9.990;    0.000;24.69000
 430.11;   13.680;  -17.100;    0.000;30.78000
 430.40;   23.300;  -12.650;    0.000;35.95000
 430.69;    8.310;  -13.860;    0.000;22.17000
 430.98;    5.350;  -21.990;    0.000;27.34000
 431.26;   14.850;   -8.510;    0.000;23.36000
 431.55;    9.270;   -6.460;    0.000;15.73000
 431.84;    1.910;  -21.790;    0.000;23.70000
 432.13;   19.480;  -13.900;    0.000;33.38000
 432.41;    3.230;  -33.040;    0.000;36.27000
 432.70;   16.520;  -21.040;    0.000;37.56000
 432.99;   15.470;  -16.870;    0.000;32.34000
 433.28;    4.120;  -19.660;    0.000;23.78000
 433.57;   16.400;  -10.610;    0.000;27.01000
 433.85;   14.610;  -10.450;    0.000;25.06000
 434.14;    3.260;  -24.160;    0.000;27.42000
 434.43;   27.770;    1.150;    0.000;26.62000
 434.72;    6.360;  -20.670;    0.000;27.03000
 435.00;    3.390;  -23.620;    0.000;27.01000
 435.29;    4.520;  -17.490;    0.000;22.01000
 435.58;   15.840;   -8.150;    0.000;23.99000
 435.87;   16.610;  -25.230;    0.000;41.84000
 436.15;    6.160;  -22.240;    0.000;28.40000
 436.44;    2.180;  -20.080;    0.000;22.26000
 436.73;   14.670;  -15.600;    0.000;30.27000
 437.02;    5.820;  -19.490;    0.000;25.31000
 437.30;   20.740;   -4.440;    0.000;25.18000
 437.59;    9.520;  -17.640;    0.000;27.16000
 437.88;   13.590;   -8.810;    0.000;22.40000
 438.17;   -5.050;  -28.660;    0.000;23.61000
 438.45;    9.500;  -19.800;    0.000;29.30000
 438.74;   11.490;  -16.400;    0.000;27.89000
 439.03;    9.760;  -14.480;    0.000;24.24000
 439.32;   -5.940;  -25.370;    0.000;19.43000
 439.60;    2.400;  -22.430;    0.000;24.83000
 439.89;    7.350;  -18.250;    0.000;25.60000
 440.18;    6.910;  -20.970;    0.000;27.88000
 440.46;   -0.050;  -29.720;    0.000;29.67000
 440.75;   20.200;   -6.850;    0.000;27.05000
 441.04;  -11.760;  -28.000;    0.000;16.24000
 441.33;    2.140;  -17.230;    0.000;19.37000
 441.61;   -3.720;  -28.680;    0.000;24.96000
 441.90;   25.250;    0.830;    0.000;24.42000
 442.19;    2.270;  -30.670;    0.000;32.94000
 442.47;   14.650;  -10.780;    0.000;25.43000
 442.76;   -1.290;  -22.750;    0.000;21.46000
 443.05;    4.670;  -21.380;    0.000;26.05000
 443.34;    2.250;  -30.430;    0.000;32.68000
 443.62;    4.970;  -17.090;    0.000;22.06000
 443.91;   -5.540;  -22.620;    0.000;17.08000
 444.20;   32.280;    4.770;    0.000;27.51000
 444.48;    2.920;  -24.400;    0.000;27.32000
 444.77;   31.010;    9.730;    0.000;21.28000
 445.06;    1.410;  -26.390;    0.000;27.80000
 445.34;   13.000;  -12.470;    0.000;25.47000
 445.63;   -1.030;  -25.530;    0.000;24.50000
 445.92;   25.020;    6.760;    0.000;18.26000
 446.21;    9.720;  -22.450;    0.000;32.17000
 446.49;   17.140;  -14.610;    0.000;31.75000
 446.78;   21.780;  -11.330;    0.000;33.11000
 447.07;    7.480;   -9.930;    0.000;17.41000
 447.35;    5.740;  -24.390;    0.000;30.13000
 447.64;    5.560;   -9.840;    0.000;15.40000
 447.93;   11.850;  -24.630;    0.000;36.48000
 448.21;   13.120;  -21.700;    0.000;34.82000
 448.50;    8.620;  -23.560;    0.000;32.18000
 448.79;    5.440;  -20.390;    0.000;25.83000
 449.07;    9.690;  -12.200;    0.000;21.89000
 449.36;    9.290;  -25.580;    0.000;34.87000
 449.65;   -2.710;  -25.970;    0.000;23.26000
 449.93;    5.790;   -9.050;    0.000;14.84000
 450.22;    9.820;  -21.560;    0.000;31.38000
 450.51;   -1.240;  -25.890;    0.000;24.65000
 450.79;    4.360;  -27.730;    0.000;32.09000
 451.08;    2.720;  -16.520;    0.000;19.24000
 451.36;    7.460;  -14.260;    0.000;21.72000
 451.65;    8.350;  -14.880;    0.000;23.23000
 451.94;   -3.610;  -29.220;    0.000;25.61000
 452.22;    0.780;  -25.260;    0.000;26.04000
 452.51;    2.810;  -19.340;    0.000;22.15000
 452.80;   11.280;  -25.310;    0.000;36.59000
 453.08;    3.410;  -24.790;    0.000;28.20000
 453.37;   13.190;   -7.670;    0.000;20.86000
 453.66;   -1.370;  -23.540;    0.000;22.17000
 453.94;    8.570;  -22.460;    0.000;31.03000
 454.23;   -0.140;  -32.840;    0.000;32.70000
 454.51;   16.030;  -13.500;    0.000;29.53000
 454.80;   -1.430;  -32.380;    0.000;30.95000
 455.09;   13.320;  -18.230;    0.000;31.55000
 455.37;   20.920;   -9.480;    0.000;30.40000
 455.66;   11.980;  -17.710;    0.000;29.69000
 455.95;    0.360;   -9.720;    0.000;10.08000
 456.23;   21.010;  -12.820;    0.000;33.83000
 456.52;   -1.460;  -24.840;    0.000;23.38000
 456.80;   10.900;  -27.870;    0.000;38.77000
 457.09;   -2.420;  -29.660;    0.000;27.24000
 457.38;   26.610;   -4.090;    0.000;30.70000
 457.66;    6.890;  -22.610;    0.000;29.50000
 457.95;    1.140;  -23.380;    0.000;24.52000
 458.23;    3.180;  -25.240;    0.000;28.42000
 458.52;   17.030;  -13.190;    0.000;30.22000
 458.81;    7.290;  -23.660;    0.000;30.95000
 459.09;   10.000;  -19.720;    0.000;29.72000
 459.38;    2.660;  -30.970;    0.000;33.63000
 459.66;   10.070;  -24.540;    0.000;34.61000
 459.95;    5.780;  -17.730;    0.000;23.51000
 460.23;   17.910;  -19.520;    0.000;37.43000
 460.52;    0.080;  -20.510;    0.000;20.59000
 460.81;    3.790;  -27.310;    0.000;31.10000
 461.09;    7.370;  -28.620;    0.000;35.99000
 461.38;   14.930;  -16.580;    0.000;31.51000
 461.66;   -2.000;  -30.120;    0.000;28.12000
 461.95;   16.860;  -21.580;    0.000;38.44000
 462.23;   11.470;  -15.290;    0.000;26.76000
 462.52;    3.440;  -33.350;    0.000;36.79000
 462.81;   -2.550;  -34.430;    0.000;31.88000
 463.09;    9.050;  -22.640;    0.000;31.69000
 463.38;    2.360;  -34.400;    0.000;36.76000
 463.66;    1.480;  -25.720;    0.000;27.20000
 463.95;   13.980;  -23.300;    0.000;37.28000
 464.23;   13.510;  -13.770;    0.000;27.28000
 464.52;   -1.880;  -25.790;    0.000;23.91000
 464.80;    5.710;  -22.270;    0.000;27.98000
 465.09;   11.540;  -15.500;    0.000;27.04000
 465.38;    6.110;  -31.170;    0.000;37.28000
 465.66;    4.020;  -34.180;    0.000;38.20000
 465.95;   16.230;  -13.170;    0.000;29.40000
 466.23;   -2.850;  -39.810;    0.000;36.96000
 466.52;    1.560;  -26.140;    0.000;27.70000
 466.80;   28.220;   -9.390;    0.000;37.61000
 467.09;   15.980;  -22.750;    0.000;38.73000
 467.37;    5.710;  -18.880;    0.000;24.59000
 467.66;   13.340;  -16.140;    0.000;29.48000
 467.94;   11.600;  -24.810;    0.000;36.41000
 468.23;   15.440;  -19.950;    0.000;35.39000
 468.51;    9.490;  -11.990;    0.000;21.48000
 468.80;    4.730;  -24.660;    0.000;29.39000
 469.08;   13.520;  -22.650;    0.000;36.17000
 469.37;    7.230;  -15.420;    0.000;22.65000
 469.66;   16.490;  -25.130;    0.000;41.62000
 469.94;   14.100;  -22.920;    0.000;37.02000
 470.23;   16.860;  -19.480;    0.000;36.34000
 470.51;   10.300;  -21.700;    0.000;32.00000
 470.80;   17.150;  -14.170;    0.000;31.32000
 471.08;   11.240;  -24.980;    0.000;36.22000
 471.37;   12.280;  -22.870;    0.000;35.15000
 471.65;   35.800;  -11.550;    0.000;47.35000
 471.94;    2.320;  -37.450;    0.000;39.77000
 472.22;   17.360;  -30.200;    0.000;47.56000
 472.51;   13.530;  -28.820;    0.000;42.35000
 472.79;   17.170;  -18.730;    0.000;35.90000
 473.08;   21.000;  -26.180;    0.000;47.18000
 473.36;   28.520;  -10.910;    0.000;39.43000
 473.64;   22.000;  -26.000;    0.000;48.00000
 473.93;   29.490;  -26.520;    0.000;56.01000
 474.21;   25.130;  -32.440;    0.000;57.57000
 474.50;   37.560;  -22.240;    0.000;59.80000
 474.78;   45.180;   -6.350;    0.000;51.53000
 475.07;   40.640;  -21.020;    0.000;61.66000
 475.35;   43.870;  -19.560;    0.000;63.43000
 475.64;   45.730;  -26.260;    0.000;71.99000
 475.92;   43.450;  -28.450;    0.000;71.90000
 476.21;   64.110;  -26.200;    0.000;90.31000
 476.49;   68.840;  -22.820;    0.000;91.66000
 476.78;   71.780;  -24.020;    0.000;95.80000
 477.06;   77.740;  -26.290;    0.000;104.03000
 477.35;   85.310;  -24.950;    0.000;110.26000
 477.63;   89.470;  -31.450;    0.000;120.92000
 477.91;  101.340;  -21.250;    0.000;122.59000
 478.20;  117.110;  -32.050;    0.000;149.16000
 478.48;  125.130;  -28.860;    0.000;153.99000
 478.77;  144.940;  -26.670;    0.000;171.61000
 479.05;  141.360;  -26.730;    0.000;168.09000
 479.34;  165.550;  -25.260;    0.000;190.81000
 479.62;  180.200;  -22.540;    0.000;202.74000
 479.91;  190.800;  -25.850;    0.000;216.65000
 480.19;  231.060;   -6.410;    0.000;237.47000
 480.47;  206.880;  -31.670;    0.000;238.55000
 480.76;  241.750;  -22.550;    0.000;264.30000
 481.04;  274.460;  -28.450;    0.000;302.90999
 481.33;  298.540;   -5.690;    0.000;304.23001
 481.61;  313.920;  -29.120;    0.000;343.04001
 481.90;  328.840;  -23.420;    0.000;352.26000
 482.18;  350.100;  -28.430;    0.000;378.53001
 482.46;  404.370;  -20.570;    0.000;424.93999
 482.75;  415.800;  -23.240;    0.000;439.03999
 483.03;  446.180;  -26.580;    0.000;472.75999
 483.32;  473.800;  -28.070;    0.000;501.86999
 483.60;  527.440;  -23.380;    0.000;550.82000
 483.88;  533.680;  -40.750;    0.000;574.42999
 484.17;  589.230;  -20.730;    0.000;609.95998
 484.45;  621.690;  -27.840;    0.000;649.53000
 484.74;  672.250;  -23.640;    0.000;695.89000
 485.02;  711.950;  -24.600;    0.000;736.55001
 485.30;  758.760;  -23.730;    0.000;782.49001
 485.59;  798.590;  -23.620;    0.000;822.21003
 485.87;  862.630;  -12.160;    0.000;874.79000
 486.16;  904.070;  -24.400;    0.000;928.47001
 486.44;  963.100;  -25.040;    0.000;988.13998
 486.72; 1002.310;  -33.010;    0.000;1035.32000
 487.01; 1071.920;  -30.210;    0.000;1102.13004
 487.29; 1135.890;  -22.520;    0.000;1158.41002
 487.58; 1210.010;  -14.390;    0.000;1224.40001
 487.86; 1270.880;  -24.810;    0.000;1295.69000
 488.14; 1326.670;  -31.580;    0.000;1358.25004
 488.43; 1396.910;  -32.780;    0.000;1429.69003
 488.71; 1456.380;  -28.340;    0.000;1484.72001
 488.99; 1530.010;  -24.200;    0.000;1554.21001
 489.28; 1620.790;  -21.500;    0.000;1642.29004
 489.56; 1676.220;  -34.720;    0.000;1710.93997
 489.85; 1759.430;  -32.510;    0.000;1791.94005
 490.13; 1836.790;  -28.490;    0.000;1865.28004
 490.41; 1941.840;  -18.750;    0.000;1960.58997
 490.70; 2010.680;  -31.500;    0.000;2042.18005
 490.98; 2101.980;  -28.680;    0.000;2130.65998
 491.26; 2184.650;  -29.990;    0.000;2214.63990
 491.55; 2272.780;  -30.740;    0.000;2303.52003
 491.83; 2379.730;  -18.200;    0.000;2397.92998
 492.11; 2473.270;  -17.410;    0.000;2490.68002
 492.40; 2557.160;  -23.950;    0.000;2581.10991
 492.68; 2683.880;  -15.510;    0.000;2699.38988
 492.96; 2762.070;  -28.490;    0.000;2790.56007
 493.25; 2911.300;  -23.660;    0.000;2934.96005
 493.53; 2972.320;  -34.580;    0.000;3006.90007
 493.81; 3100.590;  -31.170;    0.000;3131.76009
 494.10; 3211.410;  -24.100;    0.000;3235.50991
 494.38; 3309.590;  -21.310;    0.000;3330.90009
 494.66; 3456.490;  -30.330;    0.000;3486.81999
 494.95; 3539.910;  -28.360;    0.000;3568.26991
 495.23; 3668.530;  -25.800;    0.000;3694.33003
 495.51; 3777.830;  -28.470;    0.000;3806.30008
 495.80; 3893.070;  -39.880;    0.000;3932.95007
 496.08; 4026.890;  -15.720;    0.000;4042.60989
 496.36; 4156.710;  -11.590;    0.000;4168.29996
 496.65; 4260.050;  -24.500;    0.000;4284.54980
 496.93; 4405.180;  -25.490;    0.000;4430.67018
 497.21; 4532.220;  -25.560;    0.000;4557.78021
 497.50; 4674.200;  -21.360;    0.000;4695.56020
 497.78; 4765.590;  -22.570;    0.000;4788.15984
 498.06; 4878.540;  -29.040;    0.000;4907.58004
 498.34; 5043.950;  -26.730;    0.000;5070.68019
 498.63; 5175.670;  -33.570;    0.000;5209.23992
 498.91; 5318.660;  -23.580;    0.000;5342.24016
 499.19; 5437.730;  -26.700;    0.000;5464.42998
 499.48; 5585.230;  -25.520;    0.000;5610.74998
 499.76; 5680.470;  -25.150;    0.000;5705.62021
 500.04; 5836.610;  -28.270;    0.000;5864.87986
 500.32; 6004.620;  -14.580;    0.000;6019.20012
 500.61; 6079.720;  -32.320;    0.000;6112.04021
 500.89; 6229.370;  -30.760;    0.000;6260.13012
 501.17; 6351.790;  -30.710;    0.000;6382.50004
 501.46; 6468.990;  -22.350;    0.000;6491.34023
 501.74; 6636.070;  -18.090;    0.000;6654.15982
 502.02; 6792.350;  -15.300;    0.000;6807.65010
 502.30; 6934.150;  -18.010;    0.000;6952.15990
 502.59; 7017.870;  -38.280;    0.000;7056.15012
 502.87; 7171.890;  -29.970;    0.000;7201.86014
 503.15; 7318.700;  -35.630;    0.000;7354.33020
 503.43; 7459.580;  -22.000;    0.000;7481.58008
 503.72; 7584.160;  -30.040;    0.000;7614.20016
 504.00; 7743.040;  -33.470;    0.000;7776.51004
 504.28; 7841.330;  -28.460;    0.000;7869.79008
 504.56; 8011.000;  -28.300;    0.000;8039.30000
 504.85; 8169.970;  -19.360;    0.000;8189.33022
 505.13; 8262.590;  -29.910;    0.000;8292.49984
 505.41; 8433.910;  -30.150;    0.000;8464.06016
 505.69; 8531.730;  -24.400;    0.000;8556.13047
 505.98; 8676.320;  -24.150;    0.000;8700.47031
 506.26; 8801.470;  -22.980;    0.000;8824.44973
 506.54; 8953.140;  -35.460;    0.000;8988.59965
 506.82; 9093.760;  -24.120;    0.000;9117.87977
 507.11; 9213.870;  -31.550;    0.000;9245.42012
 507.39; 9322.600;  -41.840;    0.000;9364.43961
 507.67; 9467.080;  -27.870;    0.000;9494.95008
 507.95; 9590.950;  -32.940;    0.000;9623.89019
 508.23; 9719.410;  -35.230;    0.000;9754.64016
 508.52; 9839.610;  -24.250;    0.000;9863.86035
 508.80; 9969.930;  -31.510;    0.000;10001.43969
 509.08;10109.890;  -19.620;    0.000;10129.50965
 509.36;10245.220;  -23.880;    0.000;10269.09973
 509.65;10393.380;  -23.990;    0.000;10417.36988
 509.93;10497.060;  -30.950;    0.000;10528.00957
 510.21;10653.550;  -19.850;    0.000;10673.39981
 510.49;10772.840;  -30.360;    0.000;10803.19984
 510.77;10872.230;  -34.430;    0.000;10906.66047
 511.06;10970.980;  -34.890;    0.000;11005.87047
 511.34;11104.050;  -27.620;    0.000;11131.66981
 511.62;11258.660;  -28.950;    0.000;11287.61016
 511.90;11366.750;  -21.870;    0.000;11388.62000
 512.18;11493.700;  -24.880;    0.000;11518.58019
 512.47;11616.810;  -18.980;    0.000;11635.78957
 512.75;11674.700;  -38.220;    0.000;11712.92020
 513.03;11879.570;  -23.360;    0.000;11902.93031
 513.31;12001.130;  -33.010;    0.000;12034.13988
 513.59;12097.990;  -27.410;    0.000;12125.40023
 513.87;12167.410;  -27.310;    0.000;12194.72016
 514.16;12306.070;  -25.240;    0.000;12331.31031
 514.44;12426.140;  -24.030;    0.000;12450.16965
 514.72;12495.220;  -25.030;    0.000;12520.24973
 515.00;12653.010;  -17.810;    0.000;12670.81977
 515.28;12806.810;  -19.280;    0.000;12826.08957
 515.56;12876.440;  -27.990;    0.000;12904.43043
 515.85;12989.860;  -24.510;    0.000;13014.37035
 516.13;13188.620;  -20.170;    0.000;13208.79012
 516.41;13220.160;  -39.440;    0.000;13259.60015
 516.69;13372.270;  -26.690;    0.000;13398.95953
 516.97;13501.360;  -20.650;    0.000;13522.01035
 517.25;13570.380;  -27.620;    0.000;13597.99988
 517.54;13672.520;  -14.870;    0.000;13687.38953
 517.82;13738.300;  -25.560;    0.000;13763.85980
 518.10;13899.500;  -12.750;    0.000;13912.25000
 518.38;13960.280;  -29.460;    0.000;13989.74027
 518.66;14068.680;  -13.080;    0.000;14081.75969
 518.94;14208.940;  -33.270;    0.000;14242.21043
 519.22;14332.900;  -12.810;    0.000;14345.71039
 519.51;14382.690;  -31.490;    0.000;14414.18043
 519.79;14493.460;  -30.480;    0.000;14523.93996
 520.07;14614.390;  -26.870;    0.000;14641.25965
 520.35;14707.850;  -26.720;    0.000;14734.56961
 520.63;14849.740;  -23.060;    0.000;14872.80023
 520.91;14907.700;  -26.770;    0.000;14934.47020
 521.19;15026.070;  -38.370;    0.000;15064.44031
 521.47;15131.960;  -34.040;    0.000;15165.99996
 521.75;15201.630;  -18.800;    0.000;15220.42988
 522.04;15339.520;  -20.950;    0.000;15360.46953
 522.32;15404.560;  -28.850;    0.000;15433.40957
 522.60;15555.310;   -2.200;    0.000;15557.50957
 522.88;15614.000;  -27.480;    0.000;15641.48000
 523.16;15680.270;  -30.510;    0.000;15710.77953
 523.44;15841.610;  -14.660;    0.000;15856.27035
 523.72;15913.500;  -14.230;    0.000;15927.73000
 524.00;15931.190;  -19.990;    0.000;15951.18043
 524.28;16100.730;  -13.820;    0.000;16114.55047
 524.57;16139.210;  -19.210;    0.000;16158.41996
 524.85;16308.510;  -18.070;    0.000;16326.57977
 525.13;16326.230;   -7.880;    0.000;16334.11047
 525.41;16451.391;  -15.200;    0.000;16466.59062
 525.69;16538.840;  -22.730;    0.000;16561.56984
 525.97;16648.350;  -11.300;    0.000;16659.64961
 526.25;16740.721;  -30.900;    0.000;16771.62070
 526.53;16778.449;  -24.080;    0.000;16802.52922
 526.81;16874.750;  -32.680;    0.000;16907.43000
 527.09;17009.779;  -18.610;    0.000;17028.38930
 527.37;17008.270;  -33.990;    0.000;17042.25953
 527.65;17089.971;  -20.330;    0.000;17110.30070
 527.93;17247.760;  -30.530;    0.000;17278.28977
 528.22;17307.500;  -21.370;    0.000;17328.87000
 528.50;17441.270;  -30.810;    0.000;17472.07953
 528.78;17420.949;  -19.390;    0.000;17440.33922
 529.06;17544.270;  -18.110;    0.000;17562.37953
 529.34;17637.020;  -12.610;    0.000;17649.62953
 529.62;17656.949;  -25.580;    0.000;17682.52922
 529.90;17701.189;  -18.220;    0.000;17719.40945
 530.18;17879.811;  -16.900;    0.000;17896.71055
 530.46;17985.971;  -12.490;    0.000;17998.46070
 530.74;17998.480;  -16.000;    0.000;18014.48047
 531.02;18150.869;   -8.990;    0.000;18159.85914
 531.30;18197.789;  -17.900;    0.000;18215.68906
 531.58;18266.010;  -22.140;    0.000;18288.14977
 531.86;18348.699;  -16.120;    0.000;18364.81922
 532.14;18442.311;  -14.770;    0.000;18457.08055
 532.42;18488.221;  -15.480;    0.000;18503.70070
 532.70;18561.660;  -15.860;    0.000;18577.52016
 532.98;18622.590;  -16.040;    0.000;18638.62984
 533.26;18671.150;   -9.200;    0.000;18680.35039
 533.54;18789.150;  -13.350;    0.000;18802.50039
 533.82;18882.609;  -12.340;    0.000;18894.94938
 534.10;18917.789;  -20.000;    0.000;18937.78906
 534.38;19045.920;  -16.730;    0.000;19062.64992
 534.66;19036.029;  -19.020;    0.000;19055.04930
 534.94;19127.801;  -15.430;    0.000;19143.23078
 535.22;19192.920;  -25.480;    0.000;19218.39992
 535.50;19309.020;  -16.270;    0.000;19325.28953
 535.78;19345.250;  -35.370;    0.000;19380.62000
 536.06;19366.811;  -21.060;    0.000;19387.87055
 536.34;19437.381;  -27.730;    0.000;19465.11086
 536.62;19561.631;  -21.040;    0.000;19582.67086
 536.90;19603.660;  -23.680;    0.000;19627.34016
 537.18;19652.289;  -20.220;    0.000;19672.50906
 537.46;19713.330;  -32.690;    0.000;19746.02008
 537.74;19839.721;  -25.030;    0.000;19864.75070
 538.02;19861.260;  -23.550;    0.000;19884.80976
 538.30;19982.410;   -6.860;    0.000;19989.27016
 538.58;19940.180;  -30.360;    0.000;19970.53969
 538.86;20098.471;   -6.790;    0.000;20105.26070
 539.14;20139.311;  -24.250;    0.000;20163.56055
 539.42;20242.859;    7.090;    0.000;20235.76937
 539.70;20259.180;  -28.650;    0.000;20287.82969
 539.98;20273.990;   -6.010;    0.000;20280.00023
 540.26;20396.789;  -20.240;    0.000;20417.02906
 540.54;20401.381;  -28.370;    0.000;20429.75086
 540.82;20478.250;  -30.880;    0.000;20509.13000
 541.10;20599.641;  -11.720;    0.000;20611.36063
 541.38;20679.410;  -29.890;    0.000;20709.30016
 541.66;20719.439;  -19.600;    0.000;20739.03945
 541.94;20736.600;  -20.400;    0.000;20756.99961
 542.22;20774.680;  -22.450;    0.000;20797.12969
 542.50;20842.270;  -25.920;    0.000;20868.18953
 542.78;20921.250;  -22.300;    0.000;20943.55000
 543.06;20970.961;  -24.780;    0.000;20995.74094
 543.34;21049.061;  -13.100;    0.000;21062.16055
 543.62;21150.391;  -22.330;    0.000;21172.72062
 543.90;21155.609;  -21.000;    0.000;21176.60938
 544.17;21182.340;  -28.870;    0.000;21211.20984
 544.45;21225.510;  -25.940;    0.000;21251.44977
 544.73;21318.631;  -19.130;    0.000;21337.76086
 545.01;21408.340;  -25.070;    0.000;21433.40984
 545.29;21378.811;  -23.350;    0.000;21402.16055
 545.57;21465.930;  -13.760;    0.000;21479.68969
 545.85;21495.859;  -16.940;    0.000;21512.79938
 546.13;21557.910;  -27.870;    0.000;21585.78016
 546.41;21610.920;  -16.310;    0.000;21627.22992
 546.69;21646.570;  -32.210;    0.000;21678.78031
 546.97;21668.410;  -24.550;    0.000;21692.96016
 547.25;21736.080;  -27.210;    0.000;21763.29008
 547.52;21691.660;  -26.500;    0.000;21718.16016
 547.80;21728.480;  -20.870;    0.000;21749.35047
 548.08;21857.949;  -23.140;    0.000;21881.08922
 548.36;21951.320;  -18.030;    0.000;21969.35031
 548.64;21880.539;  -17.680;    0.000;21898.21906
 548.92;21897.320;  -24.050;    0.000;21921.37031
 549.20;21980.051;  -19.710;    0.000;21999.76078
 549.48;22069.539;  -15.170;    0.000;22084.70906
 549.76;22039.330;  -15.590;    0.000;22054.92008
 550.04;22091.721;  -23.170;    0.000;22114.89070
 550.31;22063.811;  -27.150;    0.000;22090.96055
 550.59;22187.170;  -12.080;    0.000;22199.24992
 550.87;22174.990;  -29.450;    0.000;22204.44024
 551.15;22167.830;  -18.290;    0.000;22186.12008
 551.43;22143.949;  -24.870;    0.000;22168.81922
 551.71;22238.650;  -24.400;    0.000;22263.05039
 551.99;22205.490;  -24.990;    0.000;22230.48023
 552.27;22277.711;  -24.030;    0.000;22301.74094
 552.54;22265.520;  -22.450;    0.000;22287.96953
 552.82;22302.400;  -10.980;    0.000;22313.38039
 553.10;22322.990;  -23.500;    0.000;22346.49023
 553.38;22375.689;  -13.410;    0.000;22389.09945
 553.66;22332.801;  -23.070;    0.000;22355.87078
 553.94;22412.439;  -13.110;    0.000;22425.54945
 554.22;22413.039;  -13.670;    0.000;22426.70906
 554.49;22457.230;  -16.040;    0.000;22473.27047
 554.77;22406.850;  -16.190;    0.000;22423.03961
 555.05;22471.900;  -15.740;    0.000;22487.64039
 555.33;22386.160;  -32.440;    0.000;22418.60015
 555.61;22380.369;  -25.560;    0.000;22405.92914
 555.89;22510.461;  -33.180;    0.000;22543.64094
 556.16;22518.881;  -25.590;    0.000;22544.47086
 556.44;22492.600;  -32.100;    0.000;22524.69961
 556.72;22453.350;  -29.140;    0.000;22482.48961
 557.00;22443.141;  -31.520;    0.000;22474.66063
 557.28;22535.230;  -17.510;    0.000;22552.74047
 557.56;22471.289;  -21.250;    0.000;22492.53906
 557.83;22527.490;  -25.100;    0.000;22552.59023
 558.11;22510.670;  -15.320;    0.000;22525.98992
 558.39;22475.471;  -15.190;    0.000;22490.66070
 558.67;22553.381;  -19.950;    0.000;22573.33086
 558.95;22478.461;  -29.320;    0.000;22507.78094
 559.23;22510.789;  -27.530;    0.000;22538.31906
 559.50;22443.779;  -21.290;    0.000;22465.06930
 559.78;22472.250;  -17.790;    0.000;22490.04000
 560.06;22465.820;  -22.880;    0.000;22488.70031
 560.34;22566.500;  -13.260;    0.000;22579.76000
 560.62;22445.000;  -24.200;    0.000;22469.20000
 560.89;22483.260;  -14.400;    0.000;22497.65977
 561.17;22412.631;  -13.580;    0.000;22426.21086
 561.45;22425.020;  -31.100;    0.000;22456.11953
 561.73;22431.449;  -25.680;    0.000;22457.12922
 562.00;22395.350;  -26.560;    0.000;22421.90961
 562.28;22397.189;  -20.620;    0.000;22417.80945
 562.56;22366.760;  -26.640;    0.000;22393.39977
 562.84;22377.141;  -11.530;    0.000;22388.67062
 563.12;22322.230;  -33.150;    0.000;22355.38047
 563.39;22287.779;  -30.760;    0.000;22318.53930
 563.67;22277.551;  -22.790;    0.000;22300.34078
 563.95;22212.240;  -23.690;    0.000;22235.93023
 564.23;22277.109;  -23.130;    0.000;22300.23937
 564.50;22231.570;  -16.770;    0.000;22248.34031
 564.78;22239.381;  -10.770;    0.000;22250.15086
 565.06;22175.561;  -24.010;    0.000;22199.57055
 565.34;22157.930;  -21.080;    0.000;22179.00969
 565.61;22143.609;  -15.850;    0.000;22159.45938
 565.89;22108.420;  -10.570;    0.000;22118.98992
 566.17;22078.221;  -33.940;    0.000;22112.16070
 566.45;22028.350;  -18.770;    0.000;22047.11961
 566.73;21952.961;  -28.520;    0.000;21981.48094
 567.00;21969.131;  -31.220;    0.000;22000.35086
 567.28;21919.580;  -26.710;    0.000;21946.29008
 567.56;21924.471;  -20.940;    0.000;21945.41070
 567.83;21880.439;  -22.790;    0.000;21903.22945
 568.11;21830.869;  -26.120;    0.000;21856.98914
 568.39;21814.721;  -30.490;    0.000;21845.21070
 568.67;21726.381;  -27.500;    0.000;21753.88086
 568.94;21699.400;  -23.260;    0.000;21722.66039
 569.22;21674.051;  -22.350;    0.000;21696.40078
 569.50;21617.730;  -31.970;    0.000;21649.70047
 569.78;21565.680;  -23.620;    0.000;21589.29969
 570.05;21589.500;  -30.470;    0.000;21619.97000
 570.33;21518.260;  -24.910;    0.000;21543.16977
 570.61;21496.711;  -15.430;    0.000;21512.14094
 570.88;21420.070;  -38.820;    0.000;21458.89031
 571.16;21400.400;  -23.130;    0.000;21423.53039
 571.44;21298.689;  -35.510;    0.000;21334.19945
 571.72;21237.199;  -20.230;    0.000;21257.42922
 571.99;21304.410;  -30.400;    0.000;21334.81016
 572.27;21178.699;  -20.910;    0.000;21199.60922
 572.55;21112.471;  -30.340;    0.000;21142.81070
 572.82;21082.590;  -20.980;    0.000;21103.56984
 573.10;20996.820;  -22.520;    0.000;21019.34031
 573.38;21000.439;  -33.590;    0.000;21034.02945
 573.65;20874.721;  -11.540;    0.000;20886.26070
 573.93;20852.080;  -23.340;    0.000;20875.42008
 574.21;20755.680;  -22.650;    0.000;20778.32969
 574.48;20686.779;  -27.240;    0.000;20714.01930
 574.76;20637.230;  -31.270;    0.000;20668.50047
 575.04;20577.119;  -15.830;    0.000;20592.94914
 575.32;20528.740;  -21.200;    0.000;20549.94024
 575.59;20502.461;  -16.300;    0.000;20518.76094
 575.87;20396.770;  -40.340;    0.000;20437.10953
 576.15;20293.160;  -10.810;    0.000;20303.97016
 576.42;20227.881;  -28.300;    0.000;20256.18086
 576.70;20191.900;  -33.860;    0.000;20225.76039
 576.98;20161.080;  -32.330;    0.000;20193.41008
 577.25;20057.330;  -28.350;    0.000;20085.68008
 577.53;20000.711;  -31.160;    0.000;20031.87094
 577.80;19920.461;  -29.180;    0.000;19949.64094
 578.08;19891.980;  -29.770;    0.000;19921.75047
 578.36;19831.000;  -21.590;    0.000;19852.59000
 578.63;19745.721;  -37.290;    0.000;19783.01070
 578.91;19679.430;  -26.150;    0.000;19705.57969
 579.19;19609.051;  -31.750;    0.000;19640.80078
 579.46;19506.061;  -24.900;    0.000;19530.96055
 579.74;19429.779;  -22.420;    0.000;19452.19930
 580.02;19379.170;  -29.350;    0.000;19408.51992
 580.29;19325.529;  -37.840;    0.000;19363.36930
 580.57;19217.391;  -30.530;    0.000;19247.92063
 580.84;19134.400;  -30.850;    0.000;19165.25039
 581.12;19085.289;  -27.750;    0.000;19113.03906
 581.40;19028.891;  -34.120;    0.000;19063.01062
 581.67;18908.740;  -30.300;    0.000;18939.04023
 581.95;18798.721;  -36.850;    0.000;18835.57070
 582.23;18771.949;  -28.420;    0.000;18800.36922
 582.50;18657.170;  -40.300;    0.000;18697.46992
 582.78;18532.539;  -28.770;    0.000;18561.30906
 583.05;18425.430;  -25.840;    0.000;18451.26969
 583.33;18383.279;  -21.520;    0.000;18404.79930
 583.61;18289.980;  -21.280;    0.000;18311.26047
 583.88;18202.211;  -18.760;    0.000;18220.97094
 584.16;18099.141;  -32.140;    0.000;18131.28062
 584.43;18056.400;  -29.000;    0.000;18085.40039
 584.71;17974.850;  -24.070;    0.000;17998.91961
 584.99;17872.520;  -21.770;    0.000;17894.28953
 585.26;17798.721;  -32.080;    0.000;17830.80070
 585.54;17709.670;  -36.460;    0.000;17746.12992
 585.81;17623.039;  -34.050;    0.000;17657.08906
 586.09;17560.029;  -15.310;    0.000;17575.33930
 586.37;17437.561;  -42.360;    0.000;17479.92055
 586.64;17380.100;  -24.820;    0.000;17404.91961
 586.92;17306.500;  -30.380;    0.000;17336.88000
 587.19;17274.490;  -24.020;    0.000;17298.51023
 587.47;17105.949;  -38.630;    0.000;17144.57922
 587.74;17028.490;  -24.440;    0.000;17052.93023
 588.02;16929.080;  -22.400;    0.000;16951.48008
 588.30;16879.369;  -31.970;    0.000;16911.33914
 588.57;16757.619;  -29.980;    0.000;16787.59914
 588.85;16673.430;  -32.590;    0.000;16706.01969
 589.12;16596.029;  -35.900;    0.000;16631.92930
 589.40;16520.080;  -22.810;    0.000;16542.89008
 589.67;16453.949;  -27.690;    0.000;16481.63922
 589.95;16345.330;  -11.930;    0.000;16357.26008
 590.22;16268.890;  -29.920;    0.000;16298.80965
 590.50;16188.350;  -19.810;    0.000;16208.15961
 590.77;16130.550;  -32.070;    0.000;16162.61980
 591.05;15981.630;  -28.680;    0.000;16010.30988
 591.33;15954.710;  -29.200;    0.000;15983.90996
 591.60;15822.930;  -34.000;    0.000;15856.92969
 591.88;15763.150;  -25.320;    0.000;15788.47039
 592.15;15684.000;  -30.460;    0.000;15714.46000
 592.43;15549.780;  -39.680;    0.000;15589.46027
 592.70;15464.950;  -23.960;    0.000;15488.91019
 592.98;15353.980;  -39.190;    0.000;15393.17047
 593.25;15294.360;  -10.770;    0.000;15305.13035
 593.53;15164.060;  -29.230;    0.000;15193.28957
 593.80;15065.720;  -30.750;    0.000;15096.46973
 594.08;14979.200;  -37.180;    0.000;15016.38020
 594.35;14942.430;  -31.070;    0.000;14973.49969
 594.63;14827.180;  -21.940;    0.000;14849.11969
 594.90;14738.700;  -34.240;    0.000;14772.94020
 595.18;14606.650;  -26.450;    0.000;14633.10039
 595.45;14502.350;  -30.900;    0.000;14533.24961
 595.73;14422.890;  -35.600;    0.000;14458.48965
 596.00;14360.990;  -29.900;    0.000;14390.89023
 596.28;14243.820;  -41.410;    0.000;14285.23031
 596.55;14142.810;  -36.570;    0.000;14179.37957
 596.83;14037.290;  -34.320;    0.000;14071.61004
 597.10;14038.530;  -17.350;    0.000;14055.88027
 597.38;13864.330;  -25.390;    0.000;13889.72008
 597.65;13766.850;  -23.040;    0.000;13789.88961
 597.93;13682.410;  -47.520;    0.000;13729.93016
 598.20;13572.300;  -29.950;    0.000;13602.24981
 598.48;13503.560;  -39.720;    0.000;13543.27957
 598.75;13386.090;  -38.990;    0.000;13425.07985
 599.03;13339.170;  -25.450;    0.000;13364.61992
 599.30;13208.830;  -33.700;    0.000;13242.53008
 599.58;13152.480;  -24.090;    0.000;13176.57047
 599.85;13086.170;  -20.370;    0.000;13106.53992
 600.12;12999.670;  -29.390;    0.000;13029.05992
 600.40;12843.680;  -39.550;    0.000;12883.22969
 600.67;12753.630;  -39.490;    0.000;12793.11988
 600.95;12686.750;  -24.510;    0.000;12711.26000
 601.22;12626.850;  -31.680;    0.000;12658.52961
 601.50;12527.220;  -26.410;    0.000;12553.62973
 601.77;12427.280;  -33.040;    0.000;12460.32027
 602.05;12350.930;  -12.840;    0.000;12363.76969
 602.32;12266.500;  -26.150;    0.000;12292.65000
 602.59;12166.370;  -37.960;    0.000;12204.33012
 602.87;12110.870;  -36.580;    0.000;12147.45012
 603.14;12024.380;  -44.730;    0.000;12069.10988
 603.42;11893.230;  -26.580;    0.000;11919.81047
 603.69;11835.630;  -37.870;    0.000;11873.49988
 603.97;11769.830;  -43.790;    0.000;11813.62008
 604.24;11669.420;  -40.170;    0.000;11709.58992
 604.51;11589.980;  -22.580;    0.000;11612.56047
 604.79;11540.730;  -25.880;    0.000;11566.61047
 605.06;11440.060;  -33.420;    0.000;11473.47957
 605.34;11358.520;  -29.770;    0.000;11388.28953
 605.61;11334.920;  -40.440;    0.000;11375.35992
 605.89;11214.830;  -27.190;    0.000;11242.02008
 606.16;11156.030;  -39.370;    0.000;11195.40027
 606.43;11092.670;  -15.550;    0.000;11108.21992
 606.71;10985.010;  -48.100;    0.000;11033.10976
 606.98;10925.690;  -35.410;    0.000;10961.10043
 607.26;10831.500;  -35.790;    0.000;10867.29000
 607.53;10785.640;  -36.110;    0.000;10821.74965
 607.80;10698.680;  -44.650;    0.000;10743.32969
 608.08;10655.470;  -39.850;    0.000;10695.31973
 608.35;10547.930;  -41.460;    0.000;10589.38969
 608.62;10541.620;  -33.970;    0.000;10575.59012
 608.90;10451.090;  -39.640;    0.000;10490.72984
 609.17;10384.750;  -32.290;    0.000;10417.04000
 609.45;10322.790;  -43.540;    0.000;10366.33004
 609.72;10257.650;  -25.940;    0.000;10283.59039
 609.99;10192.760;  -54.580;    0.000;10247.33977
 610.27;10124.960;  -33.980;    0.000;10158.93996
 610.54;10082.200;  -53.950;    0.000;10136.15020
 610.81;10025.070;  -40.300;    0.000;10065.37031
 611.09; 9960.770;  -31.150;    0.000;9991.91953
 611.36; 9900.130;  -35.360;    0.000;9935.48988
 611.64; 9796.460;  -44.100;    0.000;9840.55996
 611.91; 9766.600;  -32.700;    0.000;9799.29961
 612.18; 9702.860;  -34.140;    0.000;9737.00035
 612.46; 9628.860;  -36.560;    0.000;9665.42035
 612.73; 9560.630;  -39.030;    0.000;9599.65988
 613.00; 9505.570;  -38.110;    0.000;9543.68031
 613.28; 9452.800;  -32.120;    0.000;9484.91980
 613.55; 9339.220;  -45.300;    0.000;9384.51973
 613.82; 9291.960;  -51.080;    0.000;9343.03996
 614.10; 9183.800;  -41.190;    0.000;9224.98980
 614.37; 9077.160;  -41.870;    0.000;9119.03016
 614.64; 8981.710;  -36.410;    0.000;9018.11996
 614.92; 8906.690;  -39.630;    0.000;8946.32043
 615.19; 8842.570;  -29.580;    0.000;8872.15031
 615.46; 8680.260;  -41.030;    0.000;8721.28976
 615.74; 8608.290;  -36.750;    0.000;8645.04004
 616.01; 8439.280;  -53.870;    0.000;8493.15027
 616.28; 8300.420;  -41.570;    0.000;8341.98992
 616.56; 8165.160;  -47.850;    0.000;8213.01015
 616.83; 8053.540;  -23.950;    0.000;8077.49004
 617.10; 7995.020;  -34.050;    0.000;8029.07002
 617.37; 7987.660;  -25.940;    0.000;8013.60016
 617.65; 8073.900;  -41.240;    0.000;8115.13990
 617.92; 8124.900;  -29.900;    0.000;8154.79990
 618.19; 8056.260;  -46.220;    0.000;8102.47977
 618.47; 7969.390;  -38.070;    0.000;8007.46014
 618.74; 7964.920;  -50.090;    0.000;8015.00992
 619.01; 7937.920;  -38.340;    0.000;7976.25992
 619.28; 7901.670;  -43.640;    0.000;7945.30992
 619.56; 7878.440;  -38.060;    0.000;7916.49994
 619.83; 7832.180;  -39.710;    0.000;7871.89017
 620.10; 7770.610;  -31.220;    0.000;7801.82986
 620.38; 7686.650;  -52.170;    0.000;7738.81990
 620.65; 7664.220;  -46.120;    0.000;7710.34021
 620.92; 7623.900;  -42.600;    0.000;7666.49990
 621.19; 7650.080;  -43.000;    0.000;7693.08008
 621.47; 7657.120;  -40.820;    0.000;7697.94012
 621.74; 7640.850;  -41.630;    0.000;7682.48010
 622.01; 7675.820;  -43.850;    0.000;7719.66982
 622.28; 7667.490;  -32.550;    0.000;7700.04023
 622.56; 7659.440;  -42.800;    0.000;7702.23994
 622.83; 7614.850;  -37.130;    0.000;7651.98010
 623.10; 7585.870;  -48.260;    0.000;7634.13012
 623.38; 7581.390;  -35.400;    0.000;7616.79014
 623.65; 7567.910;  -17.330;    0.000;7585.24016
 623.92; 7493.710;  -32.240;    0.000;7525.94996
 624.19; 7456.110;  -53.540;    0.000;7509.64986
 624.46; 7427.240;  -30.480;    0.000;7457.72023
 624.74; 7405.410;  -39.050;    0.000;7444.46016
 625.01; 7389.530;  -26.210;    0.000;7415.73978
 625.28; 7337.130;  -44.030;    0.000;7381.15988
 625.55; 7284.410;  -44.700;    0.000;7329.11016
 625.83; 7283.930;  -43.650;    0.000;7327.58018
 626.10; 7254.990;  -35.370;    0.000;7290.36023
 626.37; 7216.600;  -51.170;    0.000;7267.77010
 626.64; 7191.350;  -46.220;    0.000;7237.57010
 626.92; 7157.920;  -40.280;    0.000;7198.19992
 627.19; 7141.520;  -37.500;    0.000;7179.02002
 627.46; 7090.410;  -39.980;    0.000;7130.39016
 627.73; 7096.640;  -33.180;    0.000;7129.82014
 628.00; 7043.110;  -39.210;    0.000;7082.31986
 628.28; 7022.940;  -35.220;    0.000;7058.15994
 628.55; 6964.980;  -46.210;    0.000;7011.18998
 628.82; 6956.760;  -27.350;    0.000;6984.10977
 629.09; 6874.790;  -47.190;    0.000;6921.98004
 629.36; 6879.060;  -42.190;    0.000;6921.25006
 629.64; 6898.890;  -41.460;    0.000;6940.35014
 629.91; 6821.490;  -32.990;    0.000;6854.48024
 630.18; 6816.210;  -50.880;    0.000;6867.08996
 630.45; 6768.660;  -51.820;    0.000;6820.48016
 630.72; 6707.530;  -62.210;    0.000;6769.73978
 631.00; 6704.370;  -42.860;    0.000;6747.23012
 631.27; 6659.780;  -42.790;    0.000;6702.56979
 631.54; 6671.690;  -43.780;    0.000;6715.46994
 631.81; 6626.390;  -35.020;    0.000;6661.41014
 632.08; 6576.770;  -40.130;    0.000;6616.90002
 632.35; 6534.800;  -50.910;    0.000;6585.70980
 632.63; 6556.470;  -43.240;    0.000;6599.71022
 632.90; 6528.600;  -44.370;    0.000;6572.97010
 633.17; 6509.970;  -40.840;    0.000;6550.81021
 633.44; 6438.010;  -52.000;    0.000;6490.00977
 633.71; 6433.670;  -32.170;    0.000;6465.83992
 633.98; 6429.740;  -30.510;    0.000;6460.25023
 634.25; 6406.840;  -34.090;    0.000;6440.92984
 634.53; 6403.270;  -34.830;    0.000;6438.10002
 634.80; 6390.180;  -39.750;    0.000;6429.93018
 635.07; 6333.900;  -49.230;    0.000;6383.12990
 635.34; 6375.070;  -23.990;    0.000;6399.05982
 635.61; 6362.940;  -50.510;    0.000;6413.44994
 635.88; 6388.030;  -44.250;    0.000;6432.27979
 636.15; 6364.760;  -43.150;    0.000;6407.90977
 636.43; 6358.940;  -38.010;    0.000;6396.94994
 636.70; 6359.950;  -43.060;    0.000;6403.01020
 636.97; 6354.270;  -38.410;    0.000;6392.68002
 637.24; 6266.270;  -50.350;    0.000;6316.62002
 637.51; 6163.230;  -31.980;    0.000;6195.20998
 637.78; 6098.110;  -46.720;    0.000;6144.82986
 638.05; 6050.940;  -39.310;    0.000;6090.24994
 638.32; 6027.040;  -31.150;    0.000;6058.19004
 638.60; 5979.850;  -44.910;    0.000;6024.76010
 638.87; 5938.680;  -50.240;    0.000;5988.92018
 639.14; 5910.960;  -43.540;    0.000;5954.49996
 639.41; 5876.590;  -32.120;    0.000;5908.70984
 639.68; 5859.140;  -45.810;    0.000;5904.95014
 639.95; 5778.380;  -51.890;    0.000;5830.26988
 640.22; 5756.720;  -48.220;    0.000;5804.94022
 640.49; 5734.770;  -45.740;    0.000;5780.51002
 640.76; 5683.410;  -35.730;    0.000;5719.14016
 641.03; 5629.190;  -50.560;    0.000;5679.74994
 641.30; 5564.590;  -42.310;    0.000;5606.89985
 641.58; 5492.550;  -49.140;    0.000;5541.68980
 641.85; 5448.180;  -43.210;    0.000;5491.39017
 642.12; 5388.600;  -51.320;    0.000;5439.92010
 642.39; 5370.150;  -48.990;    0.000;5419.13990
 642.66; 5333.550;  -45.590;    0.000;5379.13980
 642.93; 5280.760;  -29.310;    0.000;5310.06977
 643.20; 5228.420;  -45.820;    0.000;5274.23992
 643.47; 5214.070;  -42.670;    0.000;5256.73982
 643.74; 5153.450;  -51.730;    0.000;5205.18019
 644.01; 5121.360;  -42.950;    0.000;5164.30986
 644.28; 5092.240;  -60.830;    0.000;5153.07024
 644.55; 5086.150;  -47.560;    0.000;5133.70990
 644.82; 5046.510;  -32.270;    0.000;5078.77977
 645.09; 4999.230;  -35.500;    0.000;5034.72998
 645.36; 4971.590;  -50.290;    0.000;5021.87984
 645.63; 4944.970;  -43.920;    0.000;4988.89021
 645.91; 4898.730;  -46.930;    0.000;4945.65998
 646.18; 4879.360;  -38.010;    0.000;4917.36986
 646.45; 4812.840;  -41.290;    0.000;4854.12984
 646.72; 4795.820;  -48.770;    0.000;4844.58982
 646.99; 4786.020;  -41.040;    0.000;4827.06002
 647.26; 4768.790;  -41.240;    0.000;4810.03004
 647.53; 4699.430;  -54.690;    0.000;4754.12017
 647.80; 4703.200;  -27.780;    0.000;4730.98020
 648.07; 4651.320;  -58.730;    0.000;4710.04982
 648.34; 4653.830;  -34.280;    0.000;4688.11008
 648.61; 4575.380;  -47.500;    0.000;4622.87988
 648.88; 4572.690;  -44.020;    0.000;4616.70994
 649.15; 4545.540;  -52.630;    0.000;4598.17004
 649.42; 4509.810;  -48.650;    0.000;4558.46006
 649.69; 4514.760;  -46.880;    0.000;4561.63977
 649.96; 4452.550;  -41.340;    0.000;4493.88980
 650.23; 4469.560;  -59.960;    0.000;4529.52006
 650.50; 4419.530;  -53.140;    0.000;4472.66978
 650.77; 4363.780;  -61.220;    0.000;4424.99979
 651.04; 4370.160;  -42.700;    0.000;4412.86016
 651.31; 4314.570;  -58.050;    0.000;4372.61982
 651.58; 4294.250;  -46.320;    0.000;4340.57000
 651.85; 4257.230;  -57.610;    0.000;4314.83998
 652.12; 4253.940;  -30.010;    0.000;4283.94994
 652.39; 4237.460;  -47.470;    0.000;4284.92996
 652.66; 4215.100;  -50.490;    0.000;4265.59010
 652.93; 4158.110;  -50.350;    0.000;4208.45986
 653.20; 4153.860;  -40.500;    0.000;4194.35986
 653.47; 4088.900;  -56.060;    0.000;4144.95990
 653.74; 4080.810;  -42.910;    0.000;4123.72006
 654.01; 4075.360;  -45.890;    0.000;4121.25011
 654.28; 4058.310;  -39.800;    0.000;4098.11006
 654.55; 3996.910;  -56.340;    0.000;4053.24991
 654.81; 4011.720;  -45.420;    0.000;4057.13997
 655.08; 3955.200;  -44.350;    0.000;3999.54995
 655.35; 3941.220;  -44.320;    0.000;3985.53997
 655.62; 3906.040;  -45.660;    0.000;3951.70004
 655.89; 3872.120;  -50.060;    0.000;3922.18012
 656.16; 3837.880;  -51.110;    0.000;3888.98988
 656.43; 3833.920;  -52.210;    0.000;3886.12992
 656.70; 3778.000;  -57.420;    0.000;3835.42000
 656.97; 3793.930;  -49.610;    0.000;3843.53993
 657.24; 3739.610;  -51.930;    0.000;3791.54011
 657.51; 3730.960;  -43.090;    0.000;3774.04996
 657.78; 3722.200;  -43.490;    0.000;3765.68995
 658.05; 3686.660;  -42.030;    0.000;3728.68991
 658.32; 3674.760;  -53.310;    0.000;3728.07001
 658.59; 3636.540;  -44.810;    0.000;3681.35004
 658.86; 3598.160;  -50.680;    0.000;3648.83991
 659.12; 3581.710;  -47.800;    0.000;3629.50996
 659.39; 3546.530;  -54.290;    0.000;3600.82003
 659.66; 3549.790;  -36.090;    0.000;3585.88004
 659.93; 3506.850;  -42.230;    0.000;3549.08010
 660.20; 3489.280;  -37.790;    0.000;3527.07003
 660.47; 3460.710;  -53.470;    0.000;3514.17996
 660.74; 3425.170;  -52.820;    0.000;3477.98992
 661.01; 3431.460;  -43.790;    0.000;3475.24996
 661.28; 3409.220;  -40.930;    0.000;3450.14997
 661.55; 3408.710;  -13.100;    0.000;3421.80996
 661.81; 3339.930;  -55.540;    0.000;3395.46993
 662.08; 3322.670;  -46.830;    0.000;3369.49992
 662.35; 3280.250;  -50.920;    0.000;3331.17000
 662.62; 3249.890;  -52.300;    0.000;3302.18989
 662.89; 3232.860;  -51.970;    0.000;3284.83011
 663.16; 3213.760;  -49.180;    0.000;3262.94001
 663.43; 3181.570;  -46.940;    0.000;3228.51007
 663.70; 3168.660;  -59.600;    0.000;3228.25991
 663.96; 3176.340;  -43.330;    0.000;3219.67009
 664.23; 3113.410;  -64.220;    0.000;3177.62991
 664.50; 3106.310;  -48.710;    0.000;3155.02006
 664.77; 3080.430;  -51.030;    0.000;3131.45993
 665.04; 3077.520;  -48.780;    0.000;3126.30002
 665.31; 3022.920;  -54.760;    0.000;3077.67992
 665.58; 3012.060;  -49.660;    0.000;3061.72006
 665.84; 3000.410;  -55.670;    0.000;3056.07991
 666.11; 2953.520;  -49.530;    0.000;3003.05002
 666.38; 2925.450;  -56.960;    0.000;2982.40995
 666.65; 2925.610;  -48.440;    0.000;2974.05011
 666.92; 2907.690;  -61.380;    0.000;2969.06994
 667.19; 2907.780;  -50.390;    0.000;2958.17003
 667.46; 2873.930;  -49.900;    0.000;2923.82993
 667.72; 2849.300;  -43.000;    0.000;2892.30005
 667.99; 2822.080;  -50.920;    0.000;2873.00008
 668.26; 2815.510;  -29.430;    0.000;2844.94001
 668.53; 2759.190;  -61.920;    0.000;2821.10994
 668.80; 2775.700;  -33.970;    0.000;2809.66995
 669.06; 2748.520;  -51.800;    0.000;2800.32002
 669.33; 2736.730;  -43.590;    0.000;2780.31998
 669.60; 2672.410;  -58.870;    0.000;2731.27991
 669.87; 2672.950;  -46.440;    0.000;2719.38995
 670.14; 2676.770;  -50.360;    0.000;2727.13002
 670.41; 2636.220;  -41.980;    0.000;2678.19997
 670.67; 2625.120;  -42.520;    0.000;2667.64012
 670.94; 2611.120;  -54.670;    0.000;2665.79012
 671.21; 2572.940;  -45.490;    0.000;2618.42994
 671.48; 2561.840;  -49.520;    0.000;2611.36009
 671.75; 2521.180;  -59.790;    0.000;2580.96993
 672.01; 2521.590;  -44.080;    0.000;2565.67009
 672.28; 2490.400;  -52.640;    0.000;2543.03990
 672.55; 2469.370;  -37.120;    0.000;2506.49012
 672.82; 2455.240;  -54.630;    0.000;2509.86999
 673.08; 2452.680;  -49.040;    0.000;2501.71993
 673.35; 2405.370;  -55.440;    0.000;2460.81012
 673.62; 2410.520;  -46.870;    0.000;2457.39002
 673.89; 2377.930;  -55.170;    0.000;2433.09993
 674.16; 2361.430;  -57.760;    0.000;2419.18993
 674.42; 2364.280;  -47.940;    0.000;2412.22003
 674.69; 2335.490;  -39.700;    0.000;2375.18999
 674.96; 2297.040;  -50.250;    0.000;2347.29004
 675.23; 2275.450;  -61.580;    0.000;2337.02995
 675.49; 2284.560;  -58.140;    0.000;2342.70006
 675.76; 2230.260;  -47.890;    0.000;2278.15001
 676.03; 2254.170;  -42.090;    0.000;2296.25992
 676.30; 2219.300;  -51.680;    0.000;2270.98005
 676.56; 2172.840;  -56.460;    0.000;2229.30009
 676.83; 2198.400;  -43.720;    0.000;2242.11990
 677.10; 2150.330;  -53.570;    0.000;2203.90008
 677.37; 2152.410;  -48.110;    0.000;2200.51991
 677.63; 2114.470;  -53.920;    0.000;2168.38997
 677.90; 2102.620;  -50.800;    0.000;2153.42012
 678.17; 2096.550;  -51.820;    0.000;2148.37005
 678.44; 2089.200;  -46.980;    0.000;2136.17995
 678.70; 2053.580;  -63.530;    0.000;2117.11008
 678.97; 2032.730;  -55.410;    0.000;2088.13998
 679.24; 2041.950;  -54.480;    0.000;2096.42995
 679.50; 1980.030;  -62.210;    0.000;2042.24003
 679.77; 2005.420;  -50.610;    0.000;2056.03004
 680.04; 1974.090;  -46.910;    0.000;2020.99997
 680.31; 1968.150;  -56.210;    0.000;2024.36002
 680.57; 1941.690;  -54.280;    0.000;1995.96994
 680.84; 1936.240;  -61.530;    0.000;1997.76999
 681.11; 1906.060;  -44.650;    0.000;1950.71006
 681.37; 1908.680;  -59.060;    0.000;1967.74006
 681.64; 1907.910;  -43.030;    0.000;1950.94003
 681.91; 1853.090;  -58.290;    0.000;1911.37997
 682.17; 1856.590;  -37.730;    0.000;1894.31997
 682.44; 1820.890;  -56.890;    0.000;1877.78001
 682.71; 1820.560;  -49.600;    0.000;1870.16006
 682.98; 1810.220;  -57.550;    0.000;1867.76997
 683.24; 1798.720;  -57.200;    0.000;1855.91997
 683.51; 1767.980;  -61.060;    0.000;1829.03998
 683.78; 1749.120;  -56.140;    0.000;1805.25999
 684.04; 1744.750;  -56.030;    0.000;1800.78000
 684.31; 1731.300;  -65.410;    0.000;1796.71005
 684.58; 1709.510;  -60.330;    0.000;1769.84001
 684.84; 1718.810;  -45.720;    0.000;1764.53006
 685.11; 1670.560;  -61.320;    0.000;1731.88006
 685.38; 1683.740;  -54.090;    0.000;1737.82999
 685.64; 1663.860;  -55.840;    0.000;1719.69999
 685.91; 1666.090;  -48.800;    0.000;1714.88997
 686.17; 1644.270;  -52.500;    0.000;1696.77002
 686.44; 1641.520;  -47.040;    0.000;1688.56002
 686.71; 1609.960;  -69.340;    0.000;1679.29996
 686.97; 1608.920;  -61.270;    0.000;1670.19004
 687.24; 1578.740;  -55.300;    0.000;1634.03999
 687.51; 1576.800;  -55.730;    0.000;1632.53005
 687.77; 1552.700;  -55.320;    0.000;1608.01995
 688.04; 1543.800;  -53.560;    0.000;1597.36005
 688.31; 1523.250;  -60.360;    0.000;1583.61000
 688.57; 1537.520;  -42.800;    0.000;1580.32002
 688.84; 1510.780;  -54.400;    0.000;1565.18003
 689.10; 1508.380;  -60.080;    0.000;1568.46001
 689.37; 1482.450;  -53.200;    0.000;1535.64995
 689.64; 1464.990;  -62.880;    0.000;1527.86999
 689.90; 1448.900;  -66.970;    0.000;1515.87003
 690.17; 1432.450;  -61.960;    0.000;1494.40995
 690.44; 1417.660;  -71.470;    0.000;1489.13004
 690.70; 1420.950;  -48.020;    0.000;1468.96995
 690.97; 1386.490;  -67.550;    0.000;1454.03999
 691.23; 1396.300;  -53.030;    0.000;1449.33005
 691.50; 1370.380;  -53.280;    0.000;1423.66000
 691.77; 1365.980;  -59.250;    0.000;1425.22998
 692.03; 1339.880;  -59.590;    0.000;1399.47001
 692.30; 1347.050;  -52.970;    0.000;1400.02005
 692.56; 1310.060;  -61.140;    0.000;1371.20006
 692.83; 1320.900;  -49.500;    0.000;1370.40002
 693.10; 1296.390;  -53.280;    0.000;1349.67001
 693.36; 1292.390;  -42.000;    0.000;1334.39001
 693.63; 1257.310;  -64.510;    0.000;1321.82006
 693.89; 1258.310;  -55.350;    0.000;1313.66006
 694.16; 1257.560;  -50.790;    0.000;1308.35006
 694.42; 1224.810;  -51.270;    0.000;1276.08006
 694.69; 1228.510;  -40.380;    0.000;1268.89001
 694.96; 1222.920;  -33.890;    0.000;1256.81004
 695.22; 1188.360;  -55.260;    0.000;1243.61998
 695.49; 1197.920;  -31.710;    0.000;1229.63004
 695.75; 1171.090;  -66.650;    0.000;1237.73997
 696.02; 1163.710;  -49.310;    0.000;1213.01996
 696.28; 1135.760;  -46.910;    0.000;1182.67001
 696.55; 1137.740;  -54.660;    0.000;1192.39999
 696.81; 1096.250;  -62.250;    0.000;1158.50000
 697.08; 1114.510;  -54.150;    0.000;1168.66001
 697.34; 1083.260;  -57.540;    0.000;1140.80001
 697.61; 1085.040;  -56.810;    0.000;1141.85004
 697.88; 1056.290;  -62.100;    0.000;1118.39004
 698.14; 1050.560;  -58.940;    0.000;1109.50006
 698.41; 1056.370;  -56.650;    0.000;1113.02000
 698.67; 1029.510;  -52.920;    0.000;1082.43001
 698.94; 1015.730;  -58.190;    0.000;1073.91998
 699.20; 1016.120;  -47.850;    0.000;1063.96999
 699.47;  985.360;  -68.830;    0.000;1054.18999
 699.73;  975.410;  -58.380;    0.000;1033.78997
 700.00;  949.720;  -64.630;    0.000;1014.34997
 700.26;  967.470;  -59.530;    0.000;1026.99997
 700.53;  945.430;  -54.230;    0.000;999.65999
 700.79;  932.890;  -54.050;    0.000;986.94001
 701.06;  909.740;  -64.410;    0.000;974.14999
 701.32;  915.300;  -47.200;    0.000;962.49999
 701.59;  896.100;  -59.220;    0.000;955.31998
 701.85;  888.780;  -57.540;    0.000;946.32003
 702.12;  862.890;  -64.900;    0.000;927.79002
 702.38;  855.400;  -52.820;    0.000;908.22002
 702.65;  844.830;  -57.340;    0.000;902.17002
 702.91;  839.260;  -41.130;    0.000;880.39001
 703.18;  814.090;  -57.340;    0.000;871.43003
 703.44;  809.420;  -65.650;    0.000;875.06998
 703.71;  800.890;  -50.250;    0.000;851.14001
 703.97;  786.410;  -60.810;    0.000;847.21997
 704.24;  782.240;  -48.680;    0.000;830.91999
 704.50;  758.410;  -62.670;    0.000;821.07997
 704.76;  750.900;  -53.590;    0.000;804.49002
 705.03;  738.840;  -53.270;    0.000;792.11003
 705.29;  722.420;  -68.330;    0.000;790.74998
 705.56;  713.690;  -47.460;    0.000;761.15000
 705.82;  704.110;  -62.540;    0.000;766.64999
 706.09;  715.280;  -35.470;    0.000;750.75003
 706.35;  670.870;  -65.830;    0.000;736.70000
 706.62;  681.260;  -43.730;    0.000;724.99001
 706.88;  644.780;  -65.400;    0.000;710.18003
 707.15;  638.400;  -63.540;    0.000;701.94003
 707.41;  616.200;  -69.930;    0.000;686.13001
 707.67;  620.150;  -58.660;    0.000;678.81002
 707.94;  618.100;  -47.320;    0.000;665.41998
 708.20;  594.990;  -61.750;    0.000;656.73999
 708.47;  591.220;  -56.200;    0.000;647.41997
 708.73;  578.620;  -55.700;    0.000;634.32000
 709.00;  574.740;  -61.320;    0.000;636.05999
 709.26;  575.600;  -47.280;    0.000;622.87997
 709.52;  543.480;  -59.520;    0.000;602.99998
 709.79;  550.790;  -47.280;    0.000;598.06998
 710.05;  538.030;  -65.410;    0.000;603.44003
 710.32;  537.390;  -49.210;    0.000;586.60001
 710.58;  513.740;  -64.440;    0.000;578.17999
 710.84;  508.890;  -52.760;    0.000;561.65001
 711.11;  506.380;  -50.760;    0.000;557.14000
 711.37;  489.720;  -48.120;    0.000;537.84000
 711.64;  474.800;  -59.290;    0.000;534.08999
 711.90;  486.990;  -47.730;    0.000;534.71999
 712.16;  472.590;  -57.190;    0.000;529.77999
 712.43;  461.700;  -47.120;    0.000;508.82001
 712.69;  458.010;  -59.770;    0.000;517.78001
 712.96;  447.080;  -61.520;    0.000;508.59999
 713.22;  440.230;  -63.180;    0.000;503.41001
 713.48;  432.940;  -63.970;    0.000;496.91000
 713.75;  433.930;  -45.320;    0.000;479.24999
 714.01;  424.620;  -56.290;    0.000;480.91000
 714.27;  424.600;  -61.760;    0.000;486.36000
 714.54;  426.530;  -48.990;    0.000;475.52000
 714.80;  411.260;  -44.990;    0.000;456.25001
 715.06;  413.950;  -48.390;    0.000;462.34001
 715.33;  390.690;  -64.460;    0.000;455.15000
 715.59;  401.780;  -65.090;    0.000;466.87000
 715.86;  385.940;  -62.730;    0.000;448.67000
 716.12;  394.140;  -44.380;    0.000;438.52002
 716.38;  388.100;  -53.380;    0.000;441.48001
 716.65;  376.290;  -62.740;    0.000;439.03001
 716.91;  378.960;  -65.510;    0.000;444.46999
 717.17;  386.210;  -53.390;    0.000;439.59999
 717.44;  370.780;  -50.170;    0.000;420.95000
 717.70;  368.200;  -58.520;    0.000;426.72001
 717.96;  362.360;  -59.390;    0.000;421.74998
 718.23;  368.450;  -47.140;    0.000;415.59001
 718.49;  347.330;  -63.040;    0.000;410.36999
 718.75;  348.760;  -56.440;    0.000;405.20001
 719.02;  355.020;  -65.540;    0.000;420.55999
 719.28;  346.920;  -51.330;    0.000;398.25002
 719.54;  342.220;  -66.400;    0.000;408.62000
 719.80;  350.920;  -60.320;    0.000;411.24001
 720.07;  352.490;  -63.050;    0.000;415.53999
 720.33;  333.290;  -49.840;    0.000;383.13001
 720.59;  335.050;  -54.840;    0.000;389.88999
 720.86;  329.720;  -73.400;    0.000;403.12000
 721.12;  342.990;  -54.650;    0.000;397.63999
 721.38;  348.830;  -55.690;    0.000;404.51999
 721.65;  336.200;  -54.520;    0.000;390.72001
 721.91;  353.480;  -52.450;    0.000;405.93001
 722.17;  323.130;  -76.730;    0.000;399.86001
 722.43;  326.960;  -49.480;    0.000;376.43999
 722.70;  330.110;  -65.770;    0.000;395.87998
 722.96;  332.240;  -53.300;    0.000;385.53999
 723.22;  329.600;  -73.430;    0.000;403.03001
 723.48;  324.830;  -56.180;    0.000;381.00999
 723.75;  305.680;  -67.640;    0.000;373.31999
 724.01;  310.040;  -55.620;    0.000;365.66001
 724.27;  312.300;  -67.820;    0.000;380.11999
 724.54;  325.810;  -47.620;    0.000;373.43000
 724.80;  311.280;  -66.900;    0.000;378.18000
 725.06;  318.540;  -58.380;    0.000;376.92001
 725.32;  326.970;  -52.140;    0.000;379.11000
 725.59;  309.690;  -63.950;    0.000;373.64000
 725.85;  312.420;  -72.120;    0.000;384.54002
 726.11;  320.100;  -55.390;    0.000;375.49001
 726.37;  311.400;  -64.820;    0.000;376.21999
 726.64;  336.280;  -37.500;    0.000;373.78000
 726.90;  321.510;  -56.310;    0.000;377.82001
 727.16;  316.970;  -54.440;    0.000;371.41000
 727.42;  315.790;  -60.840;    0.000;376.63001
 727.68;  311.960;  -53.090;    0.000;365.04999
 727.95;  307.730;  -76.660;    0.000;384.39001
 728.21;  316.070;  -49.790;    0.000;365.86001
 728.47;  309.760;  -58.260;    0.000;368.02001
 728.73;  324.040;  -45.620;    0.000;369.66001
 729.00;  300.730;  -57.750;    0.000;358.48001
 729.26;  321.510;  -46.240;    0.000;367.75001
 729.52;  287.010;  -69.960;    0.000;356.97001
 729.78;  308.250;  -58.640;    0.000;366.89000
 730.04;  309.360;  -58.120;    0.000;367.47998
 730.31;  287.720;  -64.750;    0.000;352.47000
 730.57;  280.710;  -66.880;    0.000;347.58999
 730.83;  299.250;  -59.830;    0.000;359.08000
 731.09;  298.410;  -55.260;    0.000;353.67000
 731.35;  295.300;  -58.140;    0.000;353.43999
 731.62;  278.690;  -73.940;    0.000;352.63000
 731.88;  295.080;  -62.720;    0.000;357.79999
 732.14;  281.980;  -57.910;    0.000;339.89001
 732.40;  279.850;  -69.570;    0.000;349.42001
 732.66;  274.860;  -59.720;    0.000;334.57999
 732.92;  278.860;  -69.610;    0.000;348.46999
 733.19;  273.000;  -64.460;    0.000;337.46000
 733.45;  282.940;  -53.510;    0.000;336.45000
 733.71;  271.870;  -62.160;    0.000;334.02999
 733.97;  311.190;  -25.260;    0.000;336.45000
 734.23;  268.470;  -66.750;    0.000;335.22000
 734.49;  270.940;  -64.230;    0.000;335.17001
 734.76;  278.490;  -58.640;    0.000;337.12999
 735.02;  268.140;  -59.310;    0.000;327.45002
 735.28;  276.480;  -55.300;    0.000;331.78001
 735.54;  269.350;  -60.740;    0.000;330.09001
 735.80;  253.520;  -72.340;    0.000;325.86000
 736.06;  268.760;  -54.220;    0.000;322.98001
 736.32;  247.090;  -66.000;    0.000;313.09000
 736.59;  263.740;  -71.880;    0.000;335.61999
 736.85;  258.600;  -57.030;    0.000;315.63000
 737.11;  244.900;  -64.070;    0.000;308.96999
 737.37;  239.550;  -76.050;    0.000;315.60001
 737.63;  246.880;  -66.390;    0.000;313.27000
 737.89;  250.030;  -57.810;    0.000;307.84000
 738.15;  252.550;  -49.020;    0.000;301.57000
 738.41;  236.390;  -71.740;    0.000;308.13000
 738.67;  244.010;  -53.450;    0.000;297.46000
 738.94;  225.740;  -73.730;    0.000;299.47001
 739.20;  217.330;  -71.160;    0.000;288.49001
 739.46;  233.900;  -57.050;    0.000;290.94999
 739.72;  228.100;  -73.350;    0.000;301.45000
 739.98;  216.480;  -62.480;    0.000;278.96000
 740.24;  227.720;  -56.860;    0.000;284.58000
 740.50;  220.050;  -57.360;    0.000;277.41000
 740.76;  218.200;  -68.690;    0.000;286.89000
 741.02;  202.390;  -70.870;    0.000;273.26000
 741.28;  225.050;  -58.510;    0.000;283.56000
 741.54;  199.930;  -53.990;    0.000;253.91999
 741.81;  215.850;  -55.250;    0.000;271.10001
 742.07;  193.310;  -66.200;    0.000;259.50999
 742.33;  220.370;  -48.910;    0.000;269.27999
 742.59;  208.050;  -60.130;    0.000;268.18000
 742.85;  203.600;  -55.100;    0.000;258.70000
 743.11;  184.900;  -76.530;    0.000;261.42999
 743.37;  194.550;  -61.350;    0.000;255.90000
 743.63;  178.400;  -75.800;    0.000;254.20000
 743.89;  196.730;  -59.440;    0.000;256.16999
 744.15;  184.660;  -62.650;    0.000;247.31001
 744.41;  189.410;  -58.030;    0.000;247.44000
 744.67;  176.280;  -64.390;    0.000;240.67000
 744.93;  183.550;  -60.990;    0.000;244.54000
 745.19;  177.480;  -66.920;    0.000;244.39999
 745.45;  180.150;  -67.110;    0.000;247.25999
 745.71;  159.780;  -63.100;    0.000;222.88000
 745.97;  176.170;  -58.360;    0.000;234.53000
 746.23;  161.320;  -65.530;    0.000;226.85001
 746.49;  151.070;  -58.960;    0.000;210.03001
 746.75;  158.360;  -62.950;    0.000;221.31000
 747.02;  165.470;  -69.200;    0.000;234.67000
 747.28;  142.700;  -75.780;    0.000;218.48000
 747.54;  155.330;  -59.290;    0.000;214.62000
 747.80;  142.450;  -66.430;    0.000;208.88000
 748.06;  144.610;  -64.430;    0.000;209.04000
 748.32;  138.470;  -68.280;    0.000;206.75000
 748.58;  152.160;  -56.410;    0.000;208.57000
 748.84;  145.980;  -60.900;    0.000;206.88000
 749.10;  220.390;   14.290;    0.000;206.10000
 749.36;  136.430;  -58.640;    0.000;195.06999
 749.62;  130.300;  -53.300;    0.000;183.60000
 749.88;  138.180;  -63.380;    0.000;201.55999
 750.14;  127.300;  -62.320;    0.000;189.62000
 750.40;  130.020;  -62.710;    0.000;192.73000
 750.66;  125.320;  -53.170;    0.000;178.49000
 750.91;  115.860;  -57.390;    0.000;173.25000
 751.17;  116.700;  -60.510;    0.000;177.21000
 751.43;  109.920;  -67.510;    0.000;177.43000
 751.69;  123.680;  -53.130;    0.000;176.81000
 751.95;  122.180;  -58.380;    0.000;180.56000
 752.21;  128.020;  -54.270;    0.000;182.29000
 752.47;  103.620;  -66.590;    0.000;170.21000
 752.73;  107.880;  -59.420;    0.000;167.30000
 752.99;  102.600;  -67.420;    0.000;170.02000
 753.25;  101.020;  -61.010;    0.000;162.02999
 753.51;   98.570;  -64.170;    0.000;162.74000
 753.77;  101.680;  -58.420;    0.000;160.10000
 754.03;   95.490;  -63.170;    0.000;158.66000
 754.29;  102.920;  -60.390;    0.000;163.31000
 754.55;   98.100;  -59.530;    0.000;157.63000
 754.81;   91.930;  -64.020;    0.000;155.95000
 755.07;   88.980;  -65.730;    0.000;154.71001
 755.33;   86.150;  -53.650;    0.000;139.80000
 755.59;   79.620;  -65.350;    0.000;144.97000
 755.85;   87.280;  -62.930;    0.000;150.21000
 756.10;   91.350;  -62.610;    0.000;153.96000
 756.36;   85.390;  -63.220;    0.000;148.61000
 756.62;   76.150;  -76.090;    0.000;152.24000
 756.88;   90.870;  -63.210;    0.000;154.08000
 757.14;   83.770;  -54.900;    0.000;138.67000
 757.40;   79.570;  -58.450;    0.000;138.02000
 757.66;   80.370;  -52.890;    0.000;133.26000
 757.92;   78.050;  -53.070;    0.000;131.12000
 758.18;   64.110;  -70.780;    0.000;134.89000
 758.44;   74.410;  -61.350;    0.000;135.76000
 758.70;   74.410;  -62.310;    0.000;136.72001
 758.95;   77.210;  -55.510;    0.000;132.72000
 759.21;   48.580;  -71.730;    0.000;120.31001
 759.47;   78.270;  -55.090;    0.000;133.36000
 759.73;   56.720;  -66.680;    0.000;123.40000
 759.99;   64.780;  -65.250;    0.000;130.03000
 760.25;   58.930;  -76.330;    0.000;135.26000
 760.51;   64.610;  -66.640;    0.000;131.25000
 760.77;   55.770;  -62.640;    0.000;118.41000
 761.02;   64.760;  -55.290;    0.000;120.05000
 761.28;   62.640;  -72.630;    0.000;135.27000
 761.54;   62.690;  -59.090;    0.000;121.78000
 761.80;   54.370;  -67.640;    0.000;122.01000
 762.06;   63.460;  -50.180;    0.000;113.64000
 762.32;   40.680;  -79.560;    0.000;120.24000
 762.58;   47.570;  -63.330;    0.000;110.90000
 762.83;   55.150;  -60.260;    0.000;115.41000
 763.09;   59.630;  -60.390;    0.000;120.02000
 763.35;   40.050;  -70.560;    0.000;110.61000
 763.61;   62.510;  -54.640;    0.000;117.15000
 763.87;   48.910;  -50.690;    0.000;99.60000
 764.13;   47.210;  -61.450;    0.000;108.66000
 764.38;   46.630;  -65.440;    0.000;112.07000
 764.64;   35.050;  -69.840;    0.000;104.89000
 764.90;   42.160;  -70.080;    0.000;112.24000
 765.16;   47.430;  -56.430;    0.000;103.86000
 765.42;   34.680;  -72.650;    0.000;107.33000
 765.68;   38.370;  -70.250;    0.000;108.62000
 765.93;   34.210;  -73.680;    0.000;107.89000
 766.19;   52.060;  -50.430;    0.000;102.49000
 766.45;   32.140;  -71.110;    0.000;103.25000
 766.71;   41.400;  -54.730;    0.000;96.13000
 766.97;   25.620;  -68.930;    0.000;94.55000
 767.22;   37.250;  -59.260;    0.000;96.51000
 767.48;   23.520;  -71.090;    0.000;94.61000
 767.74;   35.570;  -61.560;    0.000;97.13000
 768.00;   28.580;  -77.530;    0.000;106.11000
 768.26;   34.370;  -62.040;    0.000;96.41000
 768.51;   30.860;  -60.300;    0.000;91.16000
 768.77;   45.640;  -47.940;    0.000;93.58000
 769.03;   27.590;  -78.410;    0.000;106.00000
 769.29;   29.370;  -71.790;    0.000;101.16000
 769.54;   14.270;  -73.200;    0.000;87.47000
 769.80;   25.170;  -67.540;    0.000;92.71000
 770.06;    9.290;  -74.660;    0.000;83.95000
 770.32;   24.430;  -76.440;    0.000;100.87000
 770.57;   17.200;  -80.070;    0.000;97.27000
 770.83;   30.790;  -63.860;    0.000;94.65000
 771.09;   22.240;  -69.770;    0.000;92.01000
 771.35;   17.760;  -65.060;    0.000;82.82000
 771.61;   16.090;  -76.250;    0.000;92.34000
 771.86;   29.550;  -52.550;    0.000;82.10000
 772.12;   13.580;  -82.060;    0.000;95.64000
 772.38;   14.140;  -70.920;    0.000;85.06000
 772.63;   16.430;  -70.280;    0.000;86.71000
 772.89;   21.080;  -67.220;    0.000;88.30000
 773.15;   16.510;  -70.020;    0.000;86.53000
 773.41;   15.520;  -75.520;    0.000;91.04000
 773.66;   16.500;  -64.250;    0.000;80.75000
 773.92;   17.280;  -62.320;    0.000;79.60000
 774.18;   25.640;  -60.500;    0.000;86.14000
 774.44;   11.570;  -69.740;    0.000;81.31000
 774.69;   16.510;  -66.950;    0.000;83.46000
 774.95;   15.140;  -61.260;    0.000;76.40000
 775.21;   19.280;  -56.740;    0.000;76.02000
 775.46;   11.810;  -71.760;    0.000;83.57000
 775.72;   -3.570;  -74.010;    0.000;70.44000
 775.98;   21.570;  -57.630;    0.000;79.20000
 776.24;    0.340;  -78.090;    0.000;78.43000
 776.49;   12.590;  -65.450;    0.000;78.04000
 776.75;   10.960;  -70.010;    0.000;80.97000
 777.01;    4.790;  -73.480;    0.000;78.27000
 777.26;   26.630;  -53.890;    0.000;80.52000
 777.52;    6.020;  -58.810;    0.000;64.83000
 777.78;    8.810;  -72.700;    0.000;81.51000
 778.03;   13.940;  -56.180;    0.000;70.12000
 778.29;    2.350;  -65.510;    0.000;67.86000
 778.55;    6.810;  -64.990;    0.000;71.80000
 778.80;    3.480;  -66.480;    0.000;69.96000
 779.06;    3.280;  -72.690;    0.000;75.97000
 779.32;   -1.970;  -76.670;    0.000;74.70000
 779.57;    4.260;  -67.570;    0.000;71.83000
 779.83;   -5.190;  -69.500;    0.000;64.31000
 780.09;    8.020;  -65.320;    0.000;73.34000
 780.34;    5.960;  -69.050;    0.000;75.01000
 780.60;   13.270;  -54.350;    0.000;67.62000
 780.86;   -4.280;  -70.540;    0.000;66.26000
 781.11;    2.230;  -60.140;    0.000;62.37000
 781.37;   -4.760;  -89.190;    0.000;84.43000
 781.63;   11.800;  -53.500;    0.000;65.30000
 781.88;  -10.420;  -75.250;    0.000;64.83000
 782.14;   -7.010;  -65.990;    0.000;58.98000
 782.39;   -6.800;  -73.460;    0.000;66.66000
 782.65;    1.560;  -67.340;    0.000;68.90000
 782.91;    0.050;  -61.740;    0.000;61.79000
 783.16;   -4.030;  -64.430;    0.000;60.40000
 783.42;  -20.490;  -78.900;    0.000;58.41000
 783.67;    1.880;  -60.080;    0.000;61.96000
 783.93;  -10.040;  -75.140;    0.000;65.10000
 784.19;   -5.490;  -63.580;    0.000;58.09000
 784.44;   -7.410;  -59.560;    0.000;52.15000
 784.70;   -1.280;  -51.310;    0.000;50.03000
 784.96;  -15.030;  -79.860;    0.000;64.83000
 785.21;   -9.910;  -67.680;    0.000;57.77000
 785.47;   -1.300;  -48.970;    0.000;47.67000
 785.72;  -13.300;  -76.220;    0.000;62.92000
 785.98;  -14.470;  -73.540;    0.000;59.07000
 786.23;  -10.170;  -71.420;    0.000;61.25000
 786.49;  -21.490;  -76.000;    0.000;54.51000
 786.75;  -14.240;  -71.520;    0.000;57.28000
 787.00;  -16.100;  -75.060;    0.000;58.96000
 787.26;  -15.570;  -65.970;    0.000;50.40000
 787.51;  -11.760;  -71.990;    0.000;60.23000
 787.77;   -0.060;  -54.030;    0.000;53.97000
 788.02;   -0.650;  -61.800;    0.000;61.15000
 788.28;  -21.210;  -70.640;    0.000;49.43000
 788.54;   -8.850;  -63.910;    0.000;55.06000
 788.79;   -5.160;  -58.120;    0.000;52.96000
 789.05;  -14.680;  -77.260;    0.000;62.58000
 789.30;  -15.620;  -63.070;    0.000;47.45000
 789.56;  -23.620;  -83.770;    0.000;60.15000
 789.81;  -13.550;  -70.330;    0.000;56.78000
 790.07;  -28.320;  -76.840;    0.000;48.52000
 790.32;  -19.310;  -67.480;    0.000;48.17000
 790.58;  -27.310;  -76.340;    0.000;49.03000
 790.83;  -22.990;  -66.550;    0.000;43.56000
 791.09;  -26.790;  -80.200;    0.000;53.41000
 791.35;  -19.560;  -74.470;    0.000;54.91000
 791.60;  -26.830;  -88.380;    0.000;61.55000
 791.86;  -24.060;  -60.380;    0.000;36.32000
 792.11;  -21.040;  -63.000;    0.000;41.96000
 792.37;  -16.100;  -71.430;    0.000;55.33000
 792.62;  -14.985;  -70.745;    0.000;55.76000
 792.88;  -13.870;  -70.060;    0.000;56.19000
 793.13;  -28.170;  -70.130;    0.000;41.96000
 793.39;  -26.350;  -73.500;    0.000;47.15000
 793.64;  -29.170;  -78.890;    0.000;49.72000
 793.90;  -15.460;  -64.800;    0.000;49.34000
 794.15;  -14.300;  -62.780;    0.000;48.48000
 794.41;  -21.480;  -61.310;    0.000;39.83000
 794.66;  -14.120;  -62.340;    0.000;48.22000
 794.92;  -28.220;  -63.470;    0.000;35.25000
 795.17;  -33.010;  -78.030;    0.000;45.02000
 795.43;  -28.460;  -81.320;    0.000;52.86000
 795.68;  -21.850;  -65.590;    0.000;43.74000
 795.94;  -14.700;  -63.900;    0.000;49.20000
 796.19;  -28.810;  -67.970;    0.000;39.16000
 796.44;  -26.840;  -76.220;    0.000;49.38000
 796.70;  -28.850;  -65.720;    0.000;36.87000
 796.95;  -19.020;  -54.340;    0.000;35.32000
 797.21;  -30.270;  -80.910;    0.000;50.64000
 797.46;  -31.080;  -78.690;    0.000;47.61000
 797.72;  -38.050;  -82.870;    0.000;44.82000
 797.97;  -34.480;  -82.520;    0.000;48.04000
 798.23;  -32.350;  -76.920;    0.000;44.57000
 798.48;  -21.220;  -63.290;    0.000;42.07000
 798.74;  -34.460;  -71.360;    0.000;36.90000
 798.99;  -34.480;  -74.330;    0.000;39.85000
 799.24;  -40.190;  -71.830;    0.000;31.64000
 799.50;  -30.220;  -63.300;    0.000;33.08000
 799.75;  -27.080;  -68.600;    0.000;41.52000
 800.01;  -38.820;  -68.250;    0.000;29.43000
 800.26;  -41.210;  -80.860;    0.000;39.65000
 800.52;  -29.950;  -72.700;    0.000;42.75000
 800.77;  -40.980;  -78.340;    0.000;37.36000
 801.02;  -36.990;  -78.570;    0.000;41.58000
 801.28;  -49.140;  -84.840;    0.000;35.70000
 801.53;  -23.160;  -60.400;    0.000;37.24000
 801.79;  -34.740;  -67.370;    0.000;32.63000
 802.04;  -30.660;  -68.440;    0.000;37.78000
 802.29;  -39.340;  -75.880;    0.000;36.54000
 802.55;  -30.460;  -61.940;    0.000;31.48000
 802.80;  -32.360;  -70.790;    0.000;38.43000
 803.06;  -33.040;  -66.900;    0.000;33.86000
 803.31;  -38.480;  -70.290;    0.000;31.81000
 803.56;  -27.460;  -66.680;    0.000;39.22000
 803.82;  -47.160;  -76.730;    0.000;29.57000
 804.07;  -33.580;  -70.630;    0.000;37.05000
 804.32;  -41.310;  -78.040;    0.000;36.73000
 804.58;  -40.420;  -75.000;    0.000;34.58000
 804.83;  -39.400;  -76.500;    0.000;37.10000
 805.09;  -35.310;  -63.990;    0.000;28.68000
 805.34;  -36.930;  -69.630;    0.000;32.70000
 805.59;  -34.240;  -58.930;    0.000;24.69000
 805.85;  -38.140;  -80.680;    0.000;42.54000
 806.10;  -34.000;  -65.530;    0.000;31.53000
 806.35;  -34.390;  -67.770;    0.000;33.38000
 806.61;  -30.150;  -75.980;    0.000;45.83000
 806.86;  -38.580;  -79.500;    0.000;40.92000
 807.11;  -38.050;  -62.610;    0.000;24.56000
 807.37;  -13.080;  -56.160;    0.000;43.08000
 807.62;  -41.350;  -77.550;    0.000;36.20000
 807.87;  -37.830;  -71.820;    0.000;33.99000
 808.13;  -35.370;  -73.880;    0.000;38.51000
 808.38;  -45.790;  -72.370;    0.000;26.58000
 808.63;  -31.490;  -66.890;    0.000;35.40000
 808.89;  -38.170;  -81.230;    0.000;43.06001
 809.14;  -41.970;  -74.120;    0.000;32.15000
 809.39;  -45.710;  -88.710;    0.000;43.00000
 809.65;  -44.450;  -69.050;    0.000;24.60000
 809.90;  -40.000;  -83.440;    0.000;43.44000
 810.15;  -45.210;  -78.660;    0.000;33.45000
 810.41;  -36.090;  -68.470;    0.000;32.38000
 810.66;  -40.650;  -70.200;    0.000;29.55000
 810.91;  -42.720;  -69.770;    0.000;27.05000
 811.16;  -41.310;  -74.940;    0.000;33.63000
 811.42;  -42.480;  -71.010;    0.000;28.53000
 811.67;  -49.220;  -72.410;    0.000;23.19000
 811.92;  -49.880;  -82.960;    0.000;33.08000
 812.18;  -36.120;  -69.050;    0.000;32.93000
 812.43;  -53.410;  -77.030;    0.000;23.62000
 812.68;  -44.150;  -69.130;    0.000;24.98000
 812.93;  -52.640;  -81.060;    0.000;28.42000
 813.19;  -44.020;  -57.500;    0.000;13.48000
 813.44;  -48.730;  -78.150;    0.000;29.42000
 813.69;  -34.340;  -60.290;    0.000;25.95000
 813.95;  -41.670;  -72.300;    0.000;30.63000
 814.20;  -38.870;  -69.340;    0.000;30.47000
 814.45;  -53.630;  -82.170;    0.000;28.54000
 814.70;  -31.450;  -61.380;    0.000;29.93000
 814.96;  -53.870;  -78.600;    0.000;24.73000
 815.21;  -48.390;  -69.070;    0.000;20.68000
 815.46;  -50.820;  -77.560;    0.000;26.74000
 815.71;  -42.070;  -70.640;    0.000;28.57000
 815.96;  -52.890;  -73.920;    0.000;21.03000
 816.22;  -46.420;  -75.550;    0.000;29.13000
 816.47;  -47.700;  -75.610;    0.000;27.91000
 816.72;  -48.270;  -64.380;    0.000;16.11000
 816.97;  -45.340;  -69.030;    0.000;23.69000
 817.23;  -32.190;  -58.770;    0.000;26.58000
 817.48;  -45.160;  -72.640;    0.000;27.48000
 817.73;  -48.330;  -68.910;    0.000;20.58000
 817.98;  -35.420;  -62.500;    0.000;27.08000
 818.23;  -47.300;  -69.600;    0.000;22.30000
 818.49;  -45.150;  -82.830;    0.000;37.68000
 818.74;  -29.440;  -63.160;    0.000;33.72000
 818.99;  -48.390;  -76.980;    0.000;28.59000
 819.24;  -26.190;  -56.900;    0.000;30.71000
 819.50;  -54.960;  -85.700;    0.000;30.74000
 819.75;  -39.370;  -58.460;    0.000;19.09000
 820.00;  -29.560;  -51.580;    0.000;22.02000
 820.25;  -41.210;  -76.950;    0.000;35.74000
 820.50;  -60.710;  -76.040;    0.000;15.33000
 820.75;  -42.290;  -58.290;    0.000;16.00000
 821.01;  -56.760;  -72.980;    0.000;16.22001
 821.26;  -46.130;  -61.870;    0.000;15.74000
 821.51;  -48.630;  -75.230;    0.000;26.60000
 821.76;  -52.170;  -74.500;    0.000;22.33000
 822.01;  -47.420;  -69.050;    0.000;21.63000
 822.26;  -47.710;  -75.290;    0.000;27.58000
 822.52;  -48.630;  -75.780;    0.000;27.15000
 822.77;  -46.140;  -73.230;    0.000;27.09000
 823.02;  -57.040;  -82.200;    0.000;25.16000
 823.27;  -53.160;  -74.650;    0.000;21.49000
 823.52;  -57.140;  -83.590;    0.000;26.45000
 823.77;  -47.630;  -71.930;    0.000;24.30000
 824.03;  -39.610;  -66.100;    0.000;26.49000
 824.28;  -61.050;  -73.830;    0.000;12.78000
 824.53;  -51.140;  -76.580;    0.000;25.44000
 824.78;  -51.310;  -73.800;    0.000;22.49000
 825.03;  -58.070;  -81.540;    0.000;23.47000
 825.28;  -47.150;  -77.210;    0.000;30.06000
 825.53;  -47.940;  -74.480;    0.000;26.54000
 825.78;  -37.420;  -64.840;    0.000;27.42000
 826.04;  -48.010;  -71.720;    0.000;23.71000
 826.29;  -45.960;  -69.860;    0.000;23.90000
 826.54;  -48.200;  -78.410;    0.000;30.21000
 826.79;  -45.470;  -73.020;    0.000;27.55000
 827.04;  -59.370;  -84.000;    0.000;24.63000
 827.29;  -47.820;  -74.210;    0.000;26.39000
 827.54;  -47.420;  -73.620;    0.000;26.20000
 827.79;  -47.250;  -70.830;    0.000;23.58000
 828.04;  -45.650;  -72.100;    0.000;26.45000
 828.29;  -47.050;  -67.810;    0.000;20.76000
 828.55;  -54.720;  -72.130;    0.000;17.41000
 828.80;  -46.220;  -71.180;    0.000;24.96000
 829.05;  -50.190;  -70.120;    0.000;19.93000
 829.30;  -55.860;  -79.380;    0.000;23.52000
 829.55;  -59.480;  -77.730;    0.000;18.25000
 829.80;  -54.260;  -69.970;    0.000;15.71000
 830.05;  -52.500;  -71.210;    0.000;18.71000
 830.30;  -62.030;  -74.490;    0.000;12.46000
 830.55;  -58.330;  -73.870;    0.000;15.54000
 830.80;  -55.440;  -72.120;    0.000;16.68000
 831.05;  -56.780;  -73.240;    0.000;16.46000
 831.30;  -38.420;  -61.610;    0.000;23.19000
 831.55;  -61.130;  -72.070;    0.000;10.94000
 831.80;  -46.490;  -76.090;    0.000;29.59999
 832.05;  -46.370;  -72.350;    0.000;25.98000
 832.30;  -41.450;  -56.990;    0.000;15.54000
 832.56;  -60.040;  -74.880;    0.000;14.84000
 832.81;  -54.310;  -81.530;    0.000;27.22000
 833.06;  -48.660;  -70.100;    0.000;21.44000
 833.31;  -67.070;  -72.540;    0.000; 5.47000
 833.56;  -53.560;  -79.370;    0.000;25.81000
 833.81;  -49.780;  -71.960;    0.000;22.18000
 834.06;  -53.840;  -76.960;    0.000;23.12000
 834.31;  -56.460;  -78.130;    0.000;21.67000
 834.56;  -55.990;  -66.970;    0.000;10.98000
 834.81;  -55.590;  -83.940;    0.000;28.35000
 835.06;  -65.390;  -84.050;    0.000;18.66000
 835.31;  -44.360;  -64.180;    0.000;19.82000
 835.56;  -50.450;  -70.370;    0.000;19.92000
 835.81;  -55.420;  -67.350;    0.000;11.93000
 836.06;  -39.680;  -63.940;    0.000;24.26000
 836.31;  -58.390;  -73.980;    0.000;15.59000
 836.56;  -59.140;  -79.330;    0.000;20.19000
 836.81;  -52.260;  -71.010;    0.000;18.75000
 837.06;  -50.600;  -63.870;    0.000;13.27000
 837.31;  -64.220;  -74.940;    0.000;10.72000
 837.56;  -64.700;  -88.560;    0.000;23.86000
 837.81;  -49.450;  -68.370;    0.000;18.92000
 838.06;  -52.000;  -79.050;    0.000;27.05000
 838.31;  -59.290;  -77.890;    0.000;18.60000
 838.56;  -67.960;  -87.890;    0.000;19.93000
 838.80;  -61.700;  -74.450;    0.000;12.75000
 839.05;  -59.600;  -72.720;    0.000;13.12000
 839.30;  -66.450;  -81.530;    0.000;15.08000
 839.55;  -63.200;  -74.880;    0.000;11.68000
 839.80;  -50.510;  -72.710;    0.000;22.20000
 840.05;  -62.840;  -77.730;    0.000;14.89000
 840.30;  -47.860;  -62.950;    0.000;15.09000
 840.55;  -62.340;  -77.380;    0.000;15.04000
 840.80;  -46.180;  -60.500;    0.000;14.32000
 841.05;  -60.490;  -77.450;    0.000;16.96000
 841.30;  -49.520;  -64.750;    0.000;15.23000
 841.55;  -66.410;  -82.380;    0.000;15.96999
 841.80;  -53.990;  -80.340;    0.000;26.34999
 842.05;  -63.470;  -93.420;    0.000;29.95000
 842.30;  -54.430;  -72.220;    0.000;17.79000
 842.55;  -46.920;  -72.190;    0.000;25.27000
 842.79;  -62.530;  -78.840;    0.000;16.31000
 843.04;  -56.610;  -63.610;    0.000; 7.00000
 843.29;  -56.360;  -70.050;    0.000;13.69000
 843.54;  -52.190;  -72.130;    0.000;19.94000
 843.79;  -63.940;  -77.040;    0.000;13.10000
 844.04;  -60.320;  -74.220;    0.000;13.90000
 844.29;  -51.550;  -71.690;    0.000;20.14000
 844.54;  -67.840;  -78.650;    0.000;10.81001
 844.79;  -53.280;  -76.030;    0.000;22.75000
 845.04;  -64.430;  -70.190;    0.000; 5.76000
 845.28;  -65.700;  -74.780;    0.000; 9.08000
 845.53;  -52.160;  -75.020;    0.000;22.86000
 845.78;  -40.150;  -59.080;    0.000;18.93000
 846.03;  -64.340;  -74.510;    0.000;10.17001
 846.28;  -60.830;  -70.160;    0.000; 9.33000
 846.53;  -45.760;  -58.960;    0.000;13.20000
 846.78;  -56.090;  -73.040;    0.000;16.95000
 847.02;  -48.580;  -58.760;    0.000;10.18000
 847.27;  -45.590;  -67.500;    0.000;21.91000
 847.52;  -59.320;  -80.170;    0.000;20.85000
 847.77;  -62.830;  -75.890;    0.000;13.06000
 848.02;  -63.040;  -79.510;    0.000;16.47000
 848.27;  -55.950;  -72.730;    0.000;16.78000
 848.52;  -60.390;  -80.850;    0.000;20.46000
 848.76;  -51.230;  -60.510;    0.000; 9.28000
 849.01;  -64.450;  -78.490;    0.000;14.04000
 849.26;  -64.320;  -76.380;    0.000;12.06000
 849.51;  -70.030;  -72.410;    0.000; 2.38000
 849.76;  -62.030;  -75.550;    0.000;13.52000
 850.01;  -63.970;  -83.570;    0.000;19.60000
 850.25;  -53.170;  -69.620;    0.000;16.45000
 850.50;  -69.430;  -82.060;    0.000;12.63000
 850.75;  -44.670;  -65.940;    0.000;21.27000
 851.00;  -63.670;  -76.370;    0.000;12.70000
 851.25;  -50.230;  -68.640;    0.000;18.41000
 851.49;  -63.490;  -80.630;    0.000;17.14000
 851.74;  -62.680;  -74.970;    0.000;12.29000
 851.99;  -56.160;  -73.100;    0.000;16.94000
 852.24;  -61.380;  -77.500;    0.000;16.12000
 852.49;  -67.080;  -79.380;    0.000;12.30000
 852.73;  -63.720;  -78.890;    0.000;15.17000
 852.98;  -62.400;  -74.210;    0.000;11.81000
 853.23;  -53.080;  -76.100;    0.000;23.02000
 853.48;  -72.120;  -81.410;    0.000; 9.29000
 853.73;  -63.180;  -76.970;    0.000;13.79000
 853.97;  -60.090;  -75.100;    0.000;15.01000
 854.22;  -64.760;  -76.230;    0.000;11.47000
 854.47;  -73.430;  -82.400;    0.000; 8.97000
 854.72;  -57.600;  -68.920;    0.000;11.32000
 854.96;  -61.990;  -78.580;    0.000;16.59000
 855.21;  -59.550;  -71.010;    0.000;11.46000
 855.46;  -52.940;  -59.170;    0.000; 6.23000
 855.71;  -63.270;  -85.800;    0.000;22.53000
 855.95;  -62.530;  -74.110;    0.000;11.58000
 856.20;  -64.230;  -72.760;    0.000; 8.53000
 856.45;  -62.410;  -85.610;    0.000;23.20000
 856.70;  -71.750;  -70.870;    0.000;-0.88000
 856.94;  -67.550;  -79.390;    0.000;11.84000
 857.19;  -54.760;  -64.950;    0.000;10.19000
 857.44;  -66.840;  -74.140;    0.000; 7.30000
 857.69;  -55.200;  -74.080;    0.000;18.88000
 857.93;  -69.030;  -72.170;    0.000; 3.14000
 858.18;  -54.630;  -65.400;    0.000;10.77000
 858.43;  -63.230;  -74.950;    0.000;11.72000
 858.67;  -43.870;  -62.950;    0.000;19.08000
 858.92;  -63.810;  -76.360;    0.000;12.55000
 859.17;  -43.070;  -54.150;    0.000;11.08000
 859.42;  -70.820;  -78.880;    0.000; 8.06000
 859.66;  -72.910;  -79.670;    0.000; 6.75999
 859.91;  -63.940;  -75.430;    0.000;11.49000
 860.16;  -70.760;  -85.150;    0.000;14.39000
 860.40;  -60.560;  -73.870;    0.000;13.31000
 860.65;  -70.110;  -76.580;    0.000; 6.47000
 860.90;  -70.670;  -87.770;    0.000;17.10000
 861.14;  -67.570;  -79.050;    0.000;11.48000
 861.39;  -74.030;  -79.040;    0.000; 5.01000
 861.64;  -62.200;  -69.400;    0.000; 7.20000
 861.88;  -74.870;  -85.710;    0.000;10.84000
 862.13;  -65.630;  -71.250;    0.000; 5.62000
 862.38;  -83.350;  -85.130;    0.000; 1.78000
 862.62;  -59.960;  -73.110;    0.000;13.15000
 862.87;  -66.780;  -74.050;    0.000; 7.27000
 863.12;  -68.660;  -85.480;    0.000;16.82000
 863.36;  -70.180;  -77.780;    0.000; 7.60000
 863.61;  -65.260;  -70.330;    0.000; 5.07000
 863.86;  -70.560;  -83.090;    0.000;12.53000
 864.10;  -68.790;  -74.370;    0.000; 5.58000
 864.35;  -68.630;  -78.440;    0.000; 9.81001
 864.60;  -65.310;  -76.350;    0.000;11.04000
 864.84;  -69.380;  -78.230;    0.000; 8.85001
 865.09;  -60.210;  -66.680;    0.000; 6.47000
 865.33;  -74.700;  -82.700;    0.000; 8.00000
 865.58;  -53.670;  -67.180;    0.000;13.51000
 865.83;  -71.540;  -80.080;    0.000; 8.54000
 866.07;  -69.660;  -81.320;    0.000;11.66000
 866.32;  -49.820;  -54.500;    0.000; 4.68000
 866.57;  -57.020;  -70.470;    0.000;13.45000
 866.81;  -71.290;  -82.540;    0.000;11.25000
 867.06;  -61.020;  -77.360;    0.000;16.34000
 867.30;  -76.790;  -83.760;    0.000; 6.97000
 867.55;  -70.850;  -80.860;    0.000;10.01000
 867.80;  -58.300;  -70.830;    0.000;12.53000
 868.04;  -65.780;  -70.790;    0.000; 5.01000
 868.29;  -72.160;  -74.480;    0.000; 2.32000
 868.53;  -59.440;  -69.440;    0.000;10.00000
 868.78;  -86.190;  -84.070;    0.000;-2.12000
 869.03;  -62.210;  -68.510;    0.000; 6.30000
 869.27;  -69.050;  -77.050;    0.000; 8.00000
 869.52;  -63.320;  -83.420;    0.000;20.10000
 869.76;  -61.720;  -67.410;    0.000; 5.69000
 870.01;  -58.460;  -67.550;    0.000; 9.09000
 870.25;  -57.320;  -65.140;    0.000; 7.82000
 870.50;  -63.590;  -70.290;    0.000; 6.70000
 870.75;  -76.560;  -82.930;    0.000; 6.37000
 870.99;  -60.220;  -70.660;    0.000;10.44000
 871.24;  -69.140;  -80.160;    0.000;11.02000
 871.48;  -61.950;  -69.890;    0.000; 7.94000
 871.73;  -63.500;  -75.060;    0.000;11.56000
 871.97;  -70.030;  -77.380;    0.000; 7.35000
 872.22;  -72.180;  -80.500;    0.000; 8.32000
 872.46;  -59.410;  -68.790;    0.000; 9.38000
 872.71;  -74.360;  -83.910;    0.000; 9.55000
 872.95;  -63.830;  -67.870;    0.000; 4.04000
 873.20;  -67.590;  -72.490;    0.000; 4.90000
 873.44;  -57.820;  -65.600;    0.000; 7.78000
 873.69;  -74.340;  -86.780;    0.000;12.44000
 873.94;  -58.210;  -68.320;    0.000;10.11000
 874.18;  -68.360;  -81.740;    0.000;13.38000
 874.43;  -60.860;  -78.500;    0.000;17.64000
 874.67;  -61.140;  -79.530;    0.000;18.39000
 874.92;  -48.180;  -61.980;    0.000;13.80000
 875.16;  -75.520;  -71.600;    0.000;-3.92000
 875.41;  -71.680;  -74.550;    0.000; 2.87000
 875.65;  -73.910;  -72.820;    0.000;-1.09000
 875.90;  -50.240;  -57.710;    0.000; 7.47000
 876.14;  -70.430;  -85.280;    0.000;14.85000
 876.39;  -58.170;  -68.330;    0.000;10.16000
 876.63;  -76.240;  -80.430;    0.000; 4.19000
 876.88;  -66.460;  -67.830;    0.000; 1.37000
 877.12;  -65.450;  -78.920;    0.000;13.47000
 877.36;  -70.240;  -70.470;    0.000; 0.23000
 877.61;  -72.260;  -72.490;    0.000; 0.23000
 877.85;  -62.600;  -67.300;    0.000; 4.70000
 878.10;  -59.840;  -68.070;    0.000; 8.23000
 878.34;  -54.580;  -65.220;    0.000;10.64000
 878.59;  -57.310;  -74.140;    0.000;16.83000
 878.83;  -65.130;  -77.480;    0.000;12.35001
 879.08;  -66.680;  -71.810;    0.000; 5.13000
 879.32;  -67.650;  -75.140;    0.000; 7.49000
 879.57;  -47.670;  -61.580;    0.000;13.91000
 879.81;  -67.330;  -78.450;    0.000;11.12000
 880.05;  -61.600;  -62.330;    0.000; 0.73000
 880.30;  -60.430;  -69.030;    0.000; 8.60000
 880.54;  -68.530;  -74.620;    0.000; 6.09000
 880.79;  -65.370;  -74.890;    0.000; 9.52000
 881.03;  -68.660;  -76.740;    0.000; 8.07999
 881.28;  -49.830;  -61.820;    0.000;11.99000
 881.52;  -76.920;  -78.630;    0.000; 1.71000
 881.76;  -70.670;  -63.620;    0.000;-7.05000
 882.01;  -63.910;  -70.160;    0.000; 6.25000
 882.25;  -61.040;  -70.020;    0.000; 8.98000
 882.50;  -65.130;  -76.690;    0.000;11.56001
 882.74;  -54.470;  -58.310;    0.000; 3.84000
 882.98;  -57.330;  -71.460;    0.000;14.13000
 883.23;  -67.960;  -72.830;    0.000; 4.87000
 883.47;  -61.770;  -64.540;    0.000; 2.77000
 883.72;  -58.670;  -63.640;    0.000; 4.97000
 883.96;  -59.160;  -69.160;    0.000;10.00000
 884.20;  -60.600;  -72.280;    0.000;11.68000
 884.45;  -60.990;  -69.830;    0.000; 8.84000
 884.69;  -52.870;  -54.450;    0.000; 1.58000
 884.94;  -44.410;  -57.560;    0.000;13.15000
 885.18;  -60.100;  -68.170;    0.000; 8.07000
 885.42;  -65.620;  -70.470;    0.000; 4.85000
 885.67;  -51.550;  -65.500;    0.000;13.95000
 885.91;  -73.410;  -76.290;    0.000; 2.88000
 886.15;  -55.780;  -70.610;    0.000;14.83000
 886.40;  -61.720;  -66.170;    0.000; 4.45000
 886.64;  -62.670;  -68.810;    0.000; 6.14000
 886.88;  -58.300;  -75.520;    0.000;17.22000
 887.13;  -61.100;  -61.410;    0.000; 0.31000
 887.37;  -66.490;  -76.880;    0.000;10.39000
 887.62;  -43.510;  -56.020;    0.000;12.51000
 887.86;  -58.590;  -70.890;    0.000;12.30000
 888.10;  -53.670;  -64.840;    0.000;11.17000
 888.35;  -50.620;  -61.600;    0.000;10.98000
 888.59;  -53.680;  -64.870;    0.000;11.19000
 888.83;  -62.250;  -68.950;    0.000; 6.70000
 889.07;  -49.170;  -59.470;    0.000;10.30000
 889.32;  -58.850;  -70.170;    0.000;11.32000
 889.56;  -58.220;  -62.350;    0.000; 4.13000
 889.80;  -53.110;  -60.710;    0.000; 7.60000
 890.05;  -53.280;  -57.640;    0.000; 4.36000
 890.29;  -56.920;  -66.700;    0.000; 9.78000
 890.53;  -52.880;  -66.790;    0.000;13.91000
 890.78;  -53.620;  -62.500;    0.000; 8.88000
 891.02;  -47.990;  -56.430;    0.000; 8.44000
 891.26;  -65.800;  -68.100;    0.000; 2.30000
 891.51;  -52.470;  -54.610;    0.000; 2.14000
 891.75;  -45.660;  -53.430;    0.000; 7.77000
 891.99;  -57.070;  -66.610;    0.000; 9.54000
 892.23;  -51.750;  -69.110;    0.000;17.36000
 892.48;  -39.790;  -50.770;    0.000;10.98000
 892.72;  -46.750;  -55.570;    0.000; 8.82000
 892.96;  -40.320;  -53.150;    0.000;12.83000
 893.20;  -55.740;  -64.400;    0.000; 8.66000
 893.45;  -50.930;  -60.030;    0.000; 9.10000
 893.69;  -64.920;  -62.920;    0.000;-2.00000
 893.93;  -47.980;  -48.190;    0.000; 0.21000
 894.17;  -54.830;  -57.110;    0.000; 2.28000
 894.42;  -50.440;  -58.560;    0.000; 8.12000
 894.66;  -44.900;  -56.160;    0.000;11.26000
 894.90;  -39.980;  -44.390;    0.000; 4.41000
 895.14;  -42.770;  -54.700;    0.000;11.93000
 895.39;  -43.320;  -54.160;    0.000;10.84000
 895.63;  -46.790;  -46.130;    0.000;-0.66000
 895.87;  -44.880;  -45.090;    0.000; 0.21000
 896.11;  -46.370;  -47.000;    0.000; 0.63000
 896.36;  -36.600;  -40.580;    0.000; 3.98000
 896.60;  -57.990;  -64.630;    0.000; 6.64000
 896.84;  -22.180;  -34.960;    0.000;12.78000
 897.08;  -36.820;  -41.800;    0.000; 4.98000
 897.32;  -26.800;  -37.560;    0.000;10.76000
 897.57;  -26.210;  -42.160;    0.000;15.95000
 897.81;  -39.860;  -39.390;    0.000;-0.47000
 898.05;  -34.450;  -41.300;    0.000; 6.85000
 898.29;  -30.260;  -35.390;    0.000; 5.13000
 898.53;  -31.040;  -37.290;    0.000; 6.25000
 898.78;  -30.930;  -33.330;    0.000; 2.40000
 899.02;  -27.370;  -30.870;    0.000; 3.50000
 899.26;  -17.470;  -20.780;    0.000; 3.31000
 899.50;    4.730;  -10.960;    0.000;15.69000
 899.74;  -17.890;  -25.610;    0.000; 7.72000
 899.99;  -17.890;  -21.070;    0.000; 3.18000
 900.23;   -0.800;    2.230;    0.000;-3.03000
 900.47;  -10.900;  -20.220;    0.000; 9.32000
 900.71;    4.890;   -2.550;    0.000; 7.44000
 900.95;   11.320;   -0.240;    0.000;11.56000
 901.19;   15.000;   14.960;    0.000; 0.04000
 901.44;   22.500;    5.540;    0.000;16.96000
 901.68;   37.820;   31.200;    0.000; 6.62000
 901.92;   34.020;   34.600;    0.000;-0.58000
 902.16;   49.820;   46.190;    0.000; 3.63000
 902.40;   59.810;   56.140;    0.000; 3.67000
 902.64;   91.520;   82.740;    0.000; 8.78000
 902.88;   92.560;   92.020;    0.000; 0.54000
 903.13;  127.730;  105.920;    0.000;21.81001

