p5
Integration time [ms]:  10.000
Averaging Nr. [scans]: 100
Smoothing Nr. [pixels]: 0
Data measured with spectrometer [name]: 1307077U2
Wave   ;Sample   ;Dark     ;Reference;Scope Corrected for Dark
[nm]   ;[counts] ;[counts] ;[counts] 

 350.80;    3.260;    4.030;    0.000;-0.77000
 351.10;   -6.710;   -4.180;    0.000;-2.53000
 351.39;    7.940;    2.470;    0.000; 5.47000
 351.69;   -8.490;   -5.160;    0.000;-3.33000
 351.99;    7.930;    6.180;    0.000; 1.75000
 352.28;   -8.440;  -10.540;    0.000; 2.10000
 352.58;    4.460;    5.710;    0.000;-1.25000
 352.88;   -9.020;    5.210;    0.000;-14.23000
 353.17;    7.730;   14.010;    0.000;-6.28000
 353.47;   -2.140;   -9.550;    0.000; 7.41000
 353.76;    0.470;    8.350;    0.000;-7.88000
 354.06;    4.330;   -1.640;    0.000; 5.97000
 354.36;    8.760;    3.130;    0.000; 5.63000
 354.65;    7.390;    2.490;    0.000; 4.90000
 354.95;   -2.590;   -4.840;    0.000; 2.25000
 355.24;    5.750;   -6.230;    0.000;11.98000
 355.54;    4.740;    5.960;    0.000;-1.22000
 355.84;    3.590;   -2.430;    0.000; 6.02000
 356.13;   16.850;   14.640;    0.000; 2.21000
 356.43;   -1.960;  -16.650;    0.000;14.69000
 356.72;   -4.690;   -2.860;    0.000;-1.83000
 357.02;   -1.560;   -4.950;    0.000; 3.39000
 357.31;   18.570;   15.180;    0.000; 3.39000
 357.61;    3.720;    0.860;    0.000; 2.86000
 357.91;   -6.560;   -0.030;    0.000;-6.53000
 358.20;  -10.410;   -6.640;    0.000;-3.77000
 358.50;   -4.500;   -1.800;    0.000;-2.70000
 358.79;    0.540;   -6.380;    0.000; 6.92000
 359.09;    7.210;    7.630;    0.000;-0.42000
 359.38;   -5.830;   -4.280;    0.000;-1.55000
 359.68;  -12.670;   -3.990;    0.000;-8.68000
 359.98;    7.980;   -9.890;    0.000;17.87000
 360.27;    3.990;    3.120;    0.000; 0.87000
 360.57;   -4.080;   -9.860;    0.000; 5.78000
 360.86;    7.720;    4.120;    0.000; 3.60000
 361.16;   -9.540;   -9.770;    0.000; 0.23000
 361.45;   -2.440;   -2.580;    0.000; 0.14000
 361.75;   -9.590;   -7.950;    0.000;-1.64000
 362.04;   22.510;   21.750;    0.000; 0.76000
 362.34;   -3.580;  -10.000;    0.000; 6.42000
 362.64;    0.080;    2.910;    0.000;-2.83000
 362.93;   -6.100;   -9.640;    0.000; 3.54000
 363.23;   -6.240;   -0.950;    0.000;-5.29000
 363.52;  -11.810;   -9.960;    0.000;-1.85000
 363.82;    7.390;   -1.210;    0.000; 8.60000
 364.11;   -1.610;   -0.330;    0.000;-1.28000
 364.41;   -7.520;   -7.080;    0.000;-0.44000
 364.70;  -12.580;   -9.350;    0.000;-3.23000
 365.00;    9.740;    2.780;    0.000; 6.96000
 365.29;   -6.840;   -8.860;    0.000; 2.02000
 365.59;    2.280;   -0.230;    0.000; 2.51000
 365.88;   -8.270;  -13.770;    0.000; 5.50000
 366.18;    3.130;   -0.050;    0.000; 3.18000
 366.47;   -9.770;   -8.130;    0.000;-1.64000
 366.77;    0.280;    1.200;    0.000;-0.92000
 367.06;   -6.890;   -5.020;    0.000;-1.87000
 367.36;    3.000;    8.050;    0.000;-5.05000
 367.65;   -8.110;   -3.440;    0.000;-4.67000
 367.95;    0.220;   -3.460;    0.000; 3.68000
 368.24;   -6.730;   -6.160;    0.000;-0.57000
 368.54;   -2.070;   -1.860;    0.000;-0.21000
 368.83;    3.340;    4.430;    0.000;-1.09000
 369.13;    5.630;    3.080;    0.000; 2.55000
 369.42;   -2.610;   -7.200;    0.000; 4.59000
 369.72;   -0.360;    1.890;    0.000;-2.25000
 370.01;   -8.290;   -8.200;    0.000;-0.09000
 370.31;   -0.730;    5.490;    0.000;-6.22000
 370.60;   10.410;    5.190;    0.000; 5.22000
 370.90;    6.450;    2.280;    0.000; 4.17000
 371.19;  -13.730;  -14.890;    0.000; 1.16000
 371.49;    1.550;   -5.010;    0.000; 6.56000
 371.78;   -9.000;  -15.390;    0.000; 6.39000
 372.08;   -0.660;   -0.720;    0.000; 0.06000
 372.37;   -6.390;   -7.980;    0.000; 1.59000
 372.67;    2.010;    7.150;    0.000;-5.14000
 372.96;   -9.950;   -8.630;    0.000;-1.32000
 373.26;   -7.010;   -6.050;    0.000;-0.96000
 373.55;   -0.460;  -10.400;    0.000; 9.94000
 373.85;   -5.050;   -8.440;    0.000; 3.39000
 374.14;    0.930;   -7.130;    0.000; 8.06000
 374.43;   -3.790;    6.000;    0.000;-9.79000
 374.73;   -3.670;   -8.200;    0.000; 4.53000
 375.02;    1.840;    6.040;    0.000;-4.20000
 375.32;   -7.940;   -8.280;    0.000; 0.34000
 375.61;    7.160;   -4.320;    0.000;11.48000
 375.91;   -8.580;  -10.610;    0.000; 2.03000
 376.20;  -11.920;  -11.900;    0.000;-0.02000
 376.50;   -9.920;   -8.930;    0.000;-0.99000
 376.79;   -6.360;  -11.570;    0.000; 5.21000
 377.08;   -9.790;  -17.270;    0.000; 7.48000
 377.38;   -4.600;    3.140;    0.000;-7.74000
 377.67;   -6.140;   -4.850;    0.000;-1.29000
 377.97;   -6.100;   -6.580;    0.000; 0.48000
 378.26;    0.530;  -11.160;    0.000;11.69000
 378.56;  -16.690;  -10.070;    0.000;-6.62000
 378.85;   -3.880;   -2.180;    0.000;-1.70000
 379.14;  -13.390;   -4.480;    0.000;-8.91000
 379.44;  -11.950;  -12.520;    0.000; 0.57000
 379.73;   -3.560;   -1.390;    0.000;-2.17000
 380.03;   -0.890;    1.420;    0.000;-2.31000
 380.32;   -3.880;   -7.470;    0.000; 3.59000
 380.62;  -13.020;  -18.470;    0.000; 5.45000
 380.91;    0.770;    0.800;    0.000;-0.03000
 381.20;   -2.960;  -15.290;    0.000;12.33000
 381.50;    2.050;   -1.950;    0.000; 4.00000
 381.79;   -6.150;  -15.050;    0.000; 8.90000
 382.09;   -2.470;    1.220;    0.000;-3.69000
 382.38;   -1.540;   -8.980;    0.000; 7.44000
 382.67;   -3.660;   -6.760;    0.000; 3.10000
 382.97;  -10.380;   -7.720;    0.000;-2.66000
 383.26;   -0.400;    1.020;    0.000;-1.42000
 383.56;    0.110;  -10.020;    0.000;10.13000
 383.85;   -3.680;   -6.070;    0.000; 2.39000
 384.14;   -7.780;  -14.150;    0.000; 6.37000
 384.44;   -9.810;   -0.890;    0.000;-8.92000
 384.73;  -10.110;   -7.150;    0.000;-2.96000
 385.02;    1.170;   -2.920;    0.000; 4.09000
 385.32;    1.840;   -3.830;    0.000; 5.67000
 385.61;  -13.440;  -13.580;    0.000; 0.14000
 385.91;   -5.340;   -9.020;    0.000; 3.68000
 386.20;  -14.180;  -14.970;    0.000; 0.79000
 386.49;   -8.760;  -15.310;    0.000; 6.55000
 386.79;   -0.570;   -6.270;    0.000; 5.70000
 387.08;   -4.560;  -10.690;    0.000; 6.13000
 387.37;   -1.560;   -4.540;    0.000; 2.98000
 387.67;  -11.500;  -13.490;    0.000; 1.99000
 387.96;   -6.390;   -7.140;    0.000; 0.75000
 388.25;  -13.300;  -13.000;    0.000;-0.30000
 388.55;   -8.390;  -11.590;    0.000; 3.20000
 388.84;   -7.350;  -13.480;    0.000; 6.13000
 389.14;   -2.050;   -4.870;    0.000; 2.82000
 389.43;   -8.330;   -7.270;    0.000;-1.06000
 389.72;   -6.840;   -3.600;    0.000;-3.24000
 390.02;   -9.690;  -15.150;    0.000; 5.46000
 390.31;    3.880;   -3.970;    0.000; 7.85000
 390.60;   -7.800;   -9.800;    0.000; 2.00000
 390.90;   -8.400;   -1.730;    0.000;-6.67000
 391.19;  -12.090;  -13.590;    0.000; 1.50000
 391.48;   -9.670;   -4.990;    0.000;-4.68000
 391.78;  -11.410;   -6.390;    0.000;-5.02000
 392.07;   34.850;   36.750;    0.000;-1.90000
 392.36;    0.330;  -11.230;    0.000;11.56000
 392.66;   -9.780;   -8.300;    0.000;-1.48000
 392.95;   -1.060;  -19.820;    0.000;18.76000
 393.24;  -11.890;  -11.730;    0.000;-0.16000
 393.53;  -16.540;  -15.730;    0.000;-0.81000
 393.83;  -10.380;  -10.950;    0.000; 0.57000
 394.12;   -4.190;  -16.390;    0.000;12.20000
 394.41;   -5.030;   -7.450;    0.000; 2.42000
 394.71;  -13.540;  -12.950;    0.000;-0.59000
 395.00;   -9.350;   -7.620;    0.000;-1.73000
 395.29;   -0.620;   -8.310;    0.000; 7.69000
 395.59;  -11.870;  -13.230;    0.000; 1.36000
 395.88;  -12.700;   -9.550;    0.000;-3.15000
 396.17;  -11.270;  -10.600;    0.000;-0.67000
 396.46;    3.980;   -2.150;    0.000; 6.13000
 396.76;  -16.210;   -5.400;    0.000;-10.81000
 397.05;    6.340;    1.250;    0.000; 5.09000
 397.34;   -7.570;  -12.160;    0.000; 4.59000
 397.64;  -15.170;  -11.990;    0.000;-3.18000
 397.93;   -5.750;  -10.290;    0.000; 4.54000
 398.22;  -12.730;  -20.930;    0.000; 8.20000
 398.51;   -8.680;   -7.580;    0.000;-1.10000
 398.81;  -14.540;  -17.770;    0.000; 3.23000
 399.10;   -4.330;   -1.830;    0.000;-2.50000
 399.39;  -11.930;  -18.860;    0.000; 6.93000
 399.69;   -3.220;   -9.380;    0.000; 6.16000
 399.98;    2.600;  -11.540;    0.000;14.14000
 400.27;  -11.800;  -15.330;    0.000; 3.53000
 400.56;   -5.380;  -12.910;    0.000; 7.53000
 400.86;   -7.670;  -10.400;    0.000; 2.73000
 401.15;  -10.680;   -6.510;    0.000;-4.17000
 401.44;  -16.960;  -10.610;    0.000;-6.35000
 401.73;    0.850;   -7.690;    0.000; 8.54000
 402.03;    2.110;   -4.040;    0.000; 6.15000
 402.32;  -15.190;  -19.160;    0.000; 3.97000
 402.61;  -10.830;   -1.730;    0.000;-9.10000
 402.90;  -16.750;  -16.990;    0.000; 0.24000
 403.20;   -1.670;   -2.910;    0.000; 1.24000
 403.49;   -5.190;   -9.760;    0.000; 4.57000
 403.78;  -13.810;  -11.610;    0.000;-2.20000
 404.07;  -14.260;  -22.560;    0.000; 8.30000
 404.37;    0.030;  -12.400;    0.000;12.43000
 404.66;   -8.260;  -17.920;    0.000; 9.66000
 404.95;   -3.290;   -3.130;    0.000;-0.16000
 405.24;  -12.410;  -14.390;    0.000; 1.98000
 405.53;  -18.880;   -6.780;    0.000;-12.10000
 405.83;   -7.670;  -12.330;    0.000; 4.66000
 406.12;   -7.740;  -19.690;    0.000;11.95000
 406.41;    2.610;   -3.820;    0.000; 6.43000
 406.70;  -11.330;   -6.390;    0.000;-4.94000
 407.00;   -2.380;  -17.760;    0.000;15.38000
 407.29;   -9.530;   -5.640;    0.000;-3.89000
 407.58;  -19.240;  -18.150;    0.000;-1.09000
 407.87;   -1.120;  -10.380;    0.000; 9.26000
 408.16;  -13.620;  -17.260;    0.000; 3.64000
 408.46;  -13.390;  -12.130;    0.000;-1.26000
 408.75;  -14.570;  -15.780;    0.000; 1.21000
 409.04;   -4.540;   -1.600;    0.000;-2.94000
 409.33;   -4.520;  -13.340;    0.000; 8.82000
 409.62;    3.000;   -2.450;    0.000; 5.45000
 409.92;  -12.000;   -6.880;    0.000;-5.12000
 410.21;  -12.320;  -15.900;    0.000; 3.58000
 410.50;  -20.810;  -20.780;    0.000;-0.03000
 410.79;   -0.160;   -5.100;    0.000; 4.94000
 411.08;   -6.550;  -13.180;    0.000; 6.63000
 411.37;   -7.730;   -8.590;    0.000; 0.86000
 411.67;  -15.500;  -14.900;    0.000;-0.60000
 411.96;   -3.440;  -12.600;    0.000; 9.16000
 412.25;  -13.740;  -17.930;    0.000; 4.19000
 412.54;   -6.170;  -12.620;    0.000; 6.45000
 412.83;  -13.390;  -16.690;    0.000; 3.30000
 413.13;  -11.360;   -9.100;    0.000;-2.26000
 413.42;  -11.560;  -21.200;    0.000; 9.64000
 413.71;    1.400;   -1.600;    0.000; 3.00000
 414.00;  -17.710;  -26.150;    0.000; 8.44000
 414.29;   -0.520;   -3.360;    0.000; 2.84000
 414.58;  -15.890;  -19.610;    0.000; 3.72000
 414.87;   -9.550;  -12.000;    0.000; 2.45000
 415.17;   -8.270;  -17.230;    0.000; 8.96000
 415.46;  -11.340;   -8.680;    0.000;-2.66000
 415.75;   -7.930;   -6.700;    0.000;-1.23000
 416.04;   -8.390;  -10.910;    0.000; 2.52000
 416.33;   -5.440;  -11.250;    0.000; 5.81000
 416.62;  -17.100;  -15.020;    0.000;-2.08000
 416.91;   -8.230;  -12.540;    0.000; 4.31000
 417.21;   -9.300;  -13.820;    0.000; 4.52000
 417.50;  -10.430;  -22.670;    0.000;12.24000
 417.79;  -11.360;  -14.150;    0.000; 2.79000
 418.08;  -10.580;  -22.610;    0.000;12.03000
 418.37;   -3.090;   -8.440;    0.000; 5.35000
 418.66;  -13.710;  -12.690;    0.000;-1.02000
 418.95;   -3.650;   -4.060;    0.000; 0.41000
 419.24;  -14.370;  -16.540;    0.000; 2.17000
 419.54;   -7.000;   -4.710;    0.000;-2.29000
 419.83;  -15.910;  -17.210;    0.000; 1.30000
 420.12;  -13.210;   -9.330;    0.000;-3.88000
 420.41;    2.410;   -1.720;    0.000; 4.13000
 420.70;  -14.400;  -12.920;    0.000;-1.48000
 420.99;   -7.210;  -13.160;    0.000; 5.95000
 421.28;   -2.020;   -9.530;    0.000; 7.51000
 421.57;   -8.610;  -19.200;    0.000;10.59000
 421.86;    4.830;   -0.530;    0.000; 5.36000
 422.16;   -8.700;  -11.590;    0.000; 2.89000
 422.45;   -6.400;  -15.740;    0.000; 9.34000
 422.74;   -9.000;  -14.600;    0.000; 5.60000
 423.03;   -6.070;   -1.000;    0.000;-5.07000
 423.32;  -18.740;  -19.120;    0.000; 0.38000
 423.61;    0.800;   -1.410;    0.000; 2.21000
 423.90;   -7.910;  -14.280;    0.000; 6.37000
 424.19;   20.970;   17.330;    0.000; 3.64000
 424.48;  -19.060;  -13.500;    0.000;-5.56000
 424.77;   -2.500;   -7.810;    0.000; 5.31000
 425.06;   -5.190;  -11.550;    0.000; 6.36000
 425.35;   -3.010;   -2.890;    0.000;-0.12000
 425.65;  -14.580;  -19.130;    0.000; 4.55000
 425.94;  -11.910;  -14.880;    0.000; 2.97000
 426.23;  -13.640;  -24.160;    0.000;10.52000
 426.52;  -13.140;  -15.130;    0.000; 1.99000
 426.81;    2.390;   -2.380;    0.000; 4.77000
 427.10;  -12.890;  -14.170;    0.000; 1.28000
 427.39;   -7.580;  -18.300;    0.000;10.72000
 427.68;   -4.890;   -9.370;    0.000; 4.48000
 427.97;   -4.910;  -14.330;    0.000; 9.42000
 428.26;  -14.160;  -19.050;    0.000; 4.89000
 428.55;    0.280;   -8.910;    0.000; 9.19000
 428.84;   -4.890;   -4.380;    0.000;-0.51000
 429.13;  -11.510;  -14.120;    0.000; 2.61000
 429.42;   -5.310;   -1.830;    0.000;-3.48000
 429.71;   -7.940;  -11.710;    0.000; 3.77000
 430.00;   -8.060;  -13.910;    0.000; 5.85000
 430.29;  -26.260;  -25.330;    0.000;-0.93000
 430.58;   -3.090;  -14.890;    0.000;11.80000
 430.87;  -17.260;  -16.420;    0.000;-0.84000
 431.16;  -11.690;  -20.530;    0.000; 8.84000
 431.46;   -8.840;  -12.910;    0.000; 4.07000
 431.75;  -14.430;  -19.130;    0.000; 4.70000
 432.04;   -2.040;   -8.890;    0.000; 6.85000
 432.33;  -16.400;  -20.210;    0.000; 3.81000
 432.62;   -9.530;   -9.300;    0.000;-0.23000
 432.91;  -16.760;  -13.020;    0.000;-3.74000
 433.20;   -9.340;  -18.270;    0.000; 8.93000
 433.49;   -9.450;  -14.130;    0.000; 4.68000
 433.78;  -16.980;  -23.820;    0.000; 6.84000
 434.07;   -9.000;  -16.610;    0.000; 7.61000
 434.36;  -13.000;  -16.950;    0.000; 3.95000
 434.65;  -22.120;  -27.030;    0.000; 4.91000
 434.94;  -14.270;  -19.310;    0.000; 5.04000
 435.23;   -4.860;   -5.090;    0.000; 0.23000
 435.52;   -7.210;  -13.640;    0.000; 6.43000
 435.81;   -5.650;   -6.560;    0.000; 0.91000
 436.10;   -8.830;  -18.360;    0.000; 9.53000
 436.39;   -6.110;   -1.810;    0.000;-4.30000
 436.68;   -1.410;  -11.450;    0.000;10.04000
 436.97;  -16.730;  -11.940;    0.000;-4.79000
 437.26;  -14.400;  -15.160;    0.000; 0.76000
 437.55;   -8.610;   -9.340;    0.000; 0.73000
 437.83;  -16.130;  -24.130;    0.000; 8.00000
 438.12;  -20.810;  -18.050;    0.000;-2.76000
 438.41;  -13.890;  -16.450;    0.000; 2.56000
 438.70;    7.440;    5.100;    0.000; 2.34000
 438.99;    1.000;   -6.560;    0.000; 7.56000
 439.28;   -5.020;  -16.310;    0.000;11.29000
 439.57;  -20.340;  -26.570;    0.000; 6.23000
 439.86;  -11.260;  -22.850;    0.000;11.59000
 440.15;   -6.620;  -18.290;    0.000;11.67000
 440.44;  -12.320;  -10.400;    0.000;-1.92000
 440.73;  -20.250;  -18.710;    0.000;-1.54000
 441.02;  -11.060;  -12.870;    0.000; 1.81000
 441.31;  -10.390;  -12.510;    0.000; 2.12000
 441.60;   -5.100;   -5.700;    0.000; 0.60000
 441.89;  -11.150;  -20.000;    0.000; 8.85000
 442.18;  -12.260;  -17.290;    0.000; 5.03000
 442.47;   -5.390;  -23.560;    0.000;18.17000
 442.76;  -13.880;  -22.050;    0.000; 8.17000
 443.05;   -6.980;  -10.700;    0.000; 3.72000
 443.34;  -11.200;  -15.160;    0.000; 3.96000
 443.63;  -14.650;  -23.400;    0.000; 8.75000
 443.91;  -10.800;  -12.690;    0.000; 1.89000
 444.20;  -20.720;  -20.000;    0.000;-0.72000
 444.49;  -15.690;  -19.950;    0.000; 4.26000
 444.78;   -9.160;  -18.340;    0.000; 9.18000
 445.07;   -2.370;   -5.870;    0.000; 3.50000
 445.36;  -22.790;  -26.980;    0.000; 4.19000
 445.65;   -8.810;  -13.340;    0.000; 4.53000
 445.94;  -19.400;  -18.160;    0.000;-1.24000
 446.23;   -0.080;  -10.830;    0.000;10.75000
 446.52;   -2.640;  -19.630;    0.000;16.99000
 446.81;   -8.000;   -3.250;    0.000;-4.75000
 447.10;   -6.490;  -16.850;    0.000;10.36000
 447.38;  -18.880;   -9.000;    0.000;-9.88000
 447.67;  -13.590;  -16.460;    0.000; 2.87000
 447.96;  -15.110;  -15.930;    0.000; 0.82000
 448.25;  -13.410;  -11.520;    0.000;-1.89000
 448.54;   -6.610;  -14.940;    0.000; 8.33000
 448.83;  -13.570;  -23.010;    0.000; 9.44000
 449.12;   -7.470;  -12.830;    0.000; 5.36000
 449.41;  -18.020;  -21.820;    0.000; 3.80000
 449.70;  -11.030;  -15.120;    0.000; 4.09000
 449.98;  -20.070;  -24.820;    0.000; 4.75000
 450.27;   -7.380;  -10.730;    0.000; 3.35000
 450.56;  -18.740;  -32.070;    0.000;13.33000
 450.85;   -6.620;  -17.010;    0.000;10.39000
 451.14;  -19.500;  -19.960;    0.000; 0.46000
 451.43;  -16.630;  -22.330;    0.000; 5.70000
 451.72;  -24.040;  -25.220;    0.000; 1.18000
 452.01;   -4.550;   -8.480;    0.000; 3.93000
 452.29;  -16.690;  -25.040;    0.000; 8.35000
 452.58;  -14.610;  -19.810;    0.000; 5.20000
 452.87;  -16.910;  -25.340;    0.000; 8.43000
 453.16;  -12.140;  -19.590;    0.000; 7.45000
 453.45;   -7.810;  -18.650;    0.000;10.84000
 453.74;  -17.120;  -12.950;    0.000;-4.17000
 454.03;  -13.270;  -24.100;    0.000;10.83000
 454.31;  -14.180;  -16.240;    0.000; 2.06000
 454.60;  -20.730;  -19.330;    0.000;-1.40000
 454.89;   -6.420;  -11.120;    0.000; 4.70000
 455.18;  -10.620;  -27.130;    0.000;16.51000
 455.47;  -24.240;  -21.170;    0.000;-3.07000
 455.76;  -10.990;  -24.610;    0.000;13.62000
 456.04;  -11.240;  -11.030;    0.000;-0.21000
 456.33;  -21.900;  -18.760;    0.000;-3.14000
 456.62;   -6.960;  -19.610;    0.000;12.65000
 456.91;  -16.670;  -28.380;    0.000;11.71000
 457.20;   -1.690;   -5.630;    0.000; 3.94000
 457.49;  -13.520;  -27.200;    0.000;13.68000
 457.77;  -10.950;  -17.300;    0.000; 6.35000
 458.06;  -13.800;  -18.500;    0.000; 4.70000
 458.35;  -19.390;  -17.400;    0.000;-1.99000
 458.64;  -13.800;  -24.560;    0.000;10.76000
 458.93;   -7.030;  -18.030;    0.000;11.00000
 459.21;  -20.200;  -24.490;    0.000; 4.29000
 459.50;  -15.310;  -10.930;    0.000;-4.38000
 459.79;  -20.440;  -29.690;    0.000; 9.25000
 460.08;  -16.410;  -20.110;    0.000; 3.70000
 460.37;  -14.510;  -20.120;    0.000; 5.61000
 460.65;   -7.310;  -13.690;    0.000; 6.38000
 460.94;  -15.250;  -23.190;    0.000; 7.94000
 461.23;   -6.990;  -21.260;    0.000;14.27000
 461.52;    3.780;   -7.100;    0.000;10.88000
 461.81;  -13.610;  -22.900;    0.000; 9.29000
 462.09;  -10.590;  -18.640;    0.000; 8.05000
 462.38;  -15.700;  -21.600;    0.000; 5.90000
 462.67;  -18.020;  -27.600;    0.000; 9.58000
 462.96;  -10.290;  -18.400;    0.000; 8.11000
 463.24;  -17.550;  -21.500;    0.000; 3.95000
 463.53;  -13.190;  -11.730;    0.000;-1.46000
 463.82;  -13.820;  -24.760;    0.000;10.94000
 464.11;  -14.680;  -21.340;    0.000; 6.66000
 464.40;  -20.630;  -28.780;    0.000; 8.15000
 464.68;  -16.950;  -25.400;    0.000; 8.45000
 464.97;  -14.010;  -22.490;    0.000; 8.48000
 465.26;  -12.550;  -12.310;    0.000;-0.24000
 465.55;  -15.630;  -25.340;    0.000; 9.71000
 465.83;   -6.550;  -16.630;    0.000;10.08000
 466.12;  -18.950;  -27.950;    0.000; 9.00000
 466.41;   -2.810;  -13.760;    0.000;10.95000
 466.70;  -20.860;  -27.320;    0.000; 6.46000
 466.98;  -19.810;  -19.100;    0.000;-0.71000
 467.27;  -10.680;  -15.890;    0.000; 5.21000
 467.56;   -3.560;   -3.140;    0.000;-0.42000
 467.85;  -10.870;  -21.160;    0.000;10.29000
 468.13;  -14.260;  -10.210;    0.000;-4.05000
 468.42;  -11.800;  -21.810;    0.000;10.01000
 468.71;  -12.320;  -21.960;    0.000; 9.64000
 468.99;  -13.370;  -23.670;    0.000;10.30000
 469.28;  -16.580;  -23.740;    0.000; 7.16000
 469.57;  -20.850;  -24.310;    0.000; 3.46000
 469.86;   -8.310;  -17.130;    0.000; 8.82000
 470.14;  -18.150;  -27.390;    0.000; 9.24000
 470.43;    3.670;   -3.080;    0.000; 6.75000
 470.72;  -21.980;  -30.520;    0.000; 8.54000
 471.00;  -11.830;  -27.340;    0.000;15.51000
 471.29;   -1.410;  -16.820;    0.000;15.41000
 471.58;   -2.540;   -1.770;    0.000;-0.77000
 471.87;  -13.900;  -23.530;    0.000; 9.63000
 472.15;  -13.420;  -20.140;    0.000; 6.72000
 472.44;    8.420;  -10.790;    0.000;19.21000
 472.73;  -15.540;  -24.380;    0.000; 8.84000
 473.01;  -12.450;  -31.480;    0.000;19.03000
 473.30;   -4.140;  -18.050;    0.000;13.91000
 473.59;   -9.910;  -21.600;    0.000;11.69000
 473.87;   -8.880;  -20.000;    0.000;11.12000
 474.16;  -17.880;  -31.170;    0.000;13.29000
 474.45;   -7.260;  -20.640;    0.000;13.38000
 474.74;  -18.940;  -32.260;    0.000;13.32000
 475.02;  -10.490;  -12.660;    0.000; 2.17000
 475.31;   -9.590;  -19.370;    0.000; 9.78000
 475.60;   -6.640;  -16.310;    0.000; 9.67000
 475.88;  -11.430;  -28.060;    0.000;16.63000
 476.17;    6.980;   -7.100;    0.000;14.08000
 476.46;  -18.010;  -25.100;    0.000; 7.09000
 476.74;  -16.180;  -16.590;    0.000; 0.41000
 477.03;  -21.370;  -32.260;    0.000;10.89000
 477.32;   -6.000;   -9.990;    0.000; 3.99000
 477.60;  -15.900;  -25.170;    0.000; 9.27000
 477.89;   -5.920;  -14.410;    0.000; 8.49000
 478.18;   -7.690;  -24.840;    0.000;17.15000
 478.46;   -1.070;  -12.980;    0.000;11.91000
 478.75;  -14.760;  -26.450;    0.000;11.69000
 479.03;  -18.520;  -18.610;    0.000; 0.09000
 479.32;  -15.630;  -18.010;    0.000; 2.38000
 479.61;  -15.440;  -17.740;    0.000; 2.30000
 479.89;  -21.210;  -32.470;    0.000;11.26000
 480.18;  -20.790;  -19.180;    0.000;-1.61000
 480.47;  -12.380;  -19.530;    0.000; 7.15000
 480.75;  -16.970;  -21.460;    0.000; 4.49000
 481.04;  -10.240;  -21.890;    0.000;11.65000
 481.33;   -7.750;  -19.190;    0.000;11.44000
 481.61;  -13.870;  -26.000;    0.000;12.13000
 481.90;  -16.420;  -24.330;    0.000; 7.91000
 482.18;   -0.820;  -12.870;    0.000;12.05000
 482.47;  -14.130;   -9.230;    0.000;-4.90000
 482.76;  -20.290;  -27.380;    0.000; 7.09000
 483.04;   -3.450;  -19.970;    0.000;16.52000
 483.33;  -18.690;  -36.330;    0.000;17.64000
 483.61;   -7.730;  -21.150;    0.000;13.42000
 483.90;  -12.600;  -27.790;    0.000;15.19000
 484.19;  -12.370;  -28.550;    0.000;16.18000
 484.47;  -11.770;  -29.920;    0.000;18.15000
 484.76;   -7.390;  -26.270;    0.000;18.88000
 485.05;  -10.640;  -21.290;    0.000;10.65000
 485.33;   -6.950;  -21.790;    0.000;14.84000
 485.62;  -20.380;  -30.440;    0.000;10.06000
 485.90;  -13.800;  -21.610;    0.000; 7.81000
 486.19;  -21.110;  -28.210;    0.000; 7.10000
 486.47;   -1.360;   -4.970;    0.000; 3.61000
 486.76;  -14.660;  -33.520;    0.000;18.86000
 487.05;   -3.600;  -17.370;    0.000;13.77000
 487.33;  -18.190;  -27.740;    0.000; 9.55000
 487.62;   -8.150;  -25.220;    0.000;17.07000
 487.90;  -19.320;  -24.810;    0.000; 5.49000
 488.19;    1.980;  -10.100;    0.000;12.08000
 488.47;   -7.770;  -22.810;    0.000;15.04000
 488.76;   -5.680;  -18.670;    0.000;12.99000
 489.05;   -0.170;  -15.140;    0.000;14.97000
 489.33;    0.390;  -21.140;    0.000;21.53000
 489.62;   -4.420;  -24.230;    0.000;19.81000
 489.90;   -5.660;  -27.030;    0.000;21.37000
 490.19;   -2.930;  -30.750;    0.000;27.82000
 490.47;    2.060;  -22.180;    0.000;24.24000
 490.76;    1.840;  -22.340;    0.000;24.18000
 491.05;    9.370;  -12.260;    0.000;21.63000
 491.33;   10.330;  -22.510;    0.000;32.84000
 491.62;    3.420;  -21.570;    0.000;24.99000
 491.90;   11.030;  -26.480;    0.000;37.51000
 492.19;   10.840;  -26.160;    0.000;37.00000
 492.47;   11.620;  -30.670;    0.000;42.29000
 492.76;   33.660;  -23.690;    0.000;57.35000
 493.04;   28.180;  -20.900;    0.000;49.08000
 493.33;   30.030;  -27.540;    0.000;57.57000
 493.61;   43.670;  -29.360;    0.000;73.03000
 493.90;   54.110;  -15.540;    0.000;69.65000
 494.18;   51.580;  -20.750;    0.000;72.33000
 494.47;   56.890;  -30.060;    0.000;86.95000
 494.75;   63.560;  -29.080;    0.000;92.64000
 495.04;   82.220;  -18.440;    0.000;100.66000
 495.32;   91.330;  -33.110;    0.000;124.44000
 495.61;  100.140;  -28.570;    0.000;128.71000
 495.89;  101.220;  -37.530;    0.000;138.75000
 496.18;  126.110;  -23.250;    0.000;149.36000
 496.46;  136.240;  -23.180;    0.000;159.42001
 496.75;  147.700;  -21.450;    0.000;169.15000
 497.03;  161.560;  -28.260;    0.000;189.82000
 497.32;  187.660;  -24.590;    0.000;212.25000
 497.60;  192.950;  -31.160;    0.000;224.11000
 497.89;  216.660;  -20.470;    0.000;237.13000
 498.17;  236.520;  -31.270;    0.000;267.79000
 498.46;  253.990;  -22.930;    0.000;276.92001
 498.74;  272.940;  -23.650;    0.000;296.59000
 499.03;  297.090;  -20.030;    0.000;317.12000
 499.31;  316.340;  -31.270;    0.000;347.61000
 499.60;  350.670;  -18.610;    0.000;369.28001
 499.88;  394.550;  -10.980;    0.000;405.52999
 500.17;  406.310;  -24.320;    0.000;430.63000
 500.45;  432.070;  -35.700;    0.000;467.77001
 500.74;  472.100;  -22.620;    0.000;494.72001
 501.02;  496.230;  -33.630;    0.000;529.86001
 501.31;  526.720;  -17.610;    0.000;544.32997
 501.59;  581.360;  -29.560;    0.000;610.91998
 501.88;  610.640;  -13.950;    0.000;624.59001
 502.16;  630.700;  -34.760;    0.000;665.46001
 502.45;  679.880;  -16.300;    0.000;696.18000
 502.73;  713.820;  -30.760;    0.000;744.58001
 503.01;  770.600;  -24.340;    0.000;794.93998
 503.30;  813.210;  -37.940;    0.000;851.15002
 503.58;  840.960;  -23.090;    0.000;864.05002
 503.87;  893.610;  -21.060;    0.000;914.66998
 504.15;  930.880;  -30.190;    0.000;961.07001
 504.44;  989.800;  -27.590;    0.000;1017.38999
 504.72; 1049.180;  -10.570;    0.000;1059.75005
 505.00; 1089.440;  -34.250;    0.000;1123.68994
 505.29; 1147.250;   -9.520;    0.000;1156.77000
 505.57; 1216.830;  -29.130;    0.000;1245.95996
 505.86; 1251.050;  -27.820;    0.000;1278.87005
 506.14; 1306.440;  -35.780;    0.000;1342.21994
 506.43; 1383.330;  -12.910;    0.000;1396.23996
 506.71; 1414.960;  -34.180;    0.000;1449.13996
 506.99; 1500.410;  -30.960;    0.000;1531.37003
 507.28; 1554.780;  -19.100;    0.000;1573.88003
 507.56; 1613.430;  -24.830;    0.000;1638.26005
 507.85; 1684.560;  -37.590;    0.000;1722.15006
 508.13; 1746.470;  -19.100;    0.000;1765.56997
 508.41; 1835.360;  -12.480;    0.000;1847.83998
 508.70; 1883.380;  -25.360;    0.000;1908.74001
 508.98; 1935.640;  -28.380;    0.000;1964.02001
 509.27; 2032.400;  -20.760;    0.000;2053.16002
 509.55; 2091.310;  -24.450;    0.000;2115.76006
 509.83; 2165.160;  -25.210;    0.000;2190.36991
 510.12; 2218.810;  -32.590;    0.000;2251.40006
 510.40; 2307.990;  -21.830;    0.000;2329.81999
 510.69; 2371.200;  -24.150;    0.000;2395.34995
 510.97; 2471.970;  -16.710;    0.000;2488.67997
 511.25; 2515.200;  -35.350;    0.000;2550.54995
 511.54; 2587.530;  -25.090;    0.000;2612.62003
 511.82; 2667.570;  -17.590;    0.000;2685.16007
 512.11; 2745.590;  -22.350;    0.000;2767.94009
 512.39; 2822.570;  -32.070;    0.000;2854.64007
 512.67; 2905.300;  -25.880;    0.000;2931.18005
 512.96; 2970.370;  -28.850;    0.000;2999.22012
 513.24; 3058.410;  -17.400;    0.000;3075.80991
 513.52; 3123.950;  -26.700;    0.000;3150.64995
 513.81; 3204.550;  -12.470;    0.000;3217.02005
 514.09; 3256.430;  -39.120;    0.000;3295.54993
 514.37; 3323.470;  -27.600;    0.000;3351.06997
 514.66; 3412.570;  -17.040;    0.000;3429.61007
 514.94; 3484.820;  -21.390;    0.000;3506.21007
 515.22; 3544.270;  -27.790;    0.000;3572.06002
 515.51; 3664.160;  -29.040;    0.000;3693.19991
 515.79; 3714.090;  -28.800;    0.000;3742.89009
 516.07; 3790.860;  -17.270;    0.000;3808.13011
 516.36; 3852.870;  -41.720;    0.000;3894.59012
 516.64; 3956.920;  -19.320;    0.000;3976.23992
 516.92; 4031.980;  -31.610;    0.000;4063.58998
 517.21; 4126.040;  -33.320;    0.000;4159.36004
 517.49; 4198.010;  -31.350;    0.000;4229.35977
 517.77; 4302.690;  -19.740;    0.000;4322.42994
 518.06; 4382.720;  -30.270;    0.000;4412.99022
 518.34; 4450.670;  -12.260;    0.000;4462.92992
 518.62; 4517.360;  -21.610;    0.000;4538.96986
 518.91; 4589.210;  -12.930;    0.000;4602.13996
 519.19; 4675.100;  -34.590;    0.000;4709.69010
 519.47; 4768.340;  -20.490;    0.000;4788.82984
 519.76; 4848.710;  -21.550;    0.000;4870.25996
 520.04; 4890.940;  -14.340;    0.000;4905.27994
 520.32; 4962.160;  -23.830;    0.000;4985.99016
 520.61; 5060.200;   -5.440;    0.000;5065.64020
 520.89; 5105.240;  -37.640;    0.000;5142.88023
 521.17; 5185.610;  -26.850;    0.000;5212.45986
 521.45; 5267.800;  -23.640;    0.000;5291.43980
 521.74; 5315.990;  -17.740;    0.000;5333.73023
 522.02; 5380.610;  -26.720;    0.000;5407.32986
 522.30; 5472.990;  -14.940;    0.000;5487.93023
 522.59; 5528.810;  -21.350;    0.000;5550.16006
 522.87; 5608.430;  -32.120;    0.000;5640.55017
 523.15; 5650.320;  -18.770;    0.000;5669.08982
 523.43; 5723.070;  -28.200;    0.000;5751.26982
 523.72; 5818.770;  -31.700;    0.000;5850.47002
 524.00; 5862.890;  -22.390;    0.000;5885.28014
 524.28; 5931.460;  -27.040;    0.000;5958.49996
 524.57; 5985.480;  -20.090;    0.000;6005.56998
 524.85; 6016.710;  -34.840;    0.000;6051.54996
 525.13; 6127.550;  -17.120;    0.000;6144.66981
 525.41; 6191.310;  -19.600;    0.000;6210.91006
 525.70; 6240.020;  -20.520;    0.000;6260.54002
 525.98; 6303.280;  -37.750;    0.000;6341.02979
 526.26; 6342.900;  -23.650;    0.000;6366.54990
 526.54; 6427.340;  -26.170;    0.000;6453.50984
 526.83; 6477.710;  -28.490;    0.000;6506.19996
 527.11; 6541.060;  -27.630;    0.000;6568.69006
 527.39; 6632.450;  -17.980;    0.000;6650.43019
 527.67; 6645.480;  -25.250;    0.000;6670.72998
 527.96; 6697.910;  -18.240;    0.000;6716.15016
 528.24; 6770.500;  -32.040;    0.000;6802.54000
 528.52; 6879.790;  -22.060;    0.000;6901.85004
 528.80; 6905.180;  -16.360;    0.000;6921.54018
 529.08; 6942.320;  -24.400;    0.000;6966.71982
 529.37; 7032.550;  -29.260;    0.000;7061.80980
 529.65; 7101.420;  -13.830;    0.000;7115.24992
 529.93; 7164.780;  -22.430;    0.000;7187.20979
 530.21; 7203.950;  -21.460;    0.000;7225.41019
 530.50; 7260.790;  -30.250;    0.000;7291.04004
 530.78; 7292.910;  -14.630;    0.000;7307.54016
 531.06; 7342.480;  -20.080;    0.000;7362.55998
 531.34; 7416.370;  -25.820;    0.000;7442.19012
 531.62; 7473.250;  -31.660;    0.000;7504.91000
 531.91; 7466.910;  -15.940;    0.000;7482.85016
 532.19; 7515.730;  -25.720;    0.000;7541.44998
 532.47; 7617.570;  -18.110;    0.000;7635.67982
 532.75; 7662.400;  -21.440;    0.000;7683.83990
 533.03; 7716.090;  -17.220;    0.000;7733.30984
 533.32; 7732.460;  -17.810;    0.000;7750.26996
 533.60; 7791.190;   -9.970;    0.000;7801.15994
 533.88; 7870.070;  -15.710;    0.000;7885.77982
 534.16; 7902.430;  -18.090;    0.000;7920.52018
 534.44; 7966.750;  -10.590;    0.000;7977.34000
 534.72; 8016.010;  -23.730;    0.000;8039.73977
 535.01; 8053.130;  -27.150;    0.000;8080.27988
 535.29; 8085.620;  -21.960;    0.000;8107.58012
 535.57; 8112.180;  -23.210;    0.000;8135.39017
 535.85; 8152.140;  -13.690;    0.000;8165.83014
 536.13; 8217.460;  -28.500;    0.000;8245.95996
 536.42; 8271.320;  -21.980;    0.000;8293.30031
 536.70; 8301.850;  -24.950;    0.000;8326.79961
 536.98; 8343.430;  -20.220;    0.000;8363.64969
 537.26; 8393.110;  -29.690;    0.000;8422.80035
 537.54; 8433.120;  -20.250;    0.000;8453.37012
 537.82; 8496.180;  -25.520;    0.000;8521.69969
 538.10; 8512.570;  -26.660;    0.000;8539.23031
 538.39; 8580.900;  -21.750;    0.000;8602.65039
 538.67; 8601.380;  -22.250;    0.000;8623.62988
 538.95; 8643.670;  -30.330;    0.000;8673.99992
 539.23; 8689.000;  -19.740;    0.000;8708.74000
 539.51; 8724.950;  -23.770;    0.000;8748.72020
 539.79; 8778.350;  -24.990;    0.000;8803.33961
 540.07; 8801.900;  -36.040;    0.000;8837.94039
 540.36; 8846.630;  -32.000;    0.000;8878.62988
 540.64; 8878.520;  -27.990;    0.000;8906.50953
 540.92; 8895.880;  -16.720;    0.000;8912.59988
 541.20; 8963.440;  -22.670;    0.000;8986.11043
 541.48; 8997.650;   -5.030;    0.000;9002.68039
 541.76; 9066.730;  -30.870;    0.000;9097.60047
 542.04; 9053.090;  -20.340;    0.000;9073.42984
 542.32; 9120.920;  -29.390;    0.000;9150.30992
 542.61; 9150.560;  -19.070;    0.000;9169.62957
 542.89; 9167.730;  -13.970;    0.000;9181.70047
 543.17; 9188.190;  -18.380;    0.000;9206.57043
 543.45; 9252.970;  -27.300;    0.000;9280.26973
 543.73; 9294.450;  -30.880;    0.000;9325.33019
 544.01; 9348.190;  -28.330;    0.000;9376.52043
 544.29; 9335.240;  -23.230;    0.000;9358.47023
 544.57; 9367.820;  -30.670;    0.000;9398.49031
 544.85; 9430.440;  -31.850;    0.000;9462.29043
 545.13; 9445.720;  -29.720;    0.000;9475.43973
 545.42; 9492.180;  -22.510;    0.000;9514.68969
 545.70; 9517.530;  -25.810;    0.000;9543.34027
 545.98; 9553.760;  -29.460;    0.000;9583.21976
 546.26; 9517.980;  -23.710;    0.000;9541.69047
 546.54; 9555.820;  -27.350;    0.000;9583.17031
 546.82; 9618.710;  -27.350;    0.000;9646.05996
 547.10; 9640.160;  -28.060;    0.000;9668.22016
 547.38; 9657.310;  -26.980;    0.000;9684.28957
 547.66; 9644.890;  -20.600;    0.000;9665.48965
 547.94; 9703.030;  -26.620;    0.000;9729.65027
 548.22; 9751.990;  -18.210;    0.000;9770.20023
 548.50; 9725.890;  -33.930;    0.000;9759.81965
 548.78; 9800.630;  -19.160;    0.000;9819.78988
 549.06; 9786.160;  -26.480;    0.000;9812.64016
 549.34; 9831.410;  -26.050;    0.000;9857.46016
 549.63; 9830.110;  -22.420;    0.000;9852.53035
 549.91; 9838.860;  -20.450;    0.000;9859.31035
 550.19; 9896.080;  -20.960;    0.000;9917.04008
 550.47; 9875.690;  -23.490;    0.000;9899.18043
 550.75; 9886.970;  -35.020;    0.000;9921.98973
 551.03; 9928.490;  -20.560;    0.000;9949.05023
 551.31; 9932.340;  -24.020;    0.000;9956.35984
 551.59; 9996.580;  -16.240;    0.000;10012.82008
 551.87;10010.530;  -23.530;    0.000;10034.06027
 552.15; 9997.100;  -28.140;    0.000;10025.23961
 552.43;10043.940;  -14.870;    0.000;10058.81043
 552.71;10029.630;  -21.280;    0.000;10050.90988
 552.99;10042.250;  -21.520;    0.000;10063.77000
 553.27;10080.060;  -25.870;    0.000;10105.92957
 553.55;10093.710;  -23.860;    0.000;10117.56996
 553.83;10118.200;  -19.210;    0.000;10137.41019
 554.11;10107.770;  -21.190;    0.000;10128.95953
 554.39;10191.280;  -17.150;    0.000;10208.43027
 554.67;10168.880;  -26.640;    0.000;10195.51988
 554.95;10155.220;    3.920;    0.000;10151.29973
 555.23;10166.790;  -11.960;    0.000;10178.75004
 555.51;10158.460;  -21.900;    0.000;10180.35996
 555.79;10217.700;  -23.970;    0.000;10241.67019
 556.07;10160.260;  -19.910;    0.000;10180.16977
 556.35;10177.570;  -18.640;    0.000;10196.21031
 556.63;10187.380;  -12.070;    0.000;10199.44988
 556.91;10211.870;   -1.640;    0.000;10213.51012
 557.19;10253.030;  -13.940;    0.000;10266.97027
 557.47;10201.110;  -13.060;    0.000;10214.17035
 557.75;10241.730;  -15.340;    0.000;10257.07047
 558.03;10259.320;  -13.480;    0.000;10272.80031
 558.31;10265.460;  -19.320;    0.000;10284.77996
 558.59;10265.440;  -31.280;    0.000;10296.72043
 558.87;10292.360;  -13.310;    0.000;10305.67035
 559.15;10278.490;  -29.070;    0.000;10307.56023
 559.43;10328.220;  -25.000;    0.000;10353.21973
 559.71;10321.100;  -21.670;    0.000;10342.76961
 559.99;10311.310;  -21.350;    0.000;10332.65957
 560.27;10304.450;  -24.410;    0.000;10328.86020
 560.55;10325.030;  -16.770;    0.000;10341.80027
 560.82;10319.180;  -40.520;    0.000;10359.69969
 561.10;10311.930;  -21.030;    0.000;10332.95969
 561.38;10333.590;  -31.620;    0.000;10365.20984
 561.66;10312.860;  -19.200;    0.000;10332.06035
 561.94;10284.320;  -32.500;    0.000;10316.82031
 562.22;10341.670;  -18.950;    0.000;10360.61992
 562.50;10314.310;  -22.930;    0.000;10337.23957
 562.78;10311.760;  -21.880;    0.000;10333.63976
 563.06;10263.610;  -25.020;    0.000;10288.63035
 563.34;10276.980;  -23.340;    0.000;10300.32047
 563.62;10295.390;  -28.600;    0.000;10323.98965
 563.90;10266.660;  -24.780;    0.000;10291.44016
 564.18;10275.590;  -23.890;    0.000;10299.47984
 564.46;10237.830;  -31.800;    0.000;10269.63008
 564.74;10253.730;  -36.810;    0.000;10290.54047
 565.01;10203.820;  -18.650;    0.000;10222.47031
 565.29;10251.650;  -31.200;    0.000;10282.85039
 565.57;10221.580;  -24.140;    0.000;10245.72008
 565.85;10209.300;  -30.170;    0.000;10239.46980
 566.13;10183.120;  -25.400;    0.000;10208.52012
 566.41;10211.210;  -20.760;    0.000;10231.96996
 566.69;10182.570;  -20.180;    0.000;10202.75031
 566.97;10148.410;  -29.100;    0.000;10177.51016
 567.25;10173.940;  -23.320;    0.000;10197.26043
 567.53;10140.720;  -37.960;    0.000;10178.67973
 567.80;10143.280;  -17.520;    0.000;10160.80027
 568.08;10145.510;  -24.640;    0.000;10170.14977
 568.36;10101.420;  -31.890;    0.000;10133.30992
 568.64;10054.590;  -36.700;    0.000;10091.28984
 568.92;10062.760;  -19.060;    0.000;10081.81977
 569.20;10020.240;  -33.620;    0.000;10053.86023
 569.48;10058.350;  -28.970;    0.000;10087.31961
 569.76; 9995.410;  -38.390;    0.000;10033.80016
 570.03;10036.070;  -30.740;    0.000;10066.81031
 570.31; 9969.710;  -26.680;    0.000;9996.38996
 570.59; 9954.920;  -30.140;    0.000;9985.05992
 570.87; 9948.450;  -36.880;    0.000;9985.33020
 571.15; 9927.270;  -34.680;    0.000;9961.94953
 571.43; 9884.500;  -25.070;    0.000;9909.57000
 571.71; 9873.130;  -27.830;    0.000;9900.95988
 571.98; 9878.400;  -36.950;    0.000;9915.35039
 572.26; 9858.350;  -31.860;    0.000;9890.20961
 572.54; 9815.190;  -30.510;    0.000;9845.70043
 572.82; 9806.030;  -26.230;    0.000;9832.26027
 573.10; 9777.330;  -29.670;    0.000;9807.00008
 573.38; 9752.170;  -24.500;    0.000;9776.66992
 573.66; 9701.810;  -37.870;    0.000;9739.67957
 573.93; 9715.690;  -25.520;    0.000;9741.21043
 574.21; 9714.810;  -44.710;    0.000;9759.51957
 574.49; 9678.220;  -29.650;    0.000;9707.86973
 574.77; 9646.010;  -29.070;    0.000;9675.07977
 575.05; 9617.350;  -17.380;    0.000;9634.72961
 575.33; 9594.260;  -34.780;    0.000;9629.03976
 575.60; 9548.240;  -27.030;    0.000;9575.27024
 575.88; 9526.690;  -27.440;    0.000;9554.13043
 576.16; 9478.050;  -28.700;    0.000;9506.74981
 576.44; 9457.060;  -26.920;    0.000;9483.97957
 576.72; 9423.710;  -35.650;    0.000;9459.35996
 576.99; 9398.620;  -36.450;    0.000;9435.07012
 577.27; 9389.220;  -27.480;    0.000;9416.69973
 577.55; 9340.940;  -21.740;    0.000;9362.68043
 577.83; 9342.740;  -27.910;    0.000;9370.65023
 578.11; 9287.130;  -39.940;    0.000;9327.06988
 578.38; 9269.370;  -31.370;    0.000;9300.74012
 578.66; 9219.440;  -41.950;    0.000;9261.39043
 578.94; 9216.730;  -30.900;    0.000;9247.63047
 579.22; 9173.220;  -31.660;    0.000;9204.87973
 579.50; 9149.380;  -15.330;    0.000;9164.70988
 579.77; 9091.000;  -36.810;    0.000;9127.81000
 580.05; 9069.120;  -29.770;    0.000;9098.89012
 580.33; 9032.240;  -40.660;    0.000;9072.90023
 580.61; 8987.190;  -26.940;    0.000;9014.13043
 580.88; 9012.140;  -32.860;    0.000;9044.99965
 581.16; 8951.720;  -27.910;    0.000;8979.62973
 581.44; 8944.320;  -27.700;    0.000;8972.02031
 581.72; 8875.510;  -32.140;    0.000;8907.64977
 581.99; 8834.120;  -30.970;    0.000;8865.09012
 582.27; 8776.490;  -33.160;    0.000;8809.65023
 582.55; 8770.540;  -39.520;    0.000;8810.06004
 582.83; 8758.020;  -24.610;    0.000;8782.62953
 583.10; 8685.210;  -35.980;    0.000;8721.18996
 583.38; 8624.020;  -34.240;    0.000;8658.25953
 583.66; 8648.630;  -27.940;    0.000;8676.56988
 583.94; 8574.460;  -30.520;    0.000;8604.97996
 584.21; 8518.890;  -39.870;    0.000;8558.75965
 584.49; 8505.310;  -38.450;    0.000;8543.75957
 584.77; 8476.400;  -46.110;    0.000;8522.51039
 585.05; 8426.860;  -30.740;    0.000;8457.60035
 585.32; 8397.070;  -45.880;    0.000;8442.95031
 585.60; 8390.180;  -33.420;    0.000;8423.59969
 585.88; 8291.370;  -33.880;    0.000;8325.25012
 586.16; 8281.300;  -31.230;    0.000;8312.52980
 586.43; 8240.100;  -24.760;    0.000;8264.85961
 586.71; 8201.270;  -23.950;    0.000;8225.21953
 586.99; 8163.660;  -40.780;    0.000;8204.44016
 587.26; 8129.360;  -34.250;    0.000;8163.60986
 587.54; 8079.110;  -31.250;    0.000;8110.35986
 587.82; 8049.170;  -24.780;    0.000;8073.94992
 588.10; 7974.920;  -38.030;    0.000;8012.94992
 588.37; 7959.810;  -25.200;    0.000;7985.01006
 588.65; 7893.330;  -42.610;    0.000;7935.94008
 588.93; 7851.300;  -27.880;    0.000;7879.17980
 589.20; 7832.020;  -34.530;    0.000;7866.55002
 589.48; 7788.380;  -23.660;    0.000;7812.03988
 589.76; 7743.670;  -21.600;    0.000;7765.26992
 590.03; 7708.530;  -37.140;    0.000;7745.66978
 590.31; 7677.710;  -37.740;    0.000;7715.44996
 590.59; 7638.780;  -19.850;    0.000;7658.62979
 590.86; 7580.880;  -35.440;    0.000;7616.31988
 591.14; 7532.590;  -32.470;    0.000;7565.05984
 591.42; 7483.740;  -42.520;    0.000;7526.26023
 591.70; 7438.120;  -28.630;    0.000;7466.75012
 591.97; 7408.690;  -41.090;    0.000;7449.77994
 592.25; 7379.270;  -31.770;    0.000;7411.04002
 592.53; 7283.920;  -34.330;    0.000;7318.24992
 592.80; 7278.660;  -27.170;    0.000;7305.83016
 593.08; 7257.840;  -36.980;    0.000;7294.81984
 593.36; 7202.340;  -29.710;    0.000;7232.04984
 593.63; 7181.780;  -31.670;    0.000;7213.44979
 593.91; 7114.370;  -37.820;    0.000;7152.19012
 594.18; 7059.140;  -29.310;    0.000;7088.45014
 594.46; 7025.980;  -32.730;    0.000;7058.70998
 594.74; 6980.520;  -39.980;    0.000;7020.50002
 595.01; 6918.520;  -41.290;    0.000;6959.81002
 595.29; 6881.250;  -42.620;    0.000;6923.87000
 595.57; 6859.510;  -26.370;    0.000;6885.87977
 595.84; 6801.090;  -44.010;    0.000;6845.09984
 596.12; 6767.670;  -26.910;    0.000;6794.57992
 596.40; 6653.770;  -47.870;    0.000;6701.64002
 596.67; 6637.450;  -30.050;    0.000;6667.50019
 596.95; 6626.610;  -32.450;    0.000;6659.05986
 597.22; 6572.360;  -36.470;    0.000;6608.82986
 597.50; 6541.700;  -30.000;    0.000;6571.70020
 597.78; 6473.760;  -26.450;    0.000;6500.20977
 598.05; 6431.800;  -38.050;    0.000;6469.84980
 598.33; 6406.110;  -35.310;    0.000;6441.41986
 598.61; 6364.720;  -40.030;    0.000;6404.75021
 598.88; 6335.470;  -34.500;    0.000;6369.97021
 599.16; 6266.630;  -33.800;    0.000;6300.42988
 599.43; 6255.020;  -34.760;    0.000;6289.78002
 599.71; 6197.220;  -33.630;    0.000;6230.85022
 599.99; 6154.510;  -39.260;    0.000;6193.76976
 600.26; 6111.360;  -35.270;    0.000;6146.62986
 600.54; 6056.260;  -23.060;    0.000;6079.31977
 600.81; 6034.950;  -22.730;    0.000;6057.68019
 601.09; 5991.380;  -31.880;    0.000;6023.25988
 601.36; 5926.210;  -41.720;    0.000;5967.92996
 601.64; 5895.330;  -26.930;    0.000;5922.26008
 601.92; 5854.210;  -40.110;    0.000;5894.31996
 602.19; 5827.500;  -33.850;    0.000;5861.35000
 602.47; 5769.540;  -42.910;    0.000;5812.45004
 602.74; 5774.180;  -30.200;    0.000;5804.38018
 603.02; 5711.060;  -37.710;    0.000;5748.77006
 603.29; 5675.830;  -31.120;    0.000;5706.95008
 603.57; 5606.090;  -46.120;    0.000;5652.20984
 603.85; 5614.290;  -37.100;    0.000;5651.39004
 604.12; 5572.720;  -30.010;    0.000;5602.73022
 604.40; 5498.670;  -42.650;    0.000;5541.31992
 604.67; 5499.780;  -33.630;    0.000;5533.40979
 604.95; 5453.750;  -37.310;    0.000;5491.06000
 605.22; 5403.120;  -40.580;    0.000;5443.70012
 605.50; 5389.020;  -29.990;    0.000;5419.01002
 605.77; 5346.450;  -34.720;    0.000;5381.17020
 606.05; 5288.500;  -31.660;    0.000;5320.16000
 606.33; 5289.960;  -32.560;    0.000;5322.51996
 606.60; 5220.200;  -34.370;    0.000;5254.57019
 606.88; 5193.880;  -37.980;    0.000;5231.85988
 607.15; 5183.340;  -26.270;    0.000;5209.60984
 607.43; 5138.870;  -39.250;    0.000;5178.12012
 607.70; 5105.460;  -18.560;    0.000;5124.01996
 607.98; 5080.090;  -49.000;    0.000;5129.08984
 608.25; 5021.870;  -34.350;    0.000;5056.22012
 608.53; 5018.470;  -49.930;    0.000;5068.40022
 608.80; 4971.150;  -33.950;    0.000;5005.09990
 609.08; 4940.580;  -48.850;    0.000;4989.43008
 609.35; 4913.850;  -35.970;    0.000;4949.82010
 609.63; 4871.810;  -47.350;    0.000;4919.16006
 609.90; 4884.190;  -35.810;    0.000;4919.99994
 610.18; 4826.730;  -33.780;    0.000;4860.50998
 610.45; 4791.660;  -37.870;    0.000;4829.53016
 610.73; 4796.810;  -41.280;    0.000;4838.09006
 611.00; 4769.130;  -22.200;    0.000;4791.32988
 611.28; 4722.890;  -42.300;    0.000;4765.19014
 611.55; 4689.440;  -43.860;    0.000;4733.29994
 611.83; 4660.960;  -51.020;    0.000;4711.97996
 612.10; 4646.220;  -43.340;    0.000;4689.56021
 612.38; 4613.340;  -42.020;    0.000;4655.35984
 612.65; 4588.310;  -35.390;    0.000;4623.70006
 612.93; 4529.340;  -49.670;    0.000;4579.00984
 613.20; 4542.700;  -40.010;    0.000;4582.71019
 613.48; 4492.730;  -50.070;    0.000;4542.79998
 613.75; 4463.220;  -39.000;    0.000;4502.22021
 614.03; 4486.950;  -33.860;    0.000;4520.81020
 614.30; 4448.780;  -48.420;    0.000;4497.19978
 614.57; 4394.470;  -48.760;    0.000;4443.23021
 614.85; 4402.140;  -33.970;    0.000;4436.11014
 615.12; 4334.930;  -45.710;    0.000;4380.64017
 615.40; 4357.840;  -47.900;    0.000;4405.73985
 615.67; 4337.740;  -47.350;    0.000;4385.09023
 615.95; 4305.450;  -35.100;    0.000;4340.55019
 616.22; 4278.340;  -46.180;    0.000;4324.51984
 616.50; 4247.930;  -41.480;    0.000;4289.41018
 616.77; 4211.620;  -43.960;    0.000;4255.58012
 617.05; 4202.800;  -21.360;    0.000;4224.15981
 617.32; 4149.810;  -43.180;    0.000;4192.99006
 617.59; 4103.130;  -33.460;    0.000;4136.58988
 617.87; 4080.110;  -54.150;    0.000;4134.26011
 618.14; 4042.350;  -35.260;    0.000;4077.61010
 618.42; 3997.580;  -47.110;    0.000;4044.69008
 618.69; 3980.690;  -43.470;    0.000;4024.15994
 618.97; 3904.000;  -47.040;    0.000;3951.04000
 619.24; 3888.700;  -36.430;    0.000;3925.12995
 619.51; 3836.440;  -36.430;    0.000;3872.86994
 619.79; 3771.680;  -37.530;    0.000;3809.20993
 620.06; 3713.930;  -41.100;    0.000;3755.02993
 620.34; 3653.830;  -42.490;    0.000;3696.32008
 620.61; 3592.610;  -39.810;    0.000;3632.42011
 620.88; 3545.950;  -42.270;    0.000;3588.21995
 621.16; 3588.110;  -43.080;    0.000;3631.19011
 621.43; 3623.810;  -35.920;    0.000;3659.73006
 621.71; 3599.180;  -35.190;    0.000;3634.36993
 621.98; 3584.820;  -35.890;    0.000;3620.71007
 622.25; 3509.760;  -43.810;    0.000;3553.57001
 622.53; 3512.850;  -33.350;    0.000;3546.20010
 622.80; 3476.050;  -46.030;    0.000;3522.08005
 623.08; 3488.380;  -41.160;    0.000;3529.53988
 623.35; 3465.480;  -47.690;    0.000;3513.16998
 623.62; 3444.990;  -44.660;    0.000;3489.64999
 623.90; 3436.550;  -42.660;    0.000;3479.21005
 624.17; 3415.340;  -28.880;    0.000;3444.22009
 624.44; 3396.310;  -38.740;    0.000;3435.05006
 624.72; 3374.260;  -34.060;    0.000;3408.32001
 624.99; 3347.310;  -49.930;    0.000;3397.24006
 625.26; 3375.140;  -49.640;    0.000;3424.77989
 625.54; 3399.230;  -33.530;    0.000;3432.75998
 625.81; 3400.100;  -44.770;    0.000;3444.87010
 626.09; 3399.070;  -49.480;    0.000;3448.55007
 626.36; 3397.790;  -44.100;    0.000;3441.89004
 626.63; 3385.150;  -41.510;    0.000;3426.65990
 626.91; 3373.580;  -47.370;    0.000;3420.95008
 627.18; 3358.060;  -38.040;    0.000;3396.10006
 627.45; 3345.180;  -37.530;    0.000;3382.70993
 627.73; 3348.010;  -44.610;    0.000;3392.62001
 628.00; 3360.750;  -37.550;    0.000;3398.30000
 628.27; 3329.190;  -36.200;    0.000;3365.38994
 628.55; 3332.410;  -42.700;    0.000;3375.10991
 628.82; 3306.950;  -53.070;    0.000;3360.01995
 629.09; 3297.020;  -41.330;    0.000;3338.35002
 629.37; 3299.730;  -53.690;    0.000;3353.41998
 629.64; 3281.600;  -37.610;    0.000;3319.21010
 629.91; 3269.750;  -55.250;    0.000;3325.00000
 630.18; 3261.540;  -39.470;    0.000;3301.01004
 630.46; 3253.980;  -41.710;    0.000;3295.68998
 630.73; 3228.130;  -35.240;    0.000;3263.36988
 631.00; 3231.330;  -42.180;    0.000;3273.51008
 631.28; 3179.230;  -48.540;    0.000;3227.76998
 631.55; 3190.330;  -44.940;    0.000;3235.27008
 631.82; 3198.810;  -34.080;    0.000;3232.89006
 632.10; 3176.450;  -41.710;    0.000;3218.15995
 632.37; 3152.800;  -41.490;    0.000;3194.29005
 632.64; 3152.650;  -37.410;    0.000;3190.05990
 632.91; 3127.010;  -31.710;    0.000;3158.72001
 633.19; 3111.210;  -44.670;    0.000;3155.87996
 633.46; 3090.730;  -48.740;    0.000;3139.46998
 633.73; 3098.190;  -47.490;    0.000;3145.67994
 634.01; 3074.470;  -40.410;    0.000;3114.87997
 634.28; 3100.950;  -52.520;    0.000;3153.46995
 634.55; 3087.760;  -28.350;    0.000;3116.11001
 634.82; 3086.720;  -47.550;    0.000;3134.26997
 635.10; 3061.630;  -38.050;    0.000;3099.67988
 635.37; 3081.460;  -52.120;    0.000;3133.57996
 635.64; 3041.290;  -44.700;    0.000;3085.99004
 635.91; 3036.750;  -59.310;    0.000;3096.06000
 636.19; 3057.090;  -40.580;    0.000;3097.67009
 636.46; 3046.440;  -43.850;    0.000;3090.28994
 636.73; 3063.500;  -36.090;    0.000;3099.59000
 637.00; 3058.250;  -46.460;    0.000;3104.71000
 637.28; 3059.330;  -43.610;    0.000;3102.94008
 637.55; 3058.300;  -37.690;    0.000;3095.99005
 637.82; 3002.880;  -41.660;    0.000;3044.53988
 638.09; 2976.660;  -42.000;    0.000;3018.65991
 638.37; 2931.950;  -47.010;    0.000;2978.95995
 638.64; 2909.040;  -50.120;    0.000;2959.16004
 638.91; 2918.180;  -40.580;    0.000;2958.75993
 639.18; 2889.670;  -47.270;    0.000;2936.93992
 639.46; 2893.580;  -42.930;    0.000;2936.51008
 639.73; 2855.160;  -42.730;    0.000;2897.88991
 640.00; 2838.180;  -44.600;    0.000;2882.77993
 640.27; 2798.860;  -49.850;    0.000;2848.71011
 640.54; 2805.130;  -37.760;    0.000;2842.88988
 640.82; 2783.730;  -43.030;    0.000;2826.75998
 641.09; 2774.640;  -40.550;    0.000;2815.18989
 641.36; 2758.100;  -52.060;    0.000;2810.16010
 641.63; 2723.650;  -39.770;    0.000;2763.41990
 641.91; 2665.040;  -47.290;    0.000;2712.33004
 642.18; 2660.070;  -43.100;    0.000;2703.17007
 642.45; 2598.090;  -60.380;    0.000;2658.47009
 642.72; 2597.290;  -45.200;    0.000;2642.49004
 642.99; 2594.260;  -32.230;    0.000;2626.49001
 643.26; 2568.090;  -39.200;    0.000;2607.29009
 643.54; 2544.760;  -42.510;    0.000;2587.27001
 643.81; 2520.390;  -48.280;    0.000;2568.66989
 644.08; 2493.990;  -46.440;    0.000;2540.42999
 644.35; 2497.150;  -43.440;    0.000;2540.58990
 644.62; 2453.220;  -60.750;    0.000;2513.96997
 644.90; 2451.460;  -37.720;    0.000;2489.17996
 645.17; 2430.220;  -50.870;    0.000;2481.08997
 645.44; 2426.980;  -40.710;    0.000;2467.68998
 645.71; 2394.860;  -54.220;    0.000;2449.08011
 645.98; 2373.650;  -46.590;    0.000;2420.23990
 646.25; 2362.580;  -56.450;    0.000;2419.03008
 646.53; 2357.430;  -49.790;    0.000;2407.21993
 646.80; 2339.910;  -52.340;    0.000;2392.24991
 647.07; 2341.760;  -52.900;    0.000;2394.66001
 647.34; 2318.010;  -42.670;    0.000;2360.68001
 647.61; 2308.060;  -38.320;    0.000;2346.38006
 647.88; 2294.040;  -32.630;    0.000;2326.67004
 648.15; 2277.350;  -45.180;    0.000;2322.53010
 648.43; 2274.260;  -51.280;    0.000;2325.54001
 648.70; 2261.630;  -44.950;    0.000;2306.57988
 648.97; 2211.370;  -50.060;    0.000;2261.43012
 649.24; 2226.040;  -37.760;    0.000;2263.80004
 649.51; 2184.410;  -59.320;    0.000;2243.72991
 649.78; 2191.230;  -49.050;    0.000;2240.27998
 650.05; 2187.620;  -38.830;    0.000;2226.45012
 650.32; 2220.070;    3.430;    0.000;2216.64007
 650.60; 2138.670;  -49.520;    0.000;2188.18992
 650.87; 2135.510;  -40.720;    0.000;2176.23001
 651.14; 2124.430;  -49.080;    0.000;2173.50993
 651.41; 2112.580;  -40.880;    0.000;2153.46008
 651.68; 2086.280;  -51.850;    0.000;2138.13003
 651.95; 2091.010;  -32.540;    0.000;2123.55001
 652.22; 2062.800;  -46.770;    0.000;2109.57005
 652.49; 2043.390;  -47.170;    0.000;2090.56001
 652.76; 2027.220;  -56.460;    0.000;2083.67997
 653.03; 2037.160;  -52.290;    0.000;2089.45004
 653.31; 2022.960;  -54.730;    0.000;2077.68996
 653.58; 2004.130;  -44.140;    0.000;2048.27000
 653.85; 1987.300;  -55.300;    0.000;2042.60005
 654.12; 1987.160;  -40.030;    0.000;2027.19003
 654.39; 1955.200;  -59.010;    0.000;2014.20995
 654.66; 1968.490;  -34.440;    0.000;2002.92999
 654.93; 1931.440;  -43.990;    0.000;1975.42994
 655.20; 1936.020;  -46.980;    0.000;1983.00002
 655.47; 1922.880;  -52.660;    0.000;1975.54000
 655.74; 1919.080;  -38.310;    0.000;1957.38996
 656.01; 1890.300;  -57.940;    0.000;1948.24005
 656.28; 1904.400;  -40.430;    0.000;1944.83002
 656.55; 1873.800;  -48.760;    0.000;1922.56005
 656.83; 1852.350;  -44.830;    0.000;1897.17998
 657.10; 1854.380;  -55.800;    0.000;1910.18000
 657.37; 1832.730;  -46.440;    0.000;1879.16998
 657.64; 1809.870;  -56.320;    0.000;1866.18999
 657.91; 1796.440;  -47.700;    0.000;1844.13994
 658.18; 1815.140;  -47.460;    0.000;1862.60001
 658.45; 1779.990;  -51.440;    0.000;1831.42999
 658.72; 1769.790;  -50.290;    0.000;1820.08004
 658.99; 1757.660;  -40.260;    0.000;1797.92003
 659.26; 1767.290;  -41.670;    0.000;1808.96004
 659.53; 1751.830;  -53.720;    0.000;1805.54996
 659.80; 1744.400;  -60.520;    0.000;1804.92002
 660.07; 1718.360;  -48.260;    0.000;1766.61998
 660.34; 1713.510;  -52.100;    0.000;1765.61001
 660.61; 1689.290;  -51.720;    0.000;1741.01004
 660.88; 1685.180;  -47.250;    0.000;1732.43005
 661.15; 1680.260;  -34.510;    0.000;1714.77001
 661.42; 1651.070;  -53.270;    0.000;1704.33995
 661.69; 1651.020;  -53.400;    0.000;1704.42002
 661.96; 1637.880;  -60.350;    0.000;1698.23000
 662.23; 1636.820;  -46.130;    0.000;1682.94995
 662.50; 1616.280;  -53.060;    0.000;1669.34003
 662.77; 1607.170;  -47.970;    0.000;1655.14005
 663.04; 1586.960;  -55.560;    0.000;1642.51996
 663.31; 1591.290;  -48.380;    0.000;1639.67004
 663.58; 1583.000;  -48.060;    0.000;1631.06000
 663.85; 1566.800;  -46.560;    0.000;1613.36005
 664.12; 1572.010;  -50.850;    0.000;1622.86001
 664.39; 1533.580;  -51.040;    0.000;1584.61996
 664.66; 1531.110;  -59.340;    0.000;1590.44999
 664.93; 1522.320;  -53.960;    0.000;1576.27995
 665.20; 1491.320;  -53.460;    0.000;1544.77995
 665.47; 1510.060;  -47.830;    0.000;1557.89006
 665.74; 1485.340;  -60.190;    0.000;1545.52996
 666.01; 1489.030;  -44.910;    0.000;1533.94003
 666.28; 1464.980;  -62.110;    0.000;1527.08998
 666.55; 1469.370;  -47.720;    0.000;1517.09000
 666.82; 1448.260;  -61.520;    0.000;1509.78001
 667.09; 1460.210;  -45.890;    0.000;1506.09996
 667.36; 1437.760;  -54.560;    0.000;1492.32001
 667.63; 1409.820;  -43.790;    0.000;1453.60995
 667.90; 1410.900;  -51.910;    0.000;1462.81002
 668.16; 1404.950;  -40.660;    0.000;1445.60995
 668.43; 1374.000;  -53.130;    0.000;1427.13000
 668.70; 1386.190;  -47.080;    0.000;1433.26994
 668.97; 1367.460;  -59.160;    0.000;1426.61996
 669.24; 1354.810;  -43.280;    0.000;1398.09006
 669.51; 1359.370;  -51.700;    0.000;1411.07000
 669.78; 1340.580;  -49.880;    0.000;1390.45996
 670.05; 1332.200;  -54.220;    0.000;1386.41995
 670.32; 1343.160;  -41.260;    0.000;1384.42003
 670.59; 1308.830;  -58.230;    0.000;1367.05996
 670.86; 1296.570;  -44.790;    0.000;1341.35995
 671.13; 1270.040;  -51.170;    0.000;1321.21004
 671.40; 1291.930;  -50.870;    0.000;1342.80005
 671.67; 1292.820;  -39.480;    0.000;1332.29995
 671.93; 1279.010;  -50.050;    0.000;1329.06001
 672.20; 1241.400;  -62.530;    0.000;1303.93002
 672.47; 1255.390;  -51.630;    0.000;1307.02002
 672.74; 1230.410;  -58.180;    0.000;1288.59003
 673.01; 1216.970;  -52.500;    0.000;1269.46997
 673.28; 1224.230;  -48.790;    0.000;1273.01998
 673.55; 1205.980;  -56.290;    0.000;1262.26998
 673.82; 1195.850;  -57.450;    0.000;1253.29998
 674.09; 1192.310;  -47.520;    0.000;1239.83006
 674.35; 1181.280;  -52.050;    0.000;1233.33003
 674.62; 1194.990;  -40.650;    0.000;1235.63999
 674.89; 1168.190;  -56.110;    0.000;1224.29994
 675.16; 1167.190;  -46.170;    0.000;1213.35994
 675.43; 1157.620;  -57.390;    0.000;1215.00999
 675.70; 1171.600;  -32.700;    0.000;1204.29998
 675.97; 1151.670;  -53.910;    0.000;1205.58004
 676.24; 1136.090;  -47.160;    0.000;1183.24997
 676.50; 1103.950;  -58.400;    0.000;1162.34995
 676.77; 1119.070;  -48.110;    0.000;1167.17995
 677.04; 1101.220;  -55.880;    0.000;1157.09997
 677.31; 1086.000;  -53.920;    0.000;1139.92000
 677.58; 1082.970;  -50.120;    0.000;1133.08997
 677.85; 1085.590;  -44.200;    0.000;1129.78997
 678.12; 1067.670;  -55.690;    0.000;1123.36004
 678.38; 1070.070;  -42.970;    0.000;1113.03995
 678.65; 1050.960;  -64.680;    0.000;1115.63996
 678.92; 1047.170;  -54.550;    0.000;1101.72004
 679.19; 1054.020;  -39.690;    0.000;1093.71002
 679.46; 1039.070;  -47.550;    0.000;1086.61995
 679.73; 1021.500;  -59.220;    0.000;1080.72000
 679.99; 1013.220;  -50.410;    0.000;1063.62997
 680.26; 1006.960;  -62.850;    0.000;1069.81002
 680.53;  996.720;  -49.460;    0.000;1046.17997
 680.80;  990.680;  -57.820;    0.000;1048.49999
 681.07;  981.490;  -44.180;    0.000;1025.66999
 681.33;  976.710;  -51.070;    0.000;1027.78002
 681.60;  972.690;  -48.710;    0.000;1021.40000
 681.87;  970.860;  -62.990;    0.000;1033.84999
 682.14;  950.450;  -46.370;    0.000;996.82001
 682.41;  929.170;  -55.150;    0.000;984.31998
 682.67;  938.620;  -43.000;    0.000;981.62000
 682.94;  919.370;  -68.110;    0.000;987.48000
 683.21;  905.770;  -55.460;    0.000;961.23002
 683.48;  909.940;  -57.760;    0.000;967.70000
 683.75;  901.790;  -47.900;    0.000;949.68998
 684.01;  902.630;  -55.520;    0.000;958.15001
 684.28;  884.680;  -55.430;    0.000;940.10999
 684.55;  883.490;  -49.130;    0.000;932.61999
 684.82;  873.740;  -58.800;    0.000;932.53999
 685.09;  887.610;  -52.990;    0.000;940.59999
 685.35;  877.150;  -48.550;    0.000;925.70002
 685.62;  863.810;  -54.740;    0.000;918.55000
 685.89;  849.480;  -44.100;    0.000;893.57998
 686.16;  823.670;  -63.070;    0.000;886.73998
 686.42;  842.940;  -46.900;    0.000;889.84000
 686.69;  835.740;  -44.640;    0.000;880.37999
 686.96;  817.730;  -61.770;    0.000;879.49998
 687.23;  831.050;  -43.540;    0.000;874.58999
 687.49;  818.290;  -35.390;    0.000;853.67998
 687.76;  805.850;  -62.140;    0.000;867.98997
 688.03;  795.040;  -50.100;    0.000;845.13998
 688.30;  785.420;  -64.450;    0.000;849.86998
 688.56;  774.660;  -52.870;    0.000;827.52997
 688.83;  764.400;  -60.550;    0.000;824.95002
 689.10;  780.360;  -53.890;    0.000;834.24998
 689.37;  742.680;  -70.030;    0.000;812.70999
 689.63;  751.600;  -48.550;    0.000;800.14997
 689.90;  753.200;  -53.230;    0.000;806.43001
 690.17;  752.720;  -49.050;    0.000;801.76997
 690.44;  738.680;  -58.840;    0.000;797.51999
 690.70;  723.730;  -52.720;    0.000;776.44998
 690.97;  713.490;  -53.770;    0.000;767.25999
 691.24;  732.060;  -47.860;    0.000;779.92000
 691.50;  703.010;  -59.530;    0.000;762.54001
 691.77;  696.610;  -56.310;    0.000;752.91999
 692.04;  690.180;  -59.430;    0.000;749.60999
 692.30;  687.430;  -57.620;    0.000;745.04999
 692.57;  681.480;  -60.930;    0.000;742.40998
 692.84;  672.500;  -56.380;    0.000;728.88000
 693.11;  664.530;  -67.750;    0.000;732.28003
 693.37;  678.350;  -50.830;    0.000;729.17998
 693.64;  651.440;  -63.140;    0.000;714.58000
 693.91;  648.050;  -51.900;    0.000;699.94999
 694.17;  642.150;  -47.910;    0.000;690.06002
 694.44;  655.350;  -47.070;    0.000;702.41998
 694.71;  624.060;  -61.340;    0.000;685.40000
 694.97;  631.220;  -52.260;    0.000;683.47997
 695.24;  607.740;  -63.910;    0.000;671.64999
 695.51;  606.940;  -62.980;    0.000;669.92000
 695.77;  602.260;  -59.670;    0.000;661.93001
 696.04;  589.580;  -52.380;    0.000;641.96002
 696.31;  585.980;  -66.480;    0.000;652.45998
 696.57;  600.350;  -38.310;    0.000;638.65998
 696.84;  575.510;  -52.850;    0.000;628.36001
 697.11;  567.060;  -54.240;    0.000;621.30000
 697.37;  566.500;  -51.920;    0.000;618.42000
 697.64;  554.760;  -53.060;    0.000;607.82001
 697.91;  539.940;  -60.220;    0.000;600.16000
 698.17;  542.800;  -54.270;    0.000;597.06999
 698.44;  541.110;  -63.030;    0.000;604.13998
 698.71;  526.660;  -49.550;    0.000;576.20997
 698.97;  520.260;  -54.580;    0.000;574.84001
 699.24;  519.370;  -45.040;    0.000;564.41000
 699.50;  511.900;  -64.050;    0.000;575.95000
 699.77;  517.100;  -49.010;    0.000;566.10997
 700.04;  492.900;  -64.650;    0.000;557.55000
 700.30;  483.830;  -61.870;    0.000;545.69999
 700.57;  479.030;  -63.250;    0.000;542.28000
 700.84;  491.290;  -41.730;    0.000;533.02001
 701.10;  461.110;  -62.570;    0.000;523.67999
 701.37;  454.960;  -60.320;    0.000;515.27999
 701.63;  447.920;  -59.440;    0.000;507.36001
 701.90;  452.520;  -53.830;    0.000;506.34999
 702.17;  445.400;  -49.470;    0.000;494.87000
 702.43;  430.910;  -55.120;    0.000;486.03000
 702.70;  438.630;  -53.740;    0.000;492.37001
 702.96;  425.140;  -60.640;    0.000;485.78001
 703.23;  406.290;  -59.120;    0.000;465.41001
 703.50;  396.450;  -56.130;    0.000;452.58001
 703.76;  392.860;  -52.510;    0.000;445.36998
 704.03;  397.520;  -42.210;    0.000;439.72999
 704.29;  383.310;  -51.680;    0.000;434.99000
 704.56;  376.620;  -59.410;    0.000;436.02999
 704.82;  368.720;  -60.620;    0.000;429.34000
 705.09;  363.080;  -50.430;    0.000;413.50999
 705.36;  362.000;  -62.970;    0.000;424.97000
 705.62;  372.500;  -33.310;    0.000;405.81000
 705.89;  340.270;  -59.100;    0.000;399.36999
 706.15;  342.410;  -48.880;    0.000;391.29000
 706.42;  338.230;  -57.690;    0.000;395.92001
 706.68;  326.930;  -56.700;    0.000;383.62999
 706.95;  328.020;  -57.630;    0.000;385.64999
 707.21;  315.450;  -58.650;    0.000;374.10001
 707.48;  316.870;  -61.920;    0.000;378.78999
 707.75;  305.030;  -50.800;    0.000;355.83000
 708.01;  301.700;  -61.080;    0.000;362.78001
 708.28;  302.930;  -51.820;    0.000;354.74999
 708.54;  274.570;  -63.220;    0.000;337.79001
 708.81;  301.600;  -44.090;    0.000;345.69001
 709.07;  281.840;  -62.050;    0.000;343.89000
 709.34;  283.240;  -61.410;    0.000;344.64999
 709.60;  263.860;  -68.660;    0.000;332.51999
 709.87;  275.870;  -48.490;    0.000;324.36000
 710.13;  251.100;  -66.420;    0.000;317.52000
 710.40;  250.240;  -64.680;    0.000;314.92001
 710.66;  248.540;  -62.120;    0.000;310.65999
 710.93;  246.770;  -55.610;    0.000;302.38000
 711.19;  238.980;  -63.730;    0.000;302.71000
 711.46;  251.540;  -48.890;    0.000;300.42999
 711.72;  234.190;  -58.100;    0.000;292.29000
 711.99;  246.670;  -47.670;    0.000;294.34000
 712.25;  227.490;  -61.830;    0.000;289.32001
 712.52;  230.460;  -40.700;    0.000;271.16001
 712.78;  227.110;  -56.040;    0.000;283.15000
 713.05;  218.100;  -54.940;    0.000;273.04000
 713.31;  216.100;  -58.190;    0.000;274.29000
 713.58;  222.590;  -51.770;    0.000;274.36000
 713.84;  213.850;  -61.840;    0.000;275.69001
 714.11;  207.740;  -54.940;    0.000;262.68000
 714.37;  217.600;  -57.910;    0.000;275.51001
 714.64;  212.780;  -56.410;    0.000;269.19000
 714.90;  202.130;  -55.060;    0.000;257.19001
 715.17;  199.890;  -59.790;    0.000;259.68000
 715.43;  198.340;  -60.320;    0.000;258.66000
 715.70;  201.210;  -53.640;    0.000;254.85001
 715.96;  191.100;  -60.380;    0.000;251.48001
 716.22;  193.140;  -56.780;    0.000;249.92000
 716.49;  189.410;  -68.920;    0.000;258.33000
 716.75;  187.510;  -64.590;    0.000;252.09999
 717.02;  197.800;  -56.200;    0.000;254.00000
 717.28;  189.260;  -59.350;    0.000;248.60999
 717.55;  181.480;  -69.660;    0.000;251.14000
 717.81;  187.850;  -55.520;    0.000;243.37001
 718.08;  185.570;  -60.370;    0.000;245.94001
 718.34;  190.910;  -59.980;    0.000;250.89000
 718.60;  190.380;  -56.160;    0.000;246.54000
 718.87;  188.810;  -53.350;    0.000;242.16000
 719.13;  175.200;  -62.460;    0.000;237.66000
 719.40;  190.400;  -51.850;    0.000;242.24999
 719.66;  176.590;  -64.270;    0.000;240.85999
 719.93;  184.940;  -47.770;    0.000;232.71000
 720.19;  165.390;  -70.590;    0.000;235.98000
 720.45;  179.730;  -58.110;    0.000;237.84000
 720.72;  178.810;  -60.550;    0.000;239.36000
 720.98;  177.490;  -56.440;    0.000;233.93000
 721.25;  159.320;  -72.700;    0.000;232.02000
 721.51;  176.180;  -61.040;    0.000;237.21999
 721.77;  175.530;  -62.760;    0.000;238.29000
 722.04;  185.440;  -46.700;    0.000;232.14000
 722.30;  174.720;  -58.310;    0.000;233.03000
 722.57;  170.850;  -52.890;    0.000;223.74001
 722.83;  162.920;  -62.730;    0.000;225.65000
 723.09;  164.890;  -56.910;    0.000;221.80000
 723.36;  162.670;  -59.400;    0.000;222.07000
 723.62;  167.190;  -51.840;    0.000;219.03000
 723.88;  169.550;  -59.890;    0.000;229.44000
 724.15;  170.250;  -49.500;    0.000;219.75000
 724.41;  160.050;  -65.630;    0.000;225.68000
 724.68;  164.800;  -59.360;    0.000;224.16000
 724.94;  177.450;  -48.690;    0.000;226.14000
 725.20;  171.300;  -56.210;    0.000;227.51000
 725.47;  160.660;  -62.730;    0.000;223.39000
 725.73;  159.720;  -64.430;    0.000;224.15000
 725.99;  144.390;  -71.790;    0.000;216.18000
 726.26;  171.900;  -50.060;    0.000;221.96000
 726.52;  163.250;  -63.590;    0.000;226.84000
 726.78;  156.080;  -52.290;    0.000;208.37000
 727.05;  165.250;  -61.380;    0.000;226.63000
 727.31;  160.390;  -52.170;    0.000;212.56000
 727.57;  156.060;  -63.730;    0.000;219.79000
 727.84;  154.140;  -53.340;    0.000;207.48000
 728.10;  159.140;  -60.120;    0.000;219.26000
 728.36;  156.320;  -53.710;    0.000;210.03001
 728.63;  157.920;  -62.820;    0.000;220.74000
 728.89;  151.750;  -60.280;    0.000;212.03000
 729.15;  149.160;  -65.040;    0.000;214.20000
 729.42;  149.050;  -60.470;    0.000;209.52000
 729.68;  146.720;  -54.970;    0.000;201.69000
 729.94;  142.780;  -68.100;    0.000;210.88000
 730.21;  144.400;  -64.640;    0.000;209.03999
 730.47;  154.710;  -63.530;    0.000;218.24001
 730.73;  139.680;  -66.260;    0.000;205.93999
 731.00;  142.710;  -57.360;    0.000;200.07001
 731.26;  135.840;  -57.540;    0.000;193.38000
 731.52;  142.390;  -58.280;    0.000;200.67000
 731.78;  125.090;  -66.450;    0.000;191.53999
 732.05;  135.140;  -65.530;    0.000;200.67000
 732.31;  137.630;  -59.070;    0.000;196.70000
 732.57;  132.310;  -54.620;    0.000;186.93000
 732.84;  124.290;  -70.510;    0.000;194.80000
 733.10;  132.480;  -57.600;    0.000;190.07999
 733.36;  123.700;  -70.050;    0.000;193.75000
 733.62;  126.310;  -62.500;    0.000;188.81000
 733.89;  126.510;  -59.180;    0.000;185.69000
 734.15;  129.300;  -61.340;    0.000;190.64000
 734.41;  128.120;  -61.790;    0.000;189.91000
 734.67;  121.490;  -50.600;    0.000;172.09000
 734.94;  128.900;  -63.880;    0.000;192.77999
 735.20;  122.110;  -57.270;    0.000;179.38000
 735.46;  122.790;  -68.040;    0.000;190.83000
 735.73;  133.240;  -54.400;    0.000;187.64001
 735.99;  112.490;  -71.180;    0.000;183.67000
 736.25;  117.350;  -55.920;    0.000;173.27000
 736.51;  113.280;  -61.210;    0.000;174.49000
 736.77;  121.450;  -54.920;    0.000;176.37000
 737.04;  117.970;  -62.400;    0.000;180.37000
 737.30;  109.090;  -58.680;    0.000;167.77000
 737.56;  114.600;  -58.620;    0.000;173.22000
 737.82;  109.260;  -58.750;    0.000;168.01000
 738.09;  105.620;  -70.360;    0.000;175.98000
 738.35;   98.620;  -63.970;    0.000;162.59000
 738.61;  109.390;  -61.870;    0.000;171.26000
 738.87;  111.430;  -52.450;    0.000;163.88000
 739.14;  101.290;  -61.560;    0.000;162.85000
 739.40;  100.500;  -64.850;    0.000;165.35000
 739.66;   95.950;  -68.810;    0.000;164.75999
 739.92;  100.180;  -63.470;    0.000;163.65000
 740.18;   98.430;  -64.080;    0.000;162.51000
 740.45;   90.400;  -61.060;    0.000;151.46000
 740.71;   93.660;  -53.970;    0.000;147.63000
 740.97;   96.090;  -55.520;    0.000;151.61000
 741.23;   84.620;  -74.870;    0.000;159.49001
 741.49;   88.060;  -59.120;    0.000;147.18000
 741.76;   82.960;  -76.640;    0.000;159.60000
 742.02;   81.820;  -68.540;    0.000;150.36000
 742.28;   82.920;  -68.520;    0.000;151.43999
 742.54;   83.180;  -57.000;    0.000;140.18000
 742.80;   77.720;  -70.310;    0.000;148.03000
 743.06;   89.710;  -54.290;    0.000;144.00000
 743.33;   90.250;  -60.930;    0.000;151.18000
 743.59;   79.270;  -62.190;    0.000;141.46000
 743.85;   65.110;  -73.310;    0.000;138.42000
 744.11;   81.940;  -63.690;    0.000;145.63000
 744.37;   78.330;  -58.170;    0.000;136.50000
 744.63;   73.710;  -65.230;    0.000;138.94000
 744.90;   73.810;  -72.800;    0.000;146.61000
 745.16;   71.290;  -57.920;    0.000;129.21000
 745.42;   70.600;  -62.790;    0.000;133.39000
 745.68;   72.730;  -55.010;    0.000;127.74000
 745.94;   76.350;  -55.100;    0.000;131.45000
 746.20;   66.870;  -54.310;    0.000;121.18000
 746.46;   72.100;  -60.150;    0.000;132.25000
 746.72;   74.580;  -51.640;    0.000;126.22000
 746.99;   67.600;  -60.120;    0.000;127.72000
 747.25;   79.080;  -53.010;    0.000;132.09000
 747.51;   56.530;  -65.470;    0.000;122.00000
 747.77;   58.220;  -60.410;    0.000;118.63000
 748.03;   59.480;  -67.950;    0.000;127.43000
 748.29;   59.760;  -58.140;    0.000;117.90000
 748.55;   48.000;  -70.260;    0.000;118.26000
 748.81;   47.190;  -63.530;    0.000;110.72000
 749.08;   61.110;  -67.880;    0.000;128.99000
 749.34;   48.110;  -63.460;    0.000;111.57000
 749.60;   53.360;  -60.810;    0.000;114.17000
 749.86;   60.870;  -53.480;    0.000;114.35000
 750.12;   51.240;  -69.350;    0.000;120.59000
 750.38;   58.580;  -65.040;    0.000;123.62000
 750.64;   37.130;  -75.360;    0.000;112.49000
 750.90;   51.340;  -57.730;    0.000;109.07000
 751.16;   43.110;  -72.650;    0.000;115.76000
 751.42;   49.360;  -66.050;    0.000;115.41000
 751.68;   46.740;  -55.770;    0.000;102.51000
 751.95;   34.710;  -68.120;    0.000;102.83000
 752.21;   42.110;  -73.710;    0.000;115.82000
 752.47;   41.650;  -65.780;    0.000;107.43000
 752.73;   27.930;  -68.460;    0.000;96.39000
 752.99;   41.620;  -65.620;    0.000;107.24000
 753.25;   33.190;  -71.920;    0.000;105.11000
 753.51;   32.740;  -65.730;    0.000;98.47001
 753.77;   30.760;  -65.570;    0.000;96.33000
 754.03;   29.910;  -62.250;    0.000;92.16000
 754.29;   21.280;  -73.500;    0.000;94.78000
 754.55;   26.810;  -62.200;    0.000;89.01000
 754.81;   20.870;  -67.770;    0.000;88.64000
 755.07;   26.910;  -63.760;    0.000;90.67000
 755.33;   19.810;  -72.470;    0.000;92.28000
 755.59;   25.940;  -62.720;    0.000;88.66000
 755.85;   18.450;  -72.300;    0.000;90.75000
 756.11;   30.080;  -63.710;    0.000;93.79000
 756.37;    8.100;  -65.050;    0.000;73.15000
 756.63;   30.700;  -46.260;    0.000;76.96000
 756.89;   13.070;  -68.760;    0.000;81.83000
 757.15;   19.230;  -63.070;    0.000;82.30000
 757.41;   33.100;  -60.190;    0.000;93.29000
 757.68;   14.300;  -60.550;    0.000;74.85000
 757.94;   23.210;  -62.430;    0.000;85.64000
 758.20;   25.950;  -50.770;    0.000;76.72000
 758.46;    6.380;  -72.870;    0.000;79.25000
 758.72;   12.450;  -60.630;    0.000;73.08000
 758.98;   15.000;  -67.190;    0.000;82.19000
 759.24;   17.790;  -60.950;    0.000;78.74000
 759.50;    4.600;  -65.080;    0.000;69.68000
 759.76;   11.700;  -52.950;    0.000;64.65000
 760.02;    3.820;  -68.640;    0.000;72.46000
 760.27;   11.930;  -66.730;    0.000;78.66000
 760.53;   11.640;  -63.330;    0.000;74.97000
 760.79;   10.710;  -55.120;    0.000;65.83000
 761.05;    7.160;  -65.560;    0.000;72.72000
 761.31;   14.370;  -50.350;    0.000;64.72000
 761.57;   13.220;  -60.250;    0.000;73.47000
 761.83;    6.970;  -64.180;    0.000;71.15000
 762.09;   -4.720;  -69.040;    0.000;64.32000
 762.35;    1.710;  -66.860;    0.000;68.57000
 762.61;   -4.550;  -67.680;    0.000;63.13000
 762.87;   12.670;  -58.700;    0.000;71.37000
 763.13;   -4.420;  -71.060;    0.000;66.64000
 763.39;   16.550;  -47.730;    0.000;64.28000
 763.65;   -8.960;  -71.990;    0.000;63.03000
 763.91;    5.950;  -68.860;    0.000;74.81000
 764.17;    0.520;  -60.390;    0.000;60.91000
 764.43;    6.920;  -62.800;    0.000;69.72000
 764.69;   -8.650;  -70.830;    0.000;62.18000
 764.95;    0.950;  -57.460;    0.000;58.41000
 765.21;   -5.610;  -75.860;    0.000;70.25000
 765.47;    1.420;  -58.260;    0.000;59.68000
 765.73;   -6.130;  -64.620;    0.000;58.49000
 765.98;    9.910;  -50.970;    0.000;60.88000
 766.24;   -5.320;  -70.810;    0.000;65.49000
 766.50;  -11.670;  -70.380;    0.000;58.71000
 766.76;  -11.070;  -65.780;    0.000;54.71000
 767.02;   -7.450;  -70.800;    0.000;63.35000
 767.28;   -5.470;  -68.300;    0.000;62.83000
 767.54;   -3.650;  -62.740;    0.000;59.09000
 767.80;   -5.890;  -64.940;    0.000;59.05000
 768.06;   -0.490;  -54.110;    0.000;53.62000
 768.32;   -3.040;  -65.490;    0.000;62.45000
 768.58;  -14.770;  -66.120;    0.000;51.35000
 768.83;  -17.430;  -64.670;    0.000;47.24000
 769.09;   -1.180;  -63.170;    0.000;61.99000
 769.35;  -17.250;  -65.700;    0.000;48.45000
 769.61;   -5.530;  -57.700;    0.000;52.17000
 769.87;  -12.350;  -67.850;    0.000;55.50000
 770.13;   -7.480;  -57.810;    0.000;50.33000
 770.39;  -24.480;  -80.360;    0.000;55.88000
 770.65;  -12.890;  -65.130;    0.000;52.24000
 770.90;  -20.670;  -68.230;    0.000;47.56000
 771.16;  -18.630;  -68.730;    0.000;50.10000
 771.42;  -14.700;  -66.270;    0.000;51.57000
 771.68;  -17.260;  -66.190;    0.000;48.93000
 771.94;   -7.020;  -65.460;    0.000;58.44000
 772.20;  -20.340;  -69.220;    0.000;48.88000
 772.46;  -23.700;  -75.740;    0.000;52.04000
 772.71;   -6.870;  -60.950;    0.000;54.08000
 772.97;   -9.880;  -60.710;    0.000;50.83000
 773.23;  -21.360;  -62.140;    0.000;40.78000
 773.49;   -4.560;  -62.530;    0.000;57.97000
 773.75;  -21.660;  -61.650;    0.000;39.99000
 774.01;  -21.430;  -75.240;    0.000;53.81000
 774.26;  -26.600;  -71.900;    0.000;45.30000
 774.52;  -17.140;  -61.130;    0.000;43.99000
 774.78;  -18.420;  -67.460;    0.000;49.04000
 775.04;  -11.040;  -50.810;    0.000;39.77000
 775.30;  -23.240;  -66.290;    0.000;43.05000
 775.56;  -24.250;  -73.310;    0.000;49.06000
 775.81;  -11.970;  -66.090;    0.000;54.12000
 776.07;  -37.270;  -75.370;    0.000;38.10000
 776.33;  -26.940;  -68.460;    0.000;41.52000
 776.59;  -24.630;  -66.250;    0.000;41.62000
 776.85;  -25.970;  -65.230;    0.000;39.26000
 777.10;  -17.870;  -66.530;    0.000;48.66000
 777.36;  -27.950;  -76.320;    0.000;48.37000
 777.62;  -25.110;  -71.140;    0.000;46.03000
 777.88;  -30.100;  -67.550;    0.000;37.45000
 778.14;  -24.900;  -71.280;    0.000;46.38000
 778.39;  -18.230;  -59.350;    0.000;41.12000
 778.65;  -22.920;  -76.080;    0.000;53.16000
 778.91;  -19.680;  -69.460;    0.000;49.78000
 779.17;  -25.530;  -65.910;    0.000;40.38000
 779.42;  -31.480;  -70.000;    0.000;38.52000
 779.68;  -30.830;  -72.550;    0.000;41.72000
 779.94;  -27.100;  -61.510;    0.000;34.41000
 780.20;  -34.700;  -68.870;    0.000;34.17000
 780.46;  -33.930;  -64.180;    0.000;30.25000
 780.71;  -26.240;  -62.960;    0.000;36.72000
 780.97;  -21.740;  -64.720;    0.000;42.98000
 781.23;  -35.770;  -78.300;    0.000;42.53000
 781.49;  -28.490;  -56.640;    0.000;28.15000
 781.74;  -39.950;  -74.730;    0.000;34.78000
 782.00;  -37.550;  -75.150;    0.000;37.60000
 782.26;  -28.440;  -68.030;    0.000;39.59000
 782.52;  -34.620;  -62.660;    0.000;28.04000
 782.77;  -29.810;  -68.100;    0.000;38.29000
 783.03;  -36.180;  -69.130;    0.000;32.95000
 783.29;  -33.480;  -71.240;    0.000;37.76000
 783.54;  -29.130;  -62.780;    0.000;33.65000
 783.80;  -31.510;  -68.050;    0.000;36.54000
 784.06;  -32.080;  -63.550;    0.000;31.47000
 784.32;  -40.440;  -72.520;    0.000;32.08000
 784.57;  -21.040;  -47.820;    0.000;26.78000
 784.83;  -51.820;  -76.230;    0.000;24.41000
 785.09;  -38.340;  -76.220;    0.000;37.88000
 785.34;  -41.070;  -72.440;    0.000;31.37000
 785.60;  -26.250;  -59.580;    0.000;33.33000
 785.86;  -40.540;  -71.820;    0.000;31.28000
 786.12;  -36.560;  -61.570;    0.000;25.01000
 786.37;  -26.880;  -65.600;    0.000;38.72000
 786.63;  -41.140;  -71.170;    0.000;30.03000
 786.89;  -37.560;  -68.790;    0.000;31.23000
 787.14;  -27.270;  -54.860;    0.000;27.59000
 787.40;  -36.450;  -71.540;    0.000;35.09000
 787.66;  -32.540;  -65.770;    0.000;33.23000
 787.91;  -28.990;  -52.860;    0.000;23.87000
 788.17;  -40.150;  -65.710;    0.000;25.56000
 788.43;  -43.620;  -73.180;    0.000;29.56000
 788.68;  -44.680;  -71.660;    0.000;26.98000
 788.94;  -35.020;  -74.750;    0.000;39.73000
 789.20;  -36.560;  -64.840;    0.000;28.27999
 789.45;  -48.970;  -74.230;    0.000;25.26000
 789.71;  -40.980;  -67.010;    0.000;26.03000
 789.97;  -36.490;  -63.030;    0.000;26.54000
 790.22;  -40.530;  -65.710;    0.000;25.18000
 790.48;  -44.100;  -74.810;    0.000;30.71000
 790.74;  -41.180;  -63.640;    0.000;22.46000
 790.99;  -40.570;  -72.490;    0.000;31.92000
 791.25;  -43.070;  -64.710;    0.000;21.64000
 791.51;  -43.900;  -73.530;    0.000;29.63000
 791.76;  -35.990;  -59.650;    0.000;23.66000
 792.02;  -49.910;  -74.710;    0.000;24.80000
 792.27;  -29.600;  -54.830;    0.000;25.23000
 792.53;  -48.040;  -68.030;    0.000;19.99000
 792.79;  -41.410;  -66.160;    0.000;24.75000
 793.04;  -44.110;  -68.920;    0.000;24.81000
 793.30;  -47.440;  -70.820;    0.000;23.38000
 793.56;  -48.660;  -75.870;    0.000;27.21000
 793.81;  -29.960;  -50.310;    0.000;20.35000
 794.07;  -51.580;  -79.000;    0.000;27.42000
 794.32;  -44.650;  -65.900;    0.000;21.25000
 794.58;  -44.390;  -77.010;    0.000;32.62000
 794.84;  -38.960;  -60.880;    0.000;21.92000
 795.09;  -43.830;  -69.020;    0.000;25.18999
 795.35;  -39.700;  -61.980;    0.000;22.28000
 795.60;  -27.710;  -70.560;    0.000;42.85000
 795.86;  -44.480;  -63.860;    0.000;19.38000
 796.12;  -53.640;  -78.510;    0.000;24.87000
 796.37;  -49.170;  -68.490;    0.000;19.32000
 796.63;  -44.860;  -69.590;    0.000;24.73000
 796.88;  -43.530;  -65.560;    0.000;22.03000
 797.14;  -46.060;  -70.280;    0.000;24.22000
 797.39;  -42.840;  -65.640;    0.000;22.80000
 797.65;  -51.900;  -72.970;    0.000;21.07000
 797.91;  -36.500;  -73.160;    0.000;36.66000
 798.16;  -55.290;  -74.870;    0.000;19.58000
 798.42;  -49.160;  -70.790;    0.000;21.63000
 798.67;  -50.730;  -79.900;    0.000;29.17000
 798.93;  -50.980;  -66.230;    0.000;15.25000
 799.18;  -50.250;  -75.680;    0.000;25.43000
 799.44;  -51.090;  -66.210;    0.000;15.12000
 799.69;  -58.000;  -73.250;    0.000;15.25000
 799.95;  -57.130;  -73.750;    0.000;16.62000
 800.21;  -53.230;  -76.850;    0.000;23.62000
 800.46;  -43.420;  -51.900;    0.000; 8.48000
 800.72;  -62.440;  -71.510;    0.000; 9.07000
 800.97;  -52.450;  -72.510;    0.000;20.06000
 801.23;  -53.910;  -80.470;    0.000;26.56000
 801.48;  -50.410;  -76.540;    0.000;26.13000
 801.74;  -62.840;  -74.340;    0.000;11.50000
 801.99;  -46.300;  -63.730;    0.000;17.43000
 802.25;  -56.740;  -70.040;    0.000;13.30000
 802.50;  -49.710;  -65.610;    0.000;15.90000
 802.76;  -44.710;  -72.120;    0.000;27.41000
 803.01;  -54.700;  -74.290;    0.000;19.59000
 803.27;  -58.270;  -73.240;    0.000;14.97000
 803.52;  -50.400;  -60.520;    0.000;10.12000
 803.78;  -51.770;  -66.200;    0.000;14.43000
 804.03;  -47.360;  -59.220;    0.000;11.86000
 804.29;  -64.410;  -80.530;    0.000;16.12000
 804.54;  -60.790;  -66.360;    0.000; 5.57000
 804.80;  -58.050;  -75.680;    0.000;17.63000
 805.05;  -58.280;  -69.490;    0.000;11.21000
 805.31;  -44.700;  -66.970;    0.000;22.27000
 805.56;  -40.320;  -58.470;    0.000;18.15000
 805.82;  -65.080;  -79.550;    0.000;14.47000
 806.07;  -47.340;  -62.310;    0.000;14.97000
 806.33;  -49.170;  -76.230;    0.000;27.06001
 806.58;  -61.660;  -74.560;    0.000;12.90000
 806.84;  -54.630;  -69.680;    0.000;15.05000
 807.09;  -54.190;  -67.630;    0.000;13.44000
 807.34;  -55.510;  -76.660;    0.000;21.15001
 807.60;  -50.850;  -58.680;    0.000; 7.83000
 807.85;  -53.270;  -73.670;    0.000;20.40000
 808.11;  -59.310;  -69.550;    0.000;10.24000
 808.36;  -55.750;  -70.980;    0.000;15.23000
 808.62;  -58.340;  -71.470;    0.000;13.13000
 808.87;  -51.660;  -74.120;    0.000;22.46000
 809.13;  -60.490;  -74.600;    0.000;14.11000
 809.38;  -49.010;  -66.100;    0.000;17.09000
 809.63;  -57.630;  -67.340;    0.000; 9.71000
 809.89;  -46.790;  -70.460;    0.000;23.67000
 810.14;  -52.760;  -68.440;    0.000;15.68000
 810.40;  -54.030;  -76.650;    0.000;22.62000
 810.65;  -49.710;  -67.160;    0.000;17.45000
 810.91;  -62.710;  -74.900;    0.000;12.19000
 811.16;  -58.550;  -63.330;    0.000; 4.78000
 811.41;  -50.760;  -72.490;    0.000;21.73000
 811.67;  -55.300;  -74.880;    0.000;19.58000
 811.92;  -50.670;  -68.170;    0.000;17.50000
 812.18;  -51.180;  -67.550;    0.000;16.37000
 812.43;  -56.350;  -76.000;    0.000;19.65000
 812.68;  -51.340;  -66.340;    0.000;15.00000
 812.94;  -54.150;  -71.130;    0.000;16.98000
 813.19;  -64.380;  -71.760;    0.000; 7.38000
 813.45;  -34.080;  -50.730;    0.000;16.65000
 813.70;  -54.260;  -72.270;    0.000;18.01000
 813.95;  -60.940;  -74.870;    0.000;13.93000
 814.21;  -54.790;  -61.840;    0.000; 7.05000
 814.46;  -58.010;  -74.680;    0.000;16.67000
 814.71;  -63.220;  -74.920;    0.000;11.70000
 814.97;  -63.270;  -79.920;    0.000;16.65000
 815.22;  -56.870;  -71.060;    0.000;14.19000
 815.48;  -61.140;  -77.050;    0.000;15.91000
 815.73;  -47.670;  -64.440;    0.000;16.77000
 815.98;  -57.740;  -78.160;    0.000;20.42000
 816.24;  -53.780;  -70.740;    0.000;16.96000
 816.49;  -57.130;  -70.330;    0.000;13.20000
 816.74;  -46.440;  -68.280;    0.000;21.84000
 817.00;  -47.830;  -60.660;    0.000;12.83000
 817.25;  -54.210;  -70.740;    0.000;16.53000
 817.50;  -62.760;  -73.190;    0.000;10.43000
 817.76;  -58.860;  -71.160;    0.000;12.30000
 818.01;  -65.290;  -80.910;    0.000;15.62000
 818.26;  -56.590;  -69.950;    0.000;13.36000
 818.52;  -58.270;  -74.150;    0.000;15.88000
 818.77;  -61.610;  -73.060;    0.000;11.45000
 819.02;   51.240;   29.560;    0.000;21.68000
 819.28;  -58.950;  -64.620;    0.000; 5.67000
 819.53;  -66.380;  -79.640;    0.000;13.26000
 819.78;  -51.470;  -63.410;    0.000;11.94000
 820.04;  -59.570;  -80.400;    0.000;20.83000
 820.29;  -62.640;  -69.270;    0.000; 6.63000
 820.54;  -52.740;  -72.870;    0.000;20.13000
 820.79;  -52.580;  -63.880;    0.000;11.30000
 821.05;  -70.380;  -78.920;    0.000; 8.54000
 821.30;  -54.740;  -57.000;    0.000; 2.26000
 821.55;  -51.650;  -67.530;    0.000;15.88000
 821.81;  -59.220;  -65.110;    0.000; 5.89000
 822.06;  -58.320;  -69.700;    0.000;11.38000
 822.31;  -51.060;  -54.340;    0.000; 3.28000
 822.56;  -72.330;  -77.970;    0.000; 5.64000
 822.82;  -61.780;  -69.810;    0.000; 8.03000
 823.07;  -72.360;  -89.380;    0.000;17.02000
 823.32;  -66.690;  -75.860;    0.000; 9.17000
 823.58;  -63.720;  -70.420;    0.000; 6.70000
 823.83;  -62.710;  -70.980;    0.000; 8.27000
 824.08;  -69.330;  -78.660;    0.000; 9.33000
 824.33;  -63.120;  -75.510;    0.000;12.39000
 824.59;  -67.610;  -83.240;    0.000;15.63000
 824.84;  -59.340;  -69.990;    0.000;10.65000
 825.09;  -73.370;  -83.730;    0.000;10.36000
 825.34;  -59.590;  -74.630;    0.000;15.04000
 825.60;  -65.660;  -84.950;    0.000;19.28999
 825.85;  -65.200;  -74.770;    0.000; 9.57000
 826.10;  -79.390;  -85.230;    0.000; 5.84000
 826.35;  -64.430;  -69.940;    0.000; 5.51000
 826.61;  -70.240;  -80.400;    0.000;10.16000
 826.86;  -73.080;  -79.490;    0.000; 6.41000
 827.11;  -72.510;  -86.280;    0.000;13.77000
 827.36;  -69.080;  -71.910;    0.000; 2.83000
 827.61;  -76.580;  -84.850;    0.000; 8.27000
 827.87;  -66.990;  -71.570;    0.000; 4.58000
 828.12;  -67.610;  -78.830;    0.000;11.22000
 828.37;  -64.920;  -68.330;    0.000; 3.41000
 828.62;  -71.900;  -77.270;    0.000; 5.37000
 828.88;  -52.440;  -60.210;    0.000; 7.77000
 829.13;  -62.360;  -70.740;    0.000; 8.38000
 829.38;  -68.730;  -69.280;    0.000; 0.55000
 829.63;  -68.940;  -83.630;    0.000;14.68999
 829.88;  -67.900;  -69.950;    0.000; 2.05000
 830.14;  -66.680;  -81.910;    0.000;15.23000
 830.39;  -62.150;  -58.230;    0.000;-3.92000
 830.64;  -74.170;  -82.670;    0.000; 8.50000
 830.89;  -56.620;  -62.930;    0.000; 6.31000
 831.14;  -71.380;  -71.790;    0.000; 0.41000
 831.39;  -68.490;  -73.460;    0.000; 4.97000
 831.65;  -73.240;  -85.810;    0.000;12.57000
 831.90;  -75.570;  -75.250;    0.000;-0.32000
 832.15;  -67.880;  -75.760;    0.000; 7.88000
 832.40;  -63.370;  -68.560;    0.000; 5.19000
 832.65;  -76.400;  -76.110;    0.000;-0.29000
 832.90;  -71.520;  -74.690;    0.000; 3.17001
 833.16;  -61.880;  -72.190;    0.000;10.31000
 833.41;  -69.020;  -74.650;    0.000; 5.63000
 833.66;  -74.810;  -75.930;    0.000; 1.12000
 833.91;  -67.000;  -67.900;    0.000; 0.90000
 834.16;  -72.390;  -86.950;    0.000;14.56000
 834.41;  -70.050;  -77.320;    0.000; 7.27000
 834.66;  -68.740;  -80.900;    0.000;12.16000
 834.92;  -72.790;  -78.390;    0.000; 5.60000
 835.17;  -77.040;  -83.210;    0.000; 6.17000
 835.42;  -71.100;  -71.510;    0.000; 0.41000
 835.67;  -62.170;  -72.580;    0.000;10.41000
 835.92;  -73.690;  -66.140;    0.000;-7.55000
 836.17;  -70.990;  -85.970;    0.000;14.98000
 836.42;  -66.760;  -76.440;    0.000; 9.68000
 836.67;  -71.870;  -84.830;    0.000;12.96000
 836.93;  -74.560;  -73.590;    0.000;-0.97000
 837.18;  -74.060;  -72.250;    0.000;-1.81000
 837.43;  -72.110;  -78.260;    0.000; 6.15000
 837.68;  -64.810;  -82.050;    0.000;17.24001
 837.93;  -72.510;  -76.650;    0.000; 4.14000
 838.18;  -73.270;  -83.090;    0.000; 9.82000
 838.43;  -69.360;  -77.150;    0.000; 7.79000
 838.68;  -68.170;  -79.940;    0.000;11.77000
 838.93;  -76.360;  -79.860;    0.000; 3.50000
 839.18;  -73.010;  -78.450;    0.000; 5.43999
 839.43;  -59.940;  -61.670;    0.000; 1.73000
 839.69;  -73.050;  -86.230;    0.000;13.18000
 839.94;  -67.520;  -73.790;    0.000; 6.27000
 840.19;  -76.360;  -77.230;    0.000; 0.87000
 840.44;  -67.280;  -72.120;    0.000; 4.84000
 840.69;  -66.330;  -81.760;    0.000;15.43000
 840.94;  -65.000;  -66.470;    0.000; 1.47000
 841.19;  -59.880;  -64.420;    0.000; 4.54000
 841.44;  -67.870;  -68.610;    0.000; 0.74000
 841.69;  -63.890;  -64.030;    0.000; 0.14000
 841.94;  -67.530;  -75.480;    0.000; 7.95000
 842.19;  -71.100;  -83.640;    0.000;12.54000
 842.44;  -76.890;  -85.160;    0.000; 8.27000
 842.69;  -78.560;  -77.660;    0.000;-0.89999
 842.94;  -66.680;  -78.190;    0.000;11.51000
 843.19;  -75.810;  -78.290;    0.000; 2.48000
 843.44;  -69.750;  -75.980;    0.000; 6.23000
 843.69;  -74.020;  -86.680;    0.000;12.66000
 843.94;  -34.530;  -39.320;    0.000; 4.79000
 844.19;  -70.280;  -86.460;    0.000;16.18000
 844.44;  -58.590;  -55.430;    0.000;-3.16000
 844.69;  -76.590;  -79.810;    0.000; 3.22000
 844.95;  -69.770;  -73.690;    0.000; 3.92001
 845.20;  -81.130;  -89.580;    0.000; 8.45000
 845.45;  -62.350;  -62.840;    0.000; 0.49000
 845.70;  -78.200;  -79.910;    0.000; 1.71001
 845.95;  -72.150;  -67.470;    0.000;-4.68000
 846.20;  -70.410;  -81.520;    0.000;11.10999
 846.45;  -75.060;  -76.240;    0.000; 1.18000
 846.70;  -73.140;  -83.210;    0.000;10.07000
 846.95;  -74.560;  -72.270;    0.000;-2.29000
 847.20;  -74.310;  -81.890;    0.000; 7.58000
 847.44;  -49.710;  -55.120;    0.000; 5.41000
 847.69;  -74.570;  -84.720;    0.000;10.15000
 847.94;  -66.380;  -67.830;    0.000; 1.45000
 848.19;  -79.910;  -79.830;    0.000;-0.08000
 848.44;  -63.840;  -67.870;    0.000; 4.03000
 848.69;  -74.440;  -78.940;    0.000; 4.50000
 848.94;  -69.070;  -68.220;    0.000;-0.85000
 849.19;  -76.540;  -80.140;    0.000; 3.60000
 849.44;  -71.500;  -72.650;    0.000; 1.15000
 849.69;  -70.650;  -71.590;    0.000; 0.93999
 849.94;  -80.050;  -76.930;    0.000;-3.12000
 850.19;  -73.400;  -73.360;    0.000;-0.04000
 850.44;  -70.930;  -66.290;    0.000;-4.64000
 850.69;  -78.240;  -82.280;    0.000; 4.04000
 850.94;  -72.700;  -74.510;    0.000; 1.81001
 851.19;  -70.270;  -79.970;    0.000; 9.70000
 851.44;  -77.820;  -74.230;    0.000;-3.59000
 851.69;  -80.780;  -88.970;    0.000; 8.19000
 851.94;  -77.960;  -72.250;    0.000;-5.71000
 852.19;  -73.110;  -76.110;    0.000; 3.00000
 852.44;  -74.710;  -71.950;    0.000;-2.76000
 852.68;  -78.610;  -80.960;    0.000; 2.35000
 852.93;  -69.130;  -68.910;    0.000;-0.21999
 853.18;  -78.230;  -81.380;    0.000; 3.14999
 853.43;  -67.370;  -78.500;    0.000;11.13000
 853.68;  -75.500;  -81.760;    0.000; 6.26000
 853.93;  -69.930;  -64.570;    0.000;-5.36000
 854.18;  -74.300;  -68.640;    0.000;-5.66000
 854.43;  -71.240;  -71.570;    0.000; 0.33000
 854.68;  -74.720;  -81.760;    0.000; 7.04000
 854.93;  -59.820;  -62.170;    0.000; 2.35000
 855.18;  -74.720;  -77.640;    0.000; 2.92000
 855.42;  -65.190;  -66.050;    0.000; 0.86000
 855.67;  -76.740;  -78.320;    0.000; 1.58000
 855.92;  -81.040;  -82.080;    0.000; 1.04000
 856.17;  -70.510;  -75.620;    0.000; 5.11000
 856.42;  -70.100;  -75.370;    0.000; 5.27000
 856.67;  -77.880;  -83.310;    0.000; 5.43000
 856.92;  -68.300;  -76.990;    0.000; 8.68999
 857.17;  -81.280;  -85.010;    0.000; 3.73000
 857.41;  -74.210;  -78.320;    0.000; 4.11000
 857.66;  -77.110;  -73.210;    0.000;-3.90000
 857.91;  -67.550;  -66.900;    0.000;-0.65000
 858.16;  -75.890;  -79.660;    0.000; 3.77000
 858.41;  -74.180;  -73.780;    0.000;-0.40000
 858.66;  -74.980;  -75.720;    0.000; 0.74000
 858.91;  -68.840;  -68.300;    0.000;-0.53999
 859.15;  -84.170;  -87.480;    0.000; 3.31001
 859.40;  -56.900;  -62.810;    0.000; 5.91000
 859.65;  -79.210;  -77.170;    0.000;-2.04000
 859.90;  -75.480;  -73.530;    0.000;-1.95000
 860.15;  -73.990;  -77.320;    0.000; 3.33000
 860.40;  -68.060;  -61.790;    0.000;-6.27000
 860.64;  -74.840;  -74.900;    0.000; 0.06001
 860.89;  -81.030;  -74.710;    0.000;-6.32000
 861.14;  -77.900;  -82.280;    0.000; 4.38000
 861.39;  -67.440;  -66.620;    0.000;-0.82000
 861.64;  -83.840;  -83.440;    0.000;-0.39999
 861.88;  -68.600;  -63.350;    0.000;-5.25000
 862.13;  -66.740;  -79.620;    0.000;12.88000
 862.38;  -71.150;  -72.850;    0.000; 1.70000
 862.63;  -78.460;  -90.030;    0.000;11.57000
 862.88;  -71.650;  -78.150;    0.000; 6.50000
 863.12;  -69.450;  -78.270;    0.000; 8.82000
 863.37;  -77.430;  -70.270;    0.000;-7.16000
 863.62;  -75.580;  -80.030;    0.000; 4.45000
 863.87;  -82.050;  -77.710;    0.000;-4.34000
 864.12;  -77.350;  -81.170;    0.000; 3.82000
 864.36;  -79.130;  -74.740;    0.000;-4.39000
 864.61;  -79.610;  -80.430;    0.000; 0.82000
 864.86;  -77.280;  -75.370;    0.000;-1.91000
 865.11;  -70.930;  -80.000;    0.000; 9.07000
 865.35;  -66.770;  -69.330;    0.000; 2.56001
 865.60;  -75.490;  -80.180;    0.000; 4.69000
 865.85;  -66.650;  -69.460;    0.000; 2.81000
 866.10;  -84.660;  -78.520;    0.000;-6.14001
 866.34;  -72.480;  -70.970;    0.000;-1.51000
 866.59;  -69.280;  -72.940;    0.000; 3.66000
 866.84;  -67.320;  -80.580;    0.000;13.26000
 867.09;  -79.850;  -73.660;    0.000;-6.18999
 867.33;  -77.380;  -80.890;    0.000; 3.51000
 867.58;  -77.180;  -79.090;    0.000; 1.91000
 867.83;  -77.790;  -76.030;    0.000;-1.76000
 868.08;  -68.360;  -75.930;    0.000; 7.57000
 868.32;  -81.570;  -77.890;    0.000;-3.68000
 868.57;  -78.900;  -80.570;    0.000; 1.67000
 868.82;  -69.230;  -70.280;    0.000; 1.05000
 869.07;  -81.330;  -88.570;    0.000; 7.24000
 869.31;  -72.140;  -71.860;    0.000;-0.28000
 869.56;  -78.140;  -85.510;    0.000; 7.37000
 869.81;  -79.810;  -69.110;    0.000;-10.70000
 870.05;  -83.840;  -88.690;    0.000; 4.85001
 870.30;  -73.110;  -71.000;    0.000;-2.11000
 870.55;  -78.440;  -73.990;    0.000;-4.45000
 870.80;  -67.240;  -67.800;    0.000; 0.56001
 871.04;  -73.350;  -74.740;    0.000; 1.39000
 871.29;  -73.200;  -71.980;    0.000;-1.21999
 871.54;  -70.670;  -81.420;    0.000;10.75000
 871.78;  -82.510;  -80.770;    0.000;-1.74001
 872.03;  -73.570;  -80.330;    0.000; 6.76000
 872.28;  -73.240;  -69.600;    0.000;-3.64000
 872.52;  -70.370;  -82.020;    0.000;11.64999
 872.77;  -70.860;  -71.450;    0.000; 0.59000
 873.02;  -87.940;  -84.180;    0.000;-3.76000
 873.26;  -65.500;  -76.170;    0.000;10.67000
 873.51;  -73.380;  -72.470;    0.000;-0.91000
 873.76;  -69.430;  -73.320;    0.000; 3.89000
 874.00;  -70.450;  -73.990;    0.000; 3.54000
 874.25;  -79.250;  -81.590;    0.000; 2.34000
 874.50;  -82.340;  -83.150;    0.000; 0.81001
 874.74;  -76.240;  -73.370;    0.000;-2.87000
 874.99;  -78.490;  -84.660;    0.000; 6.17001
 875.24;  -61.160;  -56.740;    0.000;-4.42000
 875.48;  -76.600;  -83.860;    0.000; 7.26000
 875.73;  -75.770;  -76.130;    0.000; 0.36000
 875.98;  -79.330;  -87.110;    0.000; 7.78000
 876.22;  -78.740;  -67.050;    0.000;-11.68999
 876.47;  -67.120;  -73.650;    0.000; 6.53000
 876.71;  -64.940;  -72.930;    0.000; 7.99000
 876.96;  -68.610;  -71.230;    0.000; 2.62000
 877.21;  -75.120;  -72.970;    0.000;-2.15000
 877.45;  -81.670;  -90.180;    0.000; 8.51000
 877.70;  -72.230;  -75.560;    0.000; 3.32999
 877.95;  -64.820;  -77.820;    0.000;13.00000
 878.19;  -57.450;  -61.360;    0.000; 3.91000
 878.44;  -72.320;  -81.190;    0.000; 8.87000
 878.68;  -48.650;  -57.170;    0.000; 8.52000
 878.93;  -74.700;  -78.570;    0.000; 3.87000
 879.18;  -66.050;  -62.160;    0.000;-3.89000
 879.42;  -62.910;  -79.490;    0.000;16.58000
 879.67;  -75.030;  -77.840;    0.000; 2.81000
 879.91;  -64.570;  -69.200;    0.000; 4.63000
 880.16;  -67.810;  -68.380;    0.000; 0.57000
 880.40;  -72.240;  -76.600;    0.000; 4.36000
 880.65;  -67.720;  -68.110;    0.000; 0.39000
 880.90;  -71.020;  -70.920;    0.000;-0.10000
 881.14;  -63.300;  -63.690;    0.000; 0.39000
 881.39;  -76.930;  -79.520;    0.000; 2.59000
 881.63;  -72.380;  -68.090;    0.000;-4.29000
 881.88;  -66.090;  -73.090;    0.000; 7.00000
 882.12;  -66.350;  -68.080;    0.000; 1.73000
 882.37;  -71.710;  -77.030;    0.000; 5.32000
 882.62;  -71.160;  -77.360;    0.000; 6.20000
 882.86;  -79.230;  -78.920;    0.000;-0.31001
 883.11;  -67.500;  -70.390;    0.000; 2.89000
 883.35;  -71.360;  -74.500;    0.000; 3.14000
 883.60;  -56.220;  -66.560;    0.000;10.34000
 883.84;  -75.350;  -73.180;    0.000;-2.17000
 884.09;  -73.970;  -70.450;    0.000;-3.52000
 884.33;  -75.690;  -77.520;    0.000; 1.82999
 884.58;  -67.350;  -68.190;    0.000; 0.84000
 884.82;  -73.540;  -79.030;    0.000; 5.49000
 885.07;  -72.750;  -71.510;    0.000;-1.24000
 885.31;  -71.980;  -74.710;    0.000; 2.73000
 885.56;  -69.740;  -64.690;    0.000;-5.05000
 885.80;  -78.490;  -83.130;    0.000; 4.64000
 886.05;  -76.010;  -80.190;    0.000; 4.18000
 886.29;  -68.710;  -74.270;    0.000; 5.56000
 886.54;  -70.500;  -72.290;    0.000; 1.79000
 886.78;  -60.570;  -72.100;    0.000;11.53000
 887.03;  -65.140;  -62.750;    0.000;-2.39000
 887.27;  -50.750;  -62.270;    0.000;11.52000
 887.52;  -66.460;  -68.600;    0.000; 2.14000
 887.76;  -68.450;  -70.110;    0.000; 1.66000
 888.01;  -71.730;  -72.830;    0.000; 1.10000
 888.25;  -77.480;  -76.670;    0.000;-0.81001
 888.50;  -59.230;  -65.300;    0.000; 6.07000
 888.74;  -66.620;  -73.030;    0.000; 6.41000
 888.99;  -66.230;  -68.560;    0.000; 2.32999
 889.23;  -75.190;  -74.740;    0.000;-0.45000
 889.48;  -70.290;  -67.330;    0.000;-2.96000
 889.72;  -65.410;  -65.430;    0.000; 0.02000
 889.97;  -65.280;  -65.610;    0.000; 0.33000
 890.21;  -64.310;  -69.450;    0.000; 5.14000
 890.46;  -62.300;  -61.290;    0.000;-1.01000
 890.70;  -65.410;  -79.650;    0.000;14.24000
 890.94;  -63.320;  -61.400;    0.000;-1.92000
 891.19;  -66.000;  -69.150;    0.000; 3.15000
 891.43;  -58.670;  -57.360;    0.000;-1.31000
 891.68;  -54.750;  -55.550;    0.000; 0.80000
 891.92;  -61.750;  -60.700;    0.000;-1.05000
 892.17;  -68.960;  -66.860;    0.000;-2.10000
 892.41;  -56.950;  -59.720;    0.000; 2.77000
 892.66;  -67.770;  -76.190;    0.000; 8.42001
 892.90;  -39.710;  -40.820;    0.000; 1.11000
 893.14;  -66.730;  -75.130;    0.000; 8.39999
 893.39;  -53.980;  -60.740;    0.000; 6.76000
 893.63;  -68.100;  -77.900;    0.000; 9.80000
 893.88;  -64.200;  -69.930;    0.000; 5.73000
 894.12;  -69.910;  -70.570;    0.000; 0.66000
 894.36;  -55.390;  -57.010;    0.000; 1.62000
 894.61;  -59.300;  -65.570;    0.000; 6.27000
 894.85;  -62.170;  -57.860;    0.000;-4.31000
 895.10;  -57.040;  -63.260;    0.000; 6.22000
 895.34;  -62.270;  -66.190;    0.000; 3.92000
 895.58;  -60.820;  -69.510;    0.000; 8.69000
 895.83;  -56.610;  -58.440;    0.000; 1.83000
 896.07;  -56.670;  -67.190;    0.000;10.52000
 896.32;  -54.850;  -56.170;    0.000; 1.32000
 896.56;  -62.640;  -71.090;    0.000; 8.45000
 896.80;  -54.360;  -60.750;    0.000; 6.39000
 897.05;  -58.530;  -71.180;    0.000;12.65000
 897.29;  -48.630;  -50.870;    0.000; 2.24000
 897.53;  -57.870;  -67.890;    0.000;10.02000
 897.78;  -59.780;  -59.750;    0.000;-0.03000
 898.02;  -46.820;  -54.440;    0.000; 7.62000
 898.26;  -57.930;  -60.460;    0.000; 2.53000
 898.51;  -54.720;  -69.080;    0.000;14.36000
 898.75;  -56.910;  -54.110;    0.000;-2.80000
 898.99;  -51.430;  -62.590;    0.000;11.16000
 899.24;  -46.190;  -50.380;    0.000; 4.19000
 899.48;  -47.610;  -65.060;    0.000;17.45000
 899.73;  -42.910;  -51.990;    0.000; 9.08000
 899.97;  -46.740;  -46.710;    0.000;-0.03000
 900.21;  -38.060;  -46.190;    0.000; 8.13000
 900.46;  -38.430;  -42.660;    0.000; 4.23000
 900.70;  -23.750;  -32.140;    0.000; 8.39000
 900.94;  -46.830;  -52.880;    0.000; 6.05000
 901.18;  -34.590;  -32.620;    0.000;-1.97000
 901.43;  -39.260;  -49.310;    0.000;10.05000
 901.67;  -30.050;  -40.040;    0.000; 9.99000
 901.91;  -30.050;  -38.500;    0.000; 8.45000
 902.16;  -20.910;  -26.680;    0.000; 5.77000
 902.40;  -23.640;  -25.580;    0.000; 1.94000
 902.64;  -18.210;  -27.800;    0.000; 9.59000
 902.89;  -22.050;  -30.210;    0.000; 8.16000
 903.13;  -14.770;  -14.870;    0.000; 0.10000
 903.37;   -8.930;  -27.280;    0.000;18.35000
 903.61;    8.060;    0.170;    0.000; 7.89000
 903.86;   -3.160;  -13.960;    0.000;10.80000
 904.10;   12.050;    7.550;    0.000; 4.50000
 904.34;    9.680;    7.360;    0.000; 2.32000
 904.59;   23.550;   19.820;    0.000; 3.73000
 904.83;   32.880;   28.120;    0.000; 4.76000
 905.07;   47.340;   43.760;    0.000; 3.58000
 905.31;   62.970;   52.600;    0.000;10.37000
 905.56;   67.170;   74.450;    0.000;-7.28000
 905.80;   91.680;   83.880;    0.000; 7.80000

