p1
Integration time [ms]:  20.000
Averaging Nr. [scans]: 50
Smoothing Nr. [pixels]: 0
Data measured with spectrometer [name]: 1307077U2
Wave   ;Sample   ;Dark     ;Reference;Scope Corrected for Dark
[nm]   ;[counts] ;[counts] ;[counts] 

 350.80;   26.300;   -3.950;    0.000;30.25000
 351.10;   11.500;    2.790;    0.000; 8.71000
 351.39;    1.980;   -5.780;    0.000; 7.76000
 351.69;    2.820;   -6.710;    0.000; 9.53000
 351.99;   10.580;  -10.760;    0.000;21.34000
 352.28;   -6.900;  -11.870;    0.000; 4.97000
 352.58;   16.440;    2.640;    0.000;13.80000
 352.88;   -4.900;   -3.560;    0.000;-1.34000
 353.17;   28.180;   -1.460;    0.000;29.64000
 353.47;   -6.560;   -7.300;    0.000; 0.74000
 353.76;   23.040;    3.730;    0.000;19.31000
 354.06;   13.620;    1.480;    0.000;12.14000
 354.36;   24.620;    2.120;    0.000;22.50000
 354.65;   19.280;   12.260;    0.000; 7.02000
 354.95;    5.580;    1.380;    0.000; 4.20000
 355.24;    3.360;   -7.520;    0.000;10.88000
 355.54;    7.000;   -6.140;    0.000;13.14000
 355.84;    1.580;    1.010;    0.000; 0.57000
 356.13;   41.220;    1.060;    0.000;40.16000
 356.43;   -1.420;   -3.280;    0.000; 1.86000
 356.72;    9.180;   -7.820;    0.000;17.00000
 357.02;   16.600;    1.340;    0.000;15.26000
 357.31;   27.460;    4.400;    0.000;23.06000
 357.61;    8.220;    0.390;    0.000; 7.83000
 357.91;   -4.080;   -9.460;    0.000; 5.38000
 358.20;    3.200;   -6.210;    0.000; 9.41000
 358.50;    7.180;   -0.320;    0.000; 7.50000
 358.79;    4.960;   -0.240;    0.000; 5.20000
 359.09;   24.320;    4.600;    0.000;19.72000
 359.38;   -9.600;   -4.910;    0.000;-4.69000
 359.68;    0.460;   -6.920;    0.000; 7.38000
 359.98;    6.160;   -3.210;    0.000; 9.37000
 360.27;    9.840;   -5.880;    0.000;15.72000
 360.57;   -6.200;   -6.850;    0.000; 0.65000
 360.86;   18.640;   -3.030;    0.000;21.67000
 361.16;   -4.640;  -10.940;    0.000; 6.30000
 361.45;    8.980;   -3.610;    0.000;12.59000
 361.75;   -2.340;   -6.330;    0.000; 3.99000
 362.04;   48.020;    7.330;    0.000;40.69000
 362.34;    0.840;   -8.080;    0.000; 8.92000
 362.64;   13.080;   -4.150;    0.000;17.23000
 362.93;   -3.340;  -11.650;    0.000; 8.31000
 363.23;    4.420;   -3.380;    0.000; 7.80000
 363.52;   -0.900;   -7.930;    0.000; 7.03000
 363.82;   15.860;   -3.630;    0.000;19.49000
 364.11;   12.160;   -3.640;    0.000;15.80000
 364.41;    8.700;   -7.090;    0.000;15.79000
 364.70;  -10.860;   -9.000;    0.000;-1.86000
 365.00;   16.540;    0.260;    0.000;16.28000
 365.29;    3.880;   -7.370;    0.000;11.25000
 365.59;    7.300;   -3.180;    0.000;10.48000
 365.88;   -2.380;  -15.140;    0.000;12.76000
 366.18;    2.400;   -3.430;    0.000; 5.83000
 366.47;   -4.160;   -8.280;    0.000; 4.12000
 366.77;    9.940;   -6.540;    0.000;16.48000
 367.06;   -0.900;   -3.040;    0.000; 2.14000
 367.36;   22.860;   -6.830;    0.000;29.69000
 367.65;    4.560;   -1.150;    0.000; 5.71000
 367.95;    9.840;   -6.850;    0.000;16.69000
 368.24;    4.300;   -4.930;    0.000; 9.23000
 368.54;   -7.400;  -13.980;    0.000; 6.58000
 368.83;   20.700;   -1.360;    0.000;22.06000
 369.13;   19.440;   -2.650;    0.000;22.09000
 369.42;    4.480;   -5.530;    0.000;10.01000
 369.72;   15.200;   -9.410;    0.000;24.61000
 370.01;   11.740;   -1.870;    0.000;13.61000
 370.31;   18.220;    2.490;    0.000;15.73000
 370.60;   35.340;   -0.490;    0.000;35.83000
 370.90;   14.340;   -4.910;    0.000;19.25000
 371.19;   -0.440;   -8.640;    0.000; 8.20000
 371.49;    0.720;  -15.270;    0.000;15.99000
 371.78;   -4.900;  -12.190;    0.000; 7.29000
 372.08;    8.820;   -4.150;    0.000;12.97000
 372.37;    2.840;   -7.430;    0.000;10.27000
 372.67;   23.780;   -1.910;    0.000;25.69000
 372.96;   -0.060;   -4.090;    0.000; 4.03000
 373.26;   11.300;  -11.210;    0.000;22.51000
 373.55;   -0.380;   -3.340;    0.000; 2.96000
 373.85;   -4.000;  -14.000;    0.000;10.00000
 374.14;    6.460;   -0.440;    0.000; 6.90000
 374.43;    3.400;   -4.860;    0.000; 8.26000
 374.73;   -4.320;   -5.870;    0.000; 1.55000
 375.02;   13.380;   -6.640;    0.000;20.02000
 375.32;   -6.620;   -8.860;    0.000; 2.24000
 375.61;    4.200;   -4.690;    0.000; 8.89000
 375.91;   -1.800;   -6.400;    0.000; 4.60000
 376.20;   -1.840;   -8.800;    0.000; 6.96000
 376.50;  -11.500;   -2.750;    0.000;-8.75000
 376.79;    0.400;  -12.990;    0.000;13.39000
 377.08;  -14.460;   -9.810;    0.000;-4.65000
 377.38;    1.420;   -9.410;    0.000;10.83000
 377.67;    3.900;  -15.820;    0.000;19.72000
 377.97;   -6.160;  -12.430;    0.000; 6.27000
 378.26;    0.640;   -3.550;    0.000; 4.19000
 378.56;  -11.760;  -11.760;    0.000; 0.00000
 378.85;    5.760;   -6.770;    0.000;12.53000
 379.14;    4.460;  -10.870;    0.000;15.33000
 379.44;   -4.880;   -7.950;    0.000; 3.07000
 379.73;    7.640;  -12.070;    0.000;19.71000
 380.03;    6.480;  -10.640;    0.000;17.12000
 380.32;    5.680;  -10.740;    0.000;16.42000
 380.62;    3.160;  -11.160;    0.000;14.32000
 380.91;   21.760;   -2.790;    0.000;24.55000
 381.20;   -2.120;   -6.380;    0.000; 4.26000
 381.50;    7.620;   -6.110;    0.000;13.73000
 381.79;   -5.260;   -7.870;    0.000; 2.61000
 382.09;    8.380;   -7.030;    0.000;15.41000
 382.38;   -2.820;  -10.330;    0.000; 7.51000
 382.67;    9.160;  -10.730;    0.000;19.89000
 382.97;   -2.620;   -5.370;    0.000; 2.75000
 383.26;    8.660;   -3.260;    0.000;11.92000
 383.56;    6.420;   -3.260;    0.000; 9.68000
 383.85;   11.260;  -12.650;    0.000;23.91000
 384.14;    5.980;    0.820;    0.000; 5.16000
 384.44;    4.800;   -6.530;    0.000;11.33000
 384.73;    2.500;   -5.430;    0.000; 7.93000
 385.02;   16.400;   -6.450;    0.000;22.85000
 385.32;   15.320;   -4.570;    0.000;19.89000
 385.61;   -6.080;  -16.270;    0.000;10.19000
 385.91;    1.560;   -9.440;    0.000;11.00000
 386.20;    2.460;  -10.110;    0.000;12.57000
 386.49;  -18.020;  -14.900;    0.000;-3.12000
 386.79;    8.620;   -7.340;    0.000;15.96000
 387.08;   -2.840;   -6.300;    0.000; 3.46000
 387.37;    6.100;   -8.420;    0.000;14.52000
 387.67;   -5.160;   -6.130;    0.000; 0.97000
 387.96;   -2.080;   -9.280;    0.000; 7.20000
 388.25;  -10.180;   -1.410;    0.000;-8.77000
 388.55;    2.840;  -10.080;    0.000;12.92000
 388.84;   -0.760;  -12.690;    0.000;11.93000
 389.14;    5.160;  -11.090;    0.000;16.25000
 389.43;   10.080;   -9.030;    0.000;19.11000
 389.72;    1.820;  -13.300;    0.000;15.12000
 390.02;   -4.460;   -9.420;    0.000; 4.96000
 390.31;    5.580;   -2.070;    0.000; 7.65000
 390.60;    1.320;   -4.250;    0.000; 5.57000
 390.90;    0.000;  -15.000;    0.000;15.00000
 391.19;   -7.200;   -8.270;    0.000; 1.07000
 391.48;    6.600;  -13.200;    0.000;19.80000
 391.78;    0.320;   -9.570;    0.000; 9.89000
 392.07;   74.640;   16.810;    0.000;57.83000
 392.36;   14.120;   -1.800;    0.000;15.92000
 392.66;    9.280;  -11.850;    0.000;21.13000
 392.95;   -9.620;  -10.380;    0.000; 0.76000
 393.24;  -17.880;  -20.110;    0.000; 2.23000
 393.53;  -13.740;   -8.500;    0.000;-5.24000
 393.83;  -11.340;  -10.870;    0.000;-0.47000
 394.12;   -1.660;  -16.700;    0.000;15.04000
 394.41;    1.300;  -13.050;    0.000;14.35000
 394.71;   -3.720;   -7.960;    0.000; 4.24000
 395.00;   11.540;  -12.500;    0.000;24.04000
 395.29;    5.520;   -8.400;    0.000;13.92000
 395.59;    1.080;  -20.950;    0.000;22.03000
 395.88;   -4.040;  -16.060;    0.000;12.02000
 396.17;   -9.000;   -8.460;    0.000;-0.54000
 396.46;   18.060;   -3.560;    0.000;21.62000
 396.76;    2.280;  -13.050;    0.000;15.33000
 397.05;   29.460;    2.180;    0.000;27.28000
 397.34;   -5.600;  -20.090;    0.000;14.49000
 397.64;   -8.460;   -9.050;    0.000; 0.59000
 397.93;   -5.060;  -18.420;    0.000;13.36000
 398.22;   -7.120;  -12.920;    0.000; 5.80000
 398.51;    4.820;   -9.770;    0.000;14.59000
 398.81;   -3.280;  -12.510;    0.000; 9.23000
 399.10;    4.260;   -2.690;    0.000; 6.95000
 399.39;   -4.980;  -11.900;    0.000; 6.92000
 399.69;    9.460;  -13.740;    0.000;23.20000
 399.98;   12.300;   -4.100;    0.000;16.40000
 400.27;   -7.140;  -13.520;    0.000; 6.38000
 400.56;  -17.420;  -16.060;    0.000;-1.36000
 400.86;    7.460;  -13.820;    0.000;21.28000
 401.15;    0.700;   -4.180;    0.000; 4.88000
 401.44;  -16.140;  -15.730;    0.000;-0.41000
 401.73;   20.140;   -2.540;    0.000;22.68000
 402.03;    1.060;  -10.300;    0.000;11.36000
 402.32;  -19.780;  -17.030;    0.000;-2.75000
 402.61;    2.620;   -9.950;    0.000;12.57000
 402.90;  -18.300;  -11.420;    0.000;-6.88000
 403.20;   14.500;   -6.220;    0.000;20.72000
 403.49;    3.020;   -6.030;    0.000; 9.05000
 403.78;    0.520;  -11.040;    0.000;11.56000
 404.07;  -11.740;  -18.650;    0.000; 6.91000
 404.37;    6.820;  -10.470;    0.000;17.29000
 404.66;   -6.840;  -14.960;    0.000; 8.12000
 404.95;    9.500;   -0.330;    0.000; 9.83000
 405.24;  -15.380;  -15.620;    0.000; 0.24000
 405.53;  -14.800;  -15.660;    0.000; 0.86000
 405.83;    8.200;   -4.700;    0.000;12.90000
 406.12;   -1.080;  -10.900;    0.000; 9.82000
 406.41;   13.040;   -6.740;    0.000;19.78000
 406.70;    6.540;  -12.650;    0.000;19.19000
 407.00;   -2.880;   -5.150;    0.000; 2.27000
 407.29;   -1.500;  -10.150;    0.000; 8.65000
 407.58;  -18.120;  -15.850;    0.000;-2.27000
 407.87;    2.460;  -15.280;    0.000;17.74000
 408.16;  -12.360;  -17.930;    0.000; 5.57000
 408.46;  -10.100;  -11.550;    0.000; 1.45000
 408.75;   -3.600;  -11.910;    0.000; 8.31000
 409.04;    7.500;   -9.380;    0.000;16.88000
 409.33;   -3.920;   -5.530;    0.000; 1.61000
 409.62;   20.380;   -9.060;    0.000;29.44000
 409.92;    2.280;   -7.890;    0.000;10.17000
 410.21;    2.120;  -11.510;    0.000;13.63000
 410.50;   -7.160;  -15.240;    0.000; 8.08000
 410.79;   18.860;   -3.910;    0.000;22.77000
 411.08;   -1.240;  -18.230;    0.000;16.99000
 411.37;  -11.140;  -12.950;    0.000; 1.81000
 411.67;   -5.760;  -15.120;    0.000; 9.36000
 411.96;    7.500;  -13.530;    0.000;21.03000
 412.25;   -8.740;  -11.720;    0.000; 2.98000
 412.54;    3.680;  -14.570;    0.000;18.25000
 412.83;   -8.400;  -15.690;    0.000; 7.29000
 413.13;    4.560;  -12.520;    0.000;17.08000
 413.42;   -6.720;  -11.540;    0.000; 4.82000
 413.71;   -1.960;  -16.160;    0.000;14.20000
 414.00;   -5.420;  -15.050;    0.000; 9.63000
 414.29;    4.800;  -10.400;    0.000;15.20000
 414.58;  -14.340;  -20.050;    0.000; 5.71000
 414.87;   -1.880;  -11.570;    0.000; 9.69000
 415.17;   -8.540;  -14.460;    0.000; 5.92000
 415.46;   -3.720;  -14.740;    0.000;11.02000
 415.75;   -4.900;  -15.050;    0.000;10.15000
 416.04;   14.560;  -19.580;    0.000;34.14000
 416.33;    5.740;  -10.240;    0.000;15.98000
 416.62;   -0.060;  -16.750;    0.000;16.69000
 416.91;  -15.740;   -9.630;    0.000;-6.11000
 417.21;   -1.920;   -9.770;    0.000; 7.85000
 417.50;  -11.160;  -22.390;    0.000;11.23000
 417.79;   -2.400;  -14.440;    0.000;12.04000
 418.08;    0.220;  -16.260;    0.000;16.48000
 418.37;   -0.960;  -12.710;    0.000;11.75000
 418.66;   -8.640;  -14.780;    0.000; 6.14000
 418.95;   22.420;  -12.220;    0.000;34.64000
 419.24;   -1.420;  -16.910;    0.000;15.49000
 419.54;    2.160;  -14.290;    0.000;16.45000
 419.83;   -6.840;   -7.000;    0.000; 0.16000
 420.12;    1.500;  -17.080;    0.000;18.58000
 420.41;    4.940;   -6.120;    0.000;11.06000
 420.70;   -7.100;  -15.970;    0.000; 8.87000
 420.99;  -11.220;   -7.860;    0.000;-3.36000
 421.28;    3.400;  -14.590;    0.000;17.99000
 421.57;   -1.860;  -13.670;    0.000;11.81000
 421.86;   24.000;   -3.720;    0.000;27.72000
 422.16;    1.620;   -4.790;    0.000; 6.41000
 422.45;   -0.840;   -7.870;    0.000; 7.03000
 422.74;   -6.060;  -11.510;    0.000; 5.45000
 423.03;    7.540;   -8.230;    0.000;15.77000
 423.32;   -5.420;  -16.280;    0.000;10.86000
 423.61;   23.480;  -10.700;    0.000;34.18000
 423.90;   -1.220;  -18.810;    0.000;17.59000
 424.19;   48.440;    3.040;    0.000;45.40000
 424.48;   -8.780;  -13.640;    0.000; 4.86000
 424.77;    9.540;  -15.110;    0.000;24.65000
 425.06;    4.400;   -8.550;    0.000;12.95000
 425.35;   16.020;  -12.070;    0.000;28.09000
 425.65;   -9.620;  -12.850;    0.000; 3.23000
 425.94;   -3.060;  -13.500;    0.000;10.44000
 426.23;  -22.940;  -18.630;    0.000;-4.31000
 426.52;   -0.940;  -18.760;    0.000;17.82000
 426.81;   24.100;   -4.960;    0.000;29.06000
 427.10;   -4.520;  -18.640;    0.000;14.12000
 427.39;    1.400;  -17.730;    0.000;19.13000
 427.68;    3.280;   -6.060;    0.000; 9.34000
 427.97;    6.080;   -9.970;    0.000;16.05000
 428.26;   -1.320;  -21.550;    0.000;20.23000
 428.55;    4.100;   -7.010;    0.000;11.11000
 428.84;    6.160;  -15.510;    0.000;21.67000
 429.13;  -11.180;  -21.800;    0.000;10.62000
 429.42;    2.180;   -6.430;    0.000; 8.61000
 429.71;   -4.180;  -12.900;    0.000; 8.72000
 430.00;    9.680;  -27.260;    0.000;36.94000
 430.29;  -10.240;  -18.790;    0.000; 8.55000
 430.58;    0.480;  -19.950;    0.000;20.43000
 430.87;   -6.900;  -18.710;    0.000;11.81000
 431.16;    4.020;  -27.130;    0.000;31.15000
 431.46;    3.840;  -12.580;    0.000;16.42000
 431.75;   -5.740;  -16.460;    0.000;10.72000
 432.04;   19.040;  -12.750;    0.000;31.79000
 432.33;   -4.280;  -15.960;    0.000;11.68000
 432.62;   -2.760;  -16.610;    0.000;13.85000
 432.91;   -1.380;  -15.280;    0.000;13.90000
 433.20;   -3.560;  -14.090;    0.000;10.53000
 433.49;  -11.000;  -21.180;    0.000;10.18000
 433.78;  -11.900;  -15.380;    0.000; 3.48000
 434.07;    0.080;  -18.570;    0.000;18.65000
 434.36;  -12.800;  -18.360;    0.000; 5.56000
 434.65;  -10.340;  -19.110;    0.000; 8.77000
 434.94;   -7.540;  -16.660;    0.000; 9.12000
 435.23;   12.260;  -14.870;    0.000;27.13000
 435.52;    5.740;  -15.280;    0.000;21.02000
 435.81;    8.500;  -19.590;    0.000;28.09000
 436.10;   -0.420;   -8.920;    0.000; 8.50000
 436.39;   20.520;   -9.090;    0.000;29.61000
 436.68;   20.100;   -9.150;    0.000;29.25000
 436.97;   -2.880;  -17.940;    0.000;15.06000
 437.26;    4.860;  -11.060;    0.000;15.92000
 437.55;   16.840;  -14.150;    0.000;30.99000
 437.83;  -13.960;  -20.360;    0.000; 6.40000
 438.12;   -7.380;  -19.980;    0.000;12.60000
 438.41;   -6.060;  -18.690;    0.000;12.63000
 438.70;   29.460;   -6.450;    0.000;35.91000
 438.99;   18.780;   -3.000;    0.000;21.78000
 439.28;    9.680;  -13.960;    0.000;23.64000
 439.57;   -8.840;   -8.660;    0.000;-0.18000
 439.86;   -3.060;  -20.460;    0.000;17.40000
 440.15;   -5.240;  -10.490;    0.000; 5.25000
 440.44;   -0.180;  -14.790;    0.000;14.61000
 440.73;  -11.960;  -19.990;    0.000; 8.03000
 441.02;   15.660;  -18.940;    0.000;34.60000
 441.31;   11.100;  -17.020;    0.000;28.12000
 441.60;   16.440;  -10.820;    0.000;27.26000
 441.89;  -14.880;  -18.180;    0.000; 3.30000
 442.18;   14.540;  -11.380;    0.000;25.92000
 442.47;   -2.120;  -20.660;    0.000;18.54000
 442.76;    3.840;  -17.440;    0.000;21.28000
 443.05;   -0.280;   -6.670;    0.000; 6.39000
 443.34;    9.720;  -21.050;    0.000;30.77000
 443.63;    3.060;  -21.060;    0.000;24.12000
 443.91;    9.000;  -24.010;    0.000;33.01000
 444.20;   -0.120;  -15.210;    0.000;15.09000
 444.49;  -16.740;  -17.150;    0.000; 0.41000
 444.78;    4.540;  -10.890;    0.000;15.43000
 445.07;    8.000;  -13.040;    0.000;21.04000
 445.36;   -6.600;  -25.850;    0.000;19.25000
 445.65;    8.160;  -13.460;    0.000;21.62000
 445.94;   -8.500;  -17.420;    0.000; 8.92000
 446.23;   23.940;  -14.150;    0.000;38.09000
 446.52;   11.320;  -19.520;    0.000;30.84000
 446.81;    9.960;  -16.560;    0.000;26.52000
 447.10;   -7.860;  -13.040;    0.000; 5.18000
 447.38;    2.520;  -16.320;    0.000;18.84000
 447.67;    9.200;  -14.960;    0.000;24.16000
 447.96;    6.300;  -20.220;    0.000;26.52000
 448.25;   -5.500;  -17.610;    0.000;12.11000
 448.54;    5.340;  -20.490;    0.000;25.83000
 448.83;    1.360;  -21.650;    0.000;23.01000
 449.12;   -1.780;  -24.330;    0.000;22.55000
 449.41;   -2.460;  -17.380;    0.000;14.92000
 449.70;   -3.980;  -19.200;    0.000;15.22000
 449.98;  -15.140;  -18.990;    0.000; 3.85000
 450.27;    9.420;  -10.630;    0.000;20.05000
 450.56;  -13.360;  -19.350;    0.000; 5.99000
 450.85;    0.620;  -18.980;    0.000;19.60000
 451.14;  -15.500;  -18.310;    0.000; 2.81000
 451.43;   -8.340;  -19.640;    0.000;11.30000
 451.72;  -12.700;  -20.630;    0.000; 7.93000
 452.01;   10.560;  -12.200;    0.000;22.76000
 452.29;    0.020;  -18.350;    0.000;18.37000
 452.58;   -8.680;  -25.270;    0.000;16.59000
 452.87;   -5.360;  -19.090;    0.000;13.73000
 453.16;    6.680;  -11.330;    0.000;18.01000
 453.45;   16.240;  -14.720;    0.000;30.96000
 453.74;    5.140;  -10.690;    0.000;15.83000
 454.03;  -11.040;  -21.930;    0.000;10.89000
 454.31;   -6.180;  -22.490;    0.000;16.31000
 454.60;  -17.340;  -21.160;    0.000; 3.82000
 454.89;   23.160;  -12.560;    0.000;35.72000
 455.18;  -12.700;  -24.060;    0.000;11.36000
 455.47;  -15.540;  -26.150;    0.000;10.61000
 455.76;   -8.080;  -27.400;    0.000;19.32000
 456.04;    0.720;  -25.580;    0.000;26.30000
 456.33;   -7.560;  -25.270;    0.000;17.71000
 456.62;    3.940;  -18.480;    0.000;22.42000
 456.91;  -13.060;  -23.960;    0.000;10.90000
 457.20;   19.220;  -15.140;    0.000;34.36000
 457.49;   -6.560;  -14.830;    0.000; 8.27000
 457.77;  -10.160;  -20.000;    0.000; 9.84000
 458.06;    1.360;  -12.460;    0.000;13.82000
 458.35;   -4.520;  -24.180;    0.000;19.66000
 458.64;   -9.080;  -11.000;    0.000; 1.92000
 458.93;    3.560;  -15.890;    0.000;19.45000
 459.21;  -10.680;  -21.440;    0.000;10.76000
 459.50;   -7.560;  -22.030;    0.000;14.47000
 459.79;  -10.480;  -19.740;    0.000; 9.26000
 460.08;    5.360;  -20.210;    0.000;25.57000
 460.37;   -1.040;  -17.330;    0.000;16.29000
 460.65;    1.840;  -20.980;    0.000;22.82000
 460.94;   -5.240;  -24.100;    0.000;18.86000
 461.23;    2.620;  -16.720;    0.000;19.34000
 461.52;   24.640;  -10.800;    0.000;35.44000
 461.81;   -1.980;  -18.200;    0.000;16.22000
 462.09;    1.760;  -16.530;    0.000;18.29000
 462.38;   -4.120;  -21.390;    0.000;17.27000
 462.67;   -8.980;  -25.110;    0.000;16.13000
 462.96;    7.640;  -24.230;    0.000;31.87000
 463.24;   -3.500;  -23.650;    0.000;20.15000
 463.53;   11.160;  -17.480;    0.000;28.64000
 463.82;    4.100;  -19.800;    0.000;23.90000
 464.11;   -0.520;  -21.730;    0.000;21.21000
 464.40;  -14.380;  -22.130;    0.000; 7.75000
 464.68;  -12.020;  -21.480;    0.000; 9.46000
 464.97;   -0.960;  -19.470;    0.000;18.51000
 465.26;   13.460;  -17.460;    0.000;30.92000
 465.55;    0.360;  -20.890;    0.000;21.25000
 465.83;   -5.460;  -20.920;    0.000;15.46000
 466.12;   -5.520;  -22.340;    0.000;16.82000
 466.41;   10.300;  -21.380;    0.000;31.68000
 466.70;   -8.160;  -23.610;    0.000;15.45000
 466.98;    1.380;  -20.090;    0.000;21.47000
 467.27;   12.960;  -18.760;    0.000;31.72000
 467.56;   13.560;  -20.980;    0.000;34.54000
 467.85;    5.600;  -15.930;    0.000;21.53000
 468.13;    1.280;  -14.330;    0.000;15.61000
 468.42;   -6.380;  -17.700;    0.000;11.32000
 468.71;    2.180;  -20.100;    0.000;22.28000
 468.99;    1.840;  -17.320;    0.000;19.16000
 469.28;    1.820;  -22.330;    0.000;24.15000
 469.57;  -12.900;  -21.170;    0.000; 8.27000
 469.86;    5.440;  -18.660;    0.000;24.10000
 470.14;   -9.940;  -24.400;    0.000;14.46000
 470.43;   13.440;  -16.250;    0.000;29.69000
 470.72;  -12.660;  -27.700;    0.000;15.04000
 471.00;   -1.260;  -21.470;    0.000;20.21000
 471.29;   21.720;  -12.190;    0.000;33.91000
 471.58;   36.820;  -14.440;    0.000;51.26000
 471.87;    4.260;  -20.260;    0.000;24.52000
 472.15;   11.200;  -27.280;    0.000;38.48000
 472.44;   32.580;  -13.550;    0.000;46.13000
 472.73;    4.360;  -28.340;    0.000;32.70000
 473.01;    4.180;  -26.320;    0.000;30.50000
 473.30;   31.960;  -23.100;    0.000;55.06000
 473.59;   22.700;  -19.590;    0.000;42.29000
 473.87;   28.100;  -19.240;    0.000;47.34000
 474.16;   16.980;  -20.110;    0.000;37.09000
 474.45;   23.860;  -30.440;    0.000;54.30000
 474.74;   22.260;  -22.750;    0.000;45.01000
 475.02;   38.480;  -15.460;    0.000;53.94000
 475.31;   34.080;  -20.200;    0.000;54.28000
 475.60;   50.740;  -27.200;    0.000;77.94000
 475.88;   47.200;  -25.920;    0.000;73.12000
 476.17;   69.460;  -16.890;    0.000;86.35000
 476.46;   59.400;  -20.900;    0.000;80.30000
 476.74;   59.200;  -23.070;    0.000;82.27000
 477.03;   54.700;  -22.890;    0.000;77.59000
 477.32;   81.020;  -21.040;    0.000;102.06000
 477.60;   88.040;  -24.890;    0.000;112.93000
 477.89;  102.940;  -14.910;    0.000;117.85000
 478.18;   98.960;  -15.900;    0.000;114.86000
 478.46;  114.780;  -19.520;    0.000;134.30000
 478.75;  113.160;  -18.520;    0.000;131.68000
 479.03;  115.480;  -17.330;    0.000;132.81000
 479.32;  142.860;  -26.670;    0.000;169.53000
 479.61;  153.560;  -32.440;    0.000;186.00000
 479.89;  161.260;  -24.740;    0.000;185.99999
 480.18;  181.340;  -21.450;    0.000;202.79000
 480.47;  205.940;  -18.220;    0.000;224.16000
 480.75;  215.460;  -29.820;    0.000;245.28001
 481.04;  230.760;  -20.400;    0.000;251.15999
 481.33;  260.640;  -16.240;    0.000;276.88001
 481.61;  256.020;  -20.830;    0.000;276.84999
 481.90;  284.420;  -33.240;    0.000;317.66002
 482.18;  319.320;  -23.490;    0.000;342.81001
 482.47;  334.920;  -18.580;    0.000;353.50001
 482.76;  345.460;  -24.650;    0.000;370.10999
 483.04;  377.460;  -22.560;    0.000;400.01999
 483.33;  399.600;  -27.450;    0.000;427.05001
 483.61;  456.520;  -18.390;    0.000;474.90999
 483.90;  451.200;  -22.630;    0.000;473.83001
 484.19;  479.780;  -31.890;    0.000;511.67000
 484.47;  539.500;  -27.650;    0.000;567.15000
 484.76;  553.840;  -22.480;    0.000;576.32003
 485.05;  599.340;  -15.900;    0.000;615.24003
 485.33;  639.780;  -20.520;    0.000;660.30003
 485.62;  658.120;  -23.220;    0.000;681.33999
 485.90;  706.300;  -19.330;    0.000;725.62999
 486.19;  730.500;  -21.960;    0.000;752.46000
 486.47;  833.460;  -17.750;    0.000;851.21002
 486.76;  832.860;  -32.110;    0.000;864.96999
 487.05;  925.380;  -21.590;    0.000;946.97001
 487.33;  940.580;  -24.120;    0.000;964.70002
 487.62;  993.920;  -27.370;    0.000;1021.28998
 487.90; 1025.520;  -24.640;    0.000;1050.16002
 488.19; 1106.920;  -17.250;    0.000;1124.17004
 488.47; 1144.600;  -20.280;    0.000;1164.87998
 488.76; 1200.880;  -22.200;    0.000;1223.08001
 489.05; 1277.960;  -13.720;    0.000;1291.67996
 489.33; 1325.280;  -24.060;    0.000;1349.34003
 489.62; 1384.240;  -27.760;    0.000;1411.99999
 489.90; 1431.880;  -29.230;    0.000;1461.11000
 490.19; 1503.300;  -20.080;    0.000;1523.38005
 490.47; 1576.640;  -27.170;    0.000;1603.81001
 490.76; 1648.060;  -30.390;    0.000;1678.45006
 491.05; 1724.660;  -18.700;    0.000;1743.36003
 491.33; 1793.600;  -19.160;    0.000;1812.75998
 491.62; 1842.220;  -30.080;    0.000;1872.29997
 491.90; 1918.360;  -24.970;    0.000;1943.32998
 492.19; 2018.180;  -29.880;    0.000;2048.06005
 492.47; 2084.640;  -26.010;    0.000;2110.64989
 492.76; 2155.560;  -25.800;    0.000;2181.36006
 493.04; 2260.720;  -23.090;    0.000;2283.80997
 493.33; 2302.580;  -29.680;    0.000;2332.26008
 493.61; 2401.040;  -28.280;    0.000;2429.32004
 493.90; 2509.240;  -25.470;    0.000;2534.70999
 494.18; 2607.300;  -21.360;    0.000;2628.66005
 494.47; 2677.120;  -21.500;    0.000;2698.62012
 494.75; 2773.680;  -25.740;    0.000;2799.41993
 495.04; 2856.580;  -25.010;    0.000;2881.59008
 495.32; 2939.000;  -24.280;    0.000;2963.28000
 495.61; 3066.500;  -26.390;    0.000;3092.89000
 495.89; 3129.440;  -25.210;    0.000;3154.64994
 496.18; 3223.420;  -24.900;    0.000;3248.31992
 496.46; 3350.220;  -25.570;    0.000;3375.78997
 496.75; 3461.500;  -19.200;    0.000;3480.70000
 497.03; 3532.140;  -21.850;    0.000;3553.98989
 497.32; 3645.340;  -28.930;    0.000;3674.27009
 497.60; 3726.840;  -27.460;    0.000;3754.30009
 497.89; 3822.940;  -26.060;    0.000;3848.99994
 498.17; 3940.540;  -23.200;    0.000;3963.74004
 498.46; 4018.160;  -31.150;    0.000;4049.30991
 498.74; 4137.900;  -21.420;    0.000;4159.31990
 499.03; 4229.740;  -27.500;    0.000;4257.24023
 499.31; 4365.380;  -33.980;    0.000;4399.35988
 499.60; 4488.800;  -26.560;    0.000;4515.35980
 499.88; 4624.200;  -13.310;    0.000;4637.51020
 500.17; 4708.260;  -32.950;    0.000;4741.20977
 500.45; 4811.280;  -26.850;    0.000;4838.12979
 500.74; 4936.260;  -32.110;    0.000;4968.36977
 501.02; 5042.320;  -28.340;    0.000;5070.65982
 501.31; 5112.660;  -30.740;    0.000;5143.40016
 501.59; 5244.960;  -22.990;    0.000;5267.94996
 501.88; 5351.680;  -24.540;    0.000;5376.22018
 502.16; 5437.340;  -33.190;    0.000;5470.52984
 502.45; 5598.760;  -27.850;    0.000;5626.60977
 502.73; 5700.240;  -30.030;    0.000;5730.27024
 503.01; 5870.960;  -26.800;    0.000;5897.75996
 503.30; 5955.880;  -26.540;    0.000;5982.41988
 503.58; 6060.620;  -37.970;    0.000;6098.59012
 503.87; 6165.700;  -21.070;    0.000;6186.77020
 504.15; 6259.620;  -31.700;    0.000;6291.32012
 504.44; 6382.600;  -22.380;    0.000;6404.98010
 504.72; 6541.100;  -16.240;    0.000;6557.34010
 505.00; 6628.600;  -31.090;    0.000;6659.69010
 505.29; 6739.220;  -18.750;    0.000;6757.97021
 505.57; 6863.820;  -26.120;    0.000;6889.93983
 505.86; 6953.320;  -30.130;    0.000;6983.44982
 506.14; 7097.180;  -40.580;    0.000;7137.76018
 506.43; 7232.820;  -16.980;    0.000;7249.79982
 506.71; 7289.080;  -26.380;    0.000;7315.46008
 506.99; 7446.600;  -33.030;    0.000;7479.63010
 507.28; 7599.420;  -27.620;    0.000;7627.03992
 507.56; 7673.400;  -28.400;    0.000;7701.79990
 507.85; 7785.980;  -26.630;    0.000;7812.60998
 508.13; 7966.460;  -23.390;    0.000;7989.84996
 508.41; 8070.200;  -13.300;    0.000;8083.50020
 508.70; 8181.180;  -30.090;    0.000;8211.27018
 508.98; 8268.680;  -29.260;    0.000;8297.93969
 509.27; 8437.400;  -34.820;    0.000;8472.22039
 509.55; 8529.640;  -20.900;    0.000;8550.53965
 509.83; 8674.360;  -32.250;    0.000;8706.61035
 510.12; 8747.620;  -25.080;    0.000;8772.70012
 510.40; 8911.920;  -26.530;    0.000;8938.44992
 510.69; 8987.940;  -26.360;    0.000;9014.30043
 510.97; 9108.780;  -25.960;    0.000;9134.74027
 511.25; 9324.300;  -25.560;    0.000;9349.85980
 511.54; 9383.160;  -32.180;    0.000;9415.34016
 511.82; 9522.480;  -23.410;    0.000;9545.89047
 512.11; 9638.900;  -28.130;    0.000;9667.03039
 512.39; 9768.560;  -32.100;    0.000;9800.65957
 512.67; 9869.020;  -23.390;    0.000;9892.40953
 512.96; 9965.560;  -27.360;    0.000;9992.91957
 513.24;10086.280;  -25.540;    0.000;10111.82027
 513.52;10183.280;  -20.710;    0.000;10203.99027
 513.81;10244.580;  -27.450;    0.000;10272.03008
 514.09;10399.820;  -31.630;    0.000;10431.45031
 514.37;10505.020;  -28.900;    0.000;10533.91953
 514.66;10608.160;  -26.830;    0.000;10634.99016
 514.94;10822.620;  -30.930;    0.000;10853.55012
 515.22;10859.580;  -20.740;    0.000;10880.32008
 515.51;10981.980;  -28.110;    0.000;11010.09047
 515.79;11116.220;  -30.680;    0.000;11146.89973
 516.07;11242.900;  -21.420;    0.000;11264.32039
 516.36;11343.780;  -30.450;    0.000;11374.23027
 516.64;11530.580;  -27.560;    0.000;11558.14008
 516.92;11648.300;  -28.140;    0.000;11676.43980
 517.21;11761.260;  -33.670;    0.000;11794.92976
 517.49;11936.860;  -21.660;    0.000;11958.52035
 517.77;12090.920;  -23.850;    0.000;12114.76992
 518.06;12187.820;  -35.280;    0.000;12223.10031
 518.34;12363.700;  -22.260;    0.000;12385.96020
 518.62;12466.800;  -18.090;    0.000;12484.88980
 518.91;12585.960;  -25.090;    0.000;12611.04996
 519.19;12728.260;  -29.320;    0.000;12757.57977
 519.47;12822.460;  -25.890;    0.000;12848.34996
 519.76;12988.260;  -20.890;    0.000;13009.14977
 520.04;13035.560;  -27.100;    0.000;13062.65957
 520.32;13160.420;  -24.040;    0.000;13184.45992
 520.61;13290.000;  -17.280;    0.000;13307.28000
 520.89;13402.260;  -26.150;    0.000;13428.40977
 521.17;13490.700;  -27.250;    0.000;13517.95020
 521.45;13667.840;  -26.190;    0.000;13694.02984
 521.74;13697.800;  -27.770;    0.000;13725.56981
 522.02;13910.880;  -32.340;    0.000;13943.21988
 522.30;14033.580;  -30.190;    0.000;14063.77008
 522.59;14087.000;  -17.950;    0.000;14104.95000
 522.87;14239.780;  -35.830;    0.000;14275.61028
 523.15;14359.120;  -22.330;    0.000;14381.45012
 523.43;14361.860;  -36.850;    0.000;14398.71035
 523.72;14525.200;  -22.470;    0.000;14547.67019
 524.00;14689.480;  -26.840;    0.000;14716.32047
 524.28;14721.920;  -30.100;    0.000;14752.01992
 524.57;14854.620;  -28.250;    0.000;14882.87012
 524.85;14945.480;  -33.210;    0.000;14978.69047
 525.13;15064.160;  -28.900;    0.000;15093.06016
 525.41;15157.360;  -26.930;    0.000;15184.29035
 525.70;15279.600;  -39.770;    0.000;15319.36961
 525.98;15303.180;  -28.770;    0.000;15331.94969
 526.26;15454.920;  -28.530;    0.000;15483.44992
 526.54;15577.520;  -37.240;    0.000;15614.75953
 526.83;15661.640;  -31.260;    0.000;15692.89965
 527.11;15694.500;  -29.840;    0.000;15724.34000
 527.39;15840.060;  -27.920;    0.000;15867.97957
 527.67;15917.640;  -33.060;    0.000;15950.69965
 527.96;16096.400;  -33.590;    0.000;16129.99039
 528.24;16118.940;  -30.660;    0.000;16149.60043
 528.52;16242.440;  -24.870;    0.000;16267.31043
 528.80;16375.440;  -28.750;    0.000;16404.19043
 529.08;16484.160;  -34.880;    0.000;16519.04016
 529.37;16541.619;  -25.970;    0.000;16567.58914
 529.65;16636.480;  -21.850;    0.000;16658.33047
 529.93;16751.420;  -27.970;    0.000;16779.38992
 530.21;16793.980;  -33.080;    0.000;16827.06047
 530.50;16951.820;  -30.560;    0.000;16982.38031
 530.78;16951.199;  -27.290;    0.000;16978.48922
 531.06;17051.119;  -32.640;    0.000;17083.75914
 531.34;17152.820;  -31.410;    0.000;17184.23031
 531.62;17250.301;  -29.810;    0.000;17280.11078
 531.91;17323.221;  -33.270;    0.000;17356.49070
 532.19;17399.980;  -28.780;    0.000;17428.76047
 532.47;17487.980;  -30.330;    0.000;17518.31047
 532.75;17577.961;  -25.280;    0.000;17603.24094
 533.03;17564.039;  -26.860;    0.000;17590.89906
 533.32;17791.141;  -23.280;    0.000;17814.42063
 533.60;17779.080;  -34.090;    0.000;17813.17008
 533.88;17887.520;  -20.750;    0.000;17908.26953
 534.16;17966.801;  -30.960;    0.000;17997.76078
 534.44;18069.199;  -26.490;    0.000;18095.68922
 534.72;18060.340;  -32.560;    0.000;18092.89985
 535.01;18116.600;  -25.270;    0.000;18141.86961
 535.29;18222.961;  -23.350;    0.000;18246.31094
 535.57;18280.180;  -25.910;    0.000;18306.08969
 535.85;18360.939;  -23.170;    0.000;18384.10945
 536.13;18459.061;  -28.940;    0.000;18488.00055
 536.42;18428.221;  -27.660;    0.000;18455.88070
 536.70;18588.340;  -35.120;    0.000;18623.45984
 536.98;18671.641;  -22.910;    0.000;18694.55062
 537.26;18751.740;  -19.290;    0.000;18771.03024
 537.54;18799.221;  -26.340;    0.000;18825.56070
 537.82;18833.301;  -21.930;    0.000;18855.23078
 538.10;18978.199;  -27.700;    0.000;19005.89922
 538.39;18926.039;  -28.600;    0.000;18954.63906
 538.67;19054.340;  -27.310;    0.000;19081.64984
 538.95;19174.260;  -30.120;    0.000;19204.37977
 539.23;19150.920;  -22.970;    0.000;19173.88992
 539.51;19233.359;  -22.060;    0.000;19255.41937
 539.79;19282.020;  -26.640;    0.000;19308.65953
 540.07;19381.480;  -22.100;    0.000;19403.58047
 540.36;19439.119;  -30.750;    0.000;19469.86914
 540.64;19469.199;  -22.510;    0.000;19491.70922
 540.92;19554.160;  -30.820;    0.000;19584.98016
 541.20;19583.480;  -29.640;    0.000;19613.12047
 541.48;19750.740;  -12.470;    0.000;19763.21023
 541.76;19832.721;  -26.780;    0.000;19859.50070
 542.04;19778.801;  -23.270;    0.000;19802.07078
 542.32;19826.100;  -24.220;    0.000;19850.31961
 542.61;19920.061;  -33.520;    0.000;19953.58055
 542.89;20003.240;  -17.240;    0.000;20020.48023
 543.17;19947.680;  -25.240;    0.000;19972.91969
 543.45;20038.000;  -24.660;    0.000;20062.66000
 543.73;20043.779;  -28.070;    0.000;20071.84930
 544.01;20142.660;  -29.250;    0.000;20171.91016
 544.29;20180.039;  -19.640;    0.000;20199.67906
 544.57;20238.859;  -34.410;    0.000;20273.26937
 544.85;20270.539;  -23.490;    0.000;20294.02906
 545.13;20332.820;  -25.150;    0.000;20357.97031
 545.42;20317.461;  -24.120;    0.000;20341.58094
 545.70;20339.260;  -20.880;    0.000;20360.13976
 545.98;20425.461;  -22.690;    0.000;20448.15094
 546.26;20417.279;  -22.680;    0.000;20439.95930
 546.54;20512.141;  -26.680;    0.000;20538.82063
 546.82;20424.939;  -22.560;    0.000;20447.49945
 547.10;20523.660;  -25.490;    0.000;20549.15016
 547.38;20620.520;  -18.460;    0.000;20638.97953
 547.66;20630.279;  -24.450;    0.000;20654.72930
 547.94;20620.080;  -22.110;    0.000;20642.19008
 548.22;20654.381;  -28.020;    0.000;20682.40086
 548.50;20722.680;  -35.840;    0.000;20758.51969
 548.78;20739.359;  -28.210;    0.000;20767.56937
 549.06;20741.400;  -25.700;    0.000;20767.10039
 549.34;20782.000;  -30.930;    0.000;20812.93000
 549.63;20851.539;  -17.470;    0.000;20869.00906
 549.91;20750.000;  -26.020;    0.000;20776.02000
 550.19;20802.980;  -30.840;    0.000;20833.82047
 550.47;20828.381;  -33.570;    0.000;20861.95086
 550.75;20856.840;  -29.150;    0.000;20885.98984
 551.03;20907.301;  -31.230;    0.000;20938.53078
 551.31;20877.980;  -27.700;    0.000;20905.68047
 551.59;20955.859;  -27.320;    0.000;20983.17937
 551.87;20972.439;  -25.060;    0.000;20997.49945
 552.15;20966.141;  -29.650;    0.000;20995.79062
 552.43;20981.699;  -17.690;    0.000;20999.38922
 552.71;21050.420;  -26.730;    0.000;21077.14992
 552.99;20991.359;  -27.320;    0.000;21018.67937
 553.27;21015.199;  -33.900;    0.000;21049.09922
 553.55;21012.340;  -29.130;    0.000;21041.46984
 553.83;21044.600;  -34.100;    0.000;21078.69961
 554.11;21112.699;  -29.070;    0.000;21141.76922
 554.39;21104.881;  -17.350;    0.000;21122.23086
 554.67;21095.961;  -31.140;    0.000;21127.10094
 554.95;21142.500;  -15.790;    0.000;21158.29000
 555.23;21055.381;  -19.190;    0.000;21074.57086
 555.51;21025.221;  -23.860;    0.000;21049.08070
 555.79;21026.301;  -26.610;    0.000;21052.91078
 556.07;21058.020;  -33.750;    0.000;21091.76953
 556.35;21038.100;  -33.080;    0.000;21071.17961
 556.63;21076.580;  -23.190;    0.000;21099.77008
 556.91;21118.240;  -20.140;    0.000;21138.38023
 557.19;20982.740;  -33.420;    0.000;21016.16023
 557.47;20893.199;  -26.860;    0.000;20920.05922
 557.75;21040.000;  -27.600;    0.000;21067.60000
 558.03;20985.619;  -23.720;    0.000;21009.33914
 558.31;21091.580;  -32.820;    0.000;21124.40008
 558.59;21013.721;  -28.200;    0.000;21041.92070
 558.87;21071.480;  -31.300;    0.000;21102.78047
 559.15;21061.141;  -29.920;    0.000;21091.06063
 559.43;20991.840;  -31.700;    0.000;21023.53984
 559.71;21114.080;  -29.390;    0.000;21143.47008
 559.99;21013.980;  -29.950;    0.000;21043.93047
 560.27;21021.539;  -31.860;    0.000;21053.39906
 560.55;21025.600;  -27.330;    0.000;21052.92961
 560.82;21012.039;  -30.590;    0.000;21042.62906
 561.10;20999.820;  -35.810;    0.000;21035.63031
 561.38;20960.500;  -27.550;    0.000;20988.05000
 561.66;20972.561;  -27.770;    0.000;21000.33055
 561.94;20850.801;  -36.790;    0.000;20887.59078
 562.22;20838.619;  -29.270;    0.000;20867.88914
 562.50;20923.561;  -25.730;    0.000;20949.29055
 562.78;20887.420;  -28.210;    0.000;20915.62992
 563.06;20810.141;  -32.200;    0.000;20842.34063
 563.34;20832.381;  -32.310;    0.000;20864.69086
 563.62;20740.180;  -26.420;    0.000;20766.59969
 563.90;20691.180;  -33.310;    0.000;20724.48969
 564.18;20682.199;  -30.050;    0.000;20712.24922
 564.46;20708.160;  -33.070;    0.000;20741.23016
 564.74;20657.000;  -26.370;    0.000;20683.37000
 565.01;20681.039;  -34.630;    0.000;20715.66906
 565.29;20602.000;  -30.890;    0.000;20632.89000
 565.57;20496.660;  -27.770;    0.000;20524.43016
 565.85;20555.240;  -26.540;    0.000;20581.78024
 566.13;20482.340;  -35.020;    0.000;20517.35984
 566.41;20440.500;  -27.970;    0.000;20468.47000
 566.69;20422.020;  -26.850;    0.000;20448.86953
 566.97;20392.939;  -35.710;    0.000;20428.64945
 567.25;20379.539;  -26.920;    0.000;20406.45906
 567.53;20320.939;  -31.550;    0.000;20352.48945
 567.80;20268.461;  -29.830;    0.000;20298.29094
 568.08;20283.260;  -23.950;    0.000;20307.20977
 568.36;20140.900;  -39.610;    0.000;20180.51039
 568.64;20120.199;  -31.690;    0.000;20151.88922
 568.92;20071.439;  -24.250;    0.000;20095.68945
 569.20;20037.199;  -32.220;    0.000;20069.41922
 569.48;19987.520;  -33.550;    0.000;20021.06953
 569.76;19935.039;  -41.820;    0.000;19976.85906
 570.03;19928.221;  -26.520;    0.000;19954.74070
 570.31;19875.381;  -33.390;    0.000;19908.77086
 570.59;19877.881;  -29.380;    0.000;19907.26086
 570.87;19754.580;  -30.810;    0.000;19785.39008
 571.15;19749.500;  -35.650;    0.000;19785.15000
 571.43;19685.279;  -28.530;    0.000;19713.80930
 571.71;19572.680;  -40.130;    0.000;19612.80969
 571.98;19573.881;  -30.700;    0.000;19604.58086
 572.26;19568.961;  -33.520;    0.000;19602.48094
 572.54;19474.439;  -36.750;    0.000;19511.18945
 572.82;19360.641;  -35.020;    0.000;19395.66063
 573.10;19358.119;  -32.420;    0.000;19390.53914
 573.38;19342.141;  -33.880;    0.000;19376.02063
 573.66;19222.320;  -34.190;    0.000;19256.51031
 573.93;19134.660;  -33.870;    0.000;19168.53016
 574.21;19060.320;  -31.820;    0.000;19092.14031
 574.49;19146.100;  -31.910;    0.000;19178.00961
 574.77;19032.141;  -29.890;    0.000;19062.03062
 575.05;18984.600;  -22.870;    0.000;19007.46961
 575.33;18887.500;  -31.620;    0.000;18919.12000
 575.60;18952.340;  -29.990;    0.000;18982.32984
 575.88;18747.400;  -30.640;    0.000;18778.04039
 576.16;18744.480;  -31.370;    0.000;18775.85047
 576.44;18680.820;  -30.170;    0.000;18710.99031
 576.72;18658.820;  -30.330;    0.000;18689.15031
 576.99;18542.760;  -35.380;    0.000;18578.13977
 577.27;18419.100;  -32.010;    0.000;18451.10961
 577.55;18410.080;  -20.740;    0.000;18430.82008
 577.83;18285.000;  -38.350;    0.000;18323.35000
 578.11;18271.381;  -30.600;    0.000;18301.98086
 578.38;18204.900;  -33.300;    0.000;18238.20039
 578.66;18157.160;  -33.190;    0.000;18190.35015
 578.94;18042.660;  -34.250;    0.000;18076.91016
 579.22;18027.400;  -36.890;    0.000;18064.29039
 579.50;17993.881;  -16.500;    0.000;18010.38086
 579.77;17918.439;  -27.820;    0.000;17946.25945
 580.05;17773.840;  -33.860;    0.000;17807.69984
 580.33;17682.779;  -36.230;    0.000;17719.00930
 580.61;17692.080;  -31.810;    0.000;17723.89008
 580.88;17580.359;  -31.550;    0.000;17611.90937
 581.16;17542.539;  -30.380;    0.000;17572.91906
 581.44;17483.520;  -26.740;    0.000;17510.25953
 581.72;17353.580;  -36.870;    0.000;17390.45008
 581.99;17350.480;  -28.000;    0.000;17378.48047
 582.27;17218.000;  -32.620;    0.000;17250.62000
 582.55;17084.320;  -39.650;    0.000;17123.97031
 582.83;17092.520;  -31.420;    0.000;17123.93953
 583.10;16978.801;  -34.040;    0.000;17012.84078
 583.38;16923.420;  -33.790;    0.000;16957.20992
 583.66;16821.141;  -23.360;    0.000;16844.50063
 583.94;16742.539;  -37.120;    0.000;16779.65906
 584.21;16675.480;  -36.200;    0.000;16711.68047
 584.49;16615.520;  -31.210;    0.000;16646.72953
 584.77;16464.400;  -41.490;    0.000;16505.89039
 585.05;16471.699;  -41.880;    0.000;16513.57922
 585.32;16332.700;  -40.900;    0.000;16373.60020
 585.60;16214.420;  -35.320;    0.000;16249.73992
 585.88;16215.860;  -36.100;    0.000;16251.96035
 586.16;16074.180;  -33.460;    0.000;16107.63969
 586.43;16027.780;  -23.040;    0.000;16050.82027
 586.71;15957.460;  -33.020;    0.000;15990.47996
 586.99;15828.680;  -38.700;    0.000;15867.37969
 587.26;15757.380;  -39.100;    0.000;15796.47988
 587.54;15668.000;  -29.820;    0.000;15697.82000
 587.82;15573.640;  -31.730;    0.000;15605.36965
 588.10;15507.980;  -35.850;    0.000;15543.83047
 588.37;15369.620;  -41.630;    0.000;15411.25012
 588.65;15336.460;  -32.470;    0.000;15368.92996
 588.93;15240.260;  -32.150;    0.000;15272.40977
 589.20;15151.040;  -34.030;    0.000;15185.07004
 589.48;15105.120;  -34.930;    0.000;15140.05012
 589.76;15000.380;  -15.830;    0.000;15016.20988
 590.03;14847.400;  -40.290;    0.000;14887.69039
 590.31;14834.780;  -33.480;    0.000;14868.26027
 590.59;14701.600;  -33.000;    0.000;14734.59961
 590.86;14596.860;  -31.500;    0.000;14628.36035
 591.14;14487.640;  -37.450;    0.000;14525.08965
 591.42;14455.940;  -37.920;    0.000;14493.86043
 591.70;14399.040;  -32.300;    0.000;14431.34004
 591.97;14284.360;  -26.470;    0.000;14310.83035
 592.25;14213.260;  -31.490;    0.000;14244.74977
 592.53;14071.440;  -39.370;    0.000;14110.81043
 592.80;14049.620;  -30.970;    0.000;14080.59012
 593.08;13908.580;  -28.190;    0.000;13936.77008
 593.36;13850.900;  -33.690;    0.000;13884.59039
 593.63;13754.900;  -28.510;    0.000;13783.41039
 593.91;13627.340;  -39.300;    0.000;13666.63984
 594.18;13524.920;  -30.740;    0.000;13555.65992
 594.46;13509.600;  -37.200;    0.000;13546.79961
 594.74;13385.780;  -35.270;    0.000;13421.05027
 595.01;13249.740;  -39.910;    0.000;13289.65023
 595.29;13174.580;  -37.830;    0.000;13212.41008
 595.57;13142.400;  -30.310;    0.000;13172.71039
 595.84;13039.720;  -34.070;    0.000;13073.78973
 596.12;12984.740;  -35.950;    0.000;13020.69024
 596.40;12839.860;  -47.400;    0.000;12887.26035
 596.67;12819.120;  -33.240;    0.000;12852.36012
 596.95;12677.780;  -31.840;    0.000;12709.62027
 597.22;12568.240;  -42.200;    0.000;12610.44024
 597.50;12526.940;  -33.310;    0.000;12560.25043
 597.78;12448.200;  -35.870;    0.000;12484.07019
 598.05;12334.280;  -42.370;    0.000;12376.65027
 598.33;12264.300;  -31.360;    0.000;12295.65981
 598.61;12140.680;  -34.100;    0.000;12174.77969
 598.88;12115.080;  -43.010;    0.000;12158.09008
 599.16;12047.560;  -38.270;    0.000;12085.82957
 599.43;11947.600;  -44.250;    0.000;11991.84961
 599.71;11866.000;  -31.350;    0.000;11897.35000
 599.99;11771.260;  -40.440;    0.000;11811.69976
 600.26;11624.380;  -34.480;    0.000;11658.85988
 600.54;11583.480;  -35.880;    0.000;11619.36047
 600.81;11482.360;  -30.800;    0.000;11513.16035
 601.09;11402.200;  -38.420;    0.000;11440.62019
 601.36;11331.380;  -43.640;    0.000;11375.01988
 601.64;11201.320;  -36.270;    0.000;11237.59031
 601.92;11166.300;  -40.290;    0.000;11206.58981
 602.19;11075.780;  -43.490;    0.000;11119.27028
 602.47;10946.700;  -41.720;    0.000;10988.42020
 602.74;10956.460;  -33.580;    0.000;10990.03996
 603.02;10864.840;  -30.880;    0.000;10895.71984
 603.29;10796.480;  -30.150;    0.000;10826.63047
 603.57;10708.660;  -38.680;    0.000;10747.34016
 603.85;10660.400;  -36.240;    0.000;10696.64039
 604.12;10554.880;  -25.740;    0.000;10580.61988
 604.40;10473.980;  -37.040;    0.000;10511.02047
 604.67;10391.760;  -31.720;    0.000;10423.47976
 604.95;10346.780;  -36.850;    0.000;10383.63027
 605.22;10222.780;  -36.400;    0.000;10259.18027
 605.50;10186.500;  -42.480;    0.000;10228.98000
 605.77;10153.080;  -37.250;    0.000;10190.33008
 606.05;10067.920;  -39.640;    0.000;10107.55992
 606.33; 9949.980;  -35.100;    0.000;9985.08047
 606.60; 9946.700;  -44.280;    0.000;9990.98019
 606.88; 9807.900;  -33.550;    0.000;9841.45039
 607.15; 9760.720;  -35.810;    0.000;9796.52973
 607.43; 9697.620;  -38.570;    0.000;9736.19012
 607.70; 9683.900;  -33.540;    0.000;9717.44039
 607.98; 9571.700;  -38.040;    0.000;9609.74020
 608.25; 9521.500;  -39.360;    0.000;9560.86000
 608.53; 9449.220;  -46.700;    0.000;9495.91973
 608.80; 9390.860;  -39.200;    0.000;9430.06035
 609.08; 9360.340;  -41.820;    0.000;9402.15984
 609.35; 9246.080;  -35.520;    0.000;9281.60008
 609.63; 9210.680;  -44.390;    0.000;9255.06969
 609.90; 9220.940;  -36.930;    0.000;9257.87043
 610.18; 9141.720;  -28.100;    0.000;9169.81973
 610.45; 9031.540;  -47.230;    0.000;9078.77004
 610.73; 8930.240;  -40.590;    0.000;8970.83023
 611.00; 8943.240;  -28.940;    0.000;8972.18023
 611.28; 8883.480;  -41.770;    0.000;8925.25047
 611.55; 8811.720;  -47.150;    0.000;8858.86973
 611.83; 8797.580;  -42.410;    0.000;8839.99008
 612.10; 8707.440;  -47.870;    0.000;8755.31043
 612.38; 8622.760;  -43.330;    0.000;8666.08977
 612.65; 8627.840;  -38.760;    0.000;8666.59984
 612.93; 8525.660;  -46.440;    0.000;8572.10015
 613.20; 8522.600;  -40.520;    0.000;8563.11961
 613.48; 8415.720;  -42.680;    0.000;8458.39973
 613.75; 8384.580;  -49.140;    0.000;8433.72008
 614.03; 8367.180;  -35.760;    0.000;8402.93969
 614.30; 8292.380;  -49.280;    0.000;8341.65988
 614.57; 8265.200;  -47.070;    0.000;8312.27020
 614.85; 8204.100;  -40.710;    0.000;8244.80961
 615.12; 8199.960;  -40.130;    0.000;8240.08996
 615.40; 8106.080;  -45.350;    0.000;8151.43008
 615.67; 8068.580;  -41.120;    0.000;8109.70008
 615.95; 8025.700;  -42.780;    0.000;8068.48019
 616.22; 7945.400;  -39.310;    0.000;7984.70990
 616.50; 7966.720;  -36.190;    0.000;8002.91021
 616.77; 7865.980;  -39.210;    0.000;7905.18998
 617.05; 7799.540;  -40.130;    0.000;7839.67004
 617.32; 7724.740;  -41.510;    0.000;7766.25023
 617.59; 7700.860;  -39.270;    0.000;7740.12986
 617.87; 7575.380;  -46.440;    0.000;7621.81988
 618.14; 7490.900;  -39.430;    0.000;7530.32990
 618.42; 7371.800;  -48.270;    0.000;7420.06981
 618.69; 7325.880;  -42.280;    0.000;7368.15988
 618.97; 7245.620;  -50.160;    0.000;7295.78012
 619.24; 7191.220;  -46.580;    0.000;7237.80022
 619.51; 7122.960;  -37.650;    0.000;7160.60996
 619.79; 7028.740;  -40.650;    0.000;7069.39024
 620.06; 6869.060;  -36.470;    0.000;6905.53006
 620.34; 6686.160;  -42.190;    0.000;6728.35015
 620.61; 6585.740;  -36.840;    0.000;6622.58023
 620.88; 6590.180;  -52.820;    0.000;6643.00018
 621.16; 6657.980;  -38.520;    0.000;6696.49998
 621.43; 6742.380;  -40.070;    0.000;6782.44988
 621.71; 6771.360;  -40.440;    0.000;6811.79986
 621.98; 6680.840;  -42.920;    0.000;6723.75984
 622.25; 6568.880;  -42.110;    0.000;6610.98988
 622.53; 6611.040;  -43.900;    0.000;6654.94004
 622.80; 6536.280;  -48.280;    0.000;6584.55978
 623.08; 6504.680;  -48.410;    0.000;6553.09018
 623.35; 6432.620;  -42.130;    0.000;6474.75012
 623.62; 6400.580;  -41.870;    0.000;6442.45008
 623.90; 6364.120;  -44.400;    0.000;6408.52012
 624.17; 6334.380;  -45.690;    0.000;6380.06988
 624.44; 6258.980;  -37.610;    0.000;6296.58998
 624.72; 6243.280;  -46.110;    0.000;6289.38979
 624.99; 6197.920;  -46.780;    0.000;6244.69992
 625.26; 6234.400;  -48.840;    0.000;6283.23990
 625.54; 6280.400;  -34.500;    0.000;6314.89990
 625.81; 6301.180;  -39.400;    0.000;6340.58018
 626.09; 6272.280;  -42.260;    0.000;6314.53978
 626.36; 6276.300;  -45.970;    0.000;6322.26981
 626.63; 6178.960;  -41.260;    0.000;6220.21996
 626.91; 6220.740;  -45.500;    0.000;6266.24023
 627.18; 6196.220;  -36.360;    0.000;6232.58022
 627.45; 6168.500;  -44.240;    0.000;6212.74000
 627.73; 6151.660;  -37.730;    0.000;6189.39016
 628.00; 6124.240;  -50.130;    0.000;6174.37024
 628.27; 6103.820;  -40.330;    0.000;6144.14983
 628.55; 6048.500;  -44.630;    0.000;6093.13000
 628.82; 6056.880;  -48.870;    0.000;6105.74988
 629.09; 6029.420;  -49.850;    0.000;6079.26992
 629.37; 6005.260;  -48.480;    0.000;6053.73977
 629.64; 6030.480;  -48.280;    0.000;6078.75998
 629.91; 5961.920;  -45.620;    0.000;6007.53992
 630.18; 5974.860;  -51.830;    0.000;6026.68987
 630.46; 6007.920;  -36.850;    0.000;6044.76992
 630.73; 5939.820;  -39.860;    0.000;5979.67982
 631.00; 5915.340;  -47.900;    0.000;5963.23985
 631.28; 5874.120;  -49.040;    0.000;5923.16012
 631.55; 5866.760;  -43.760;    0.000;5910.51976
 631.82; 5830.080;  -44.290;    0.000;5874.37008
 632.10; 5794.240;  -39.890;    0.000;5834.13023
 632.37; 5763.640;  -43.540;    0.000;5807.18014
 632.64; 5777.620;  -40.290;    0.000;5817.91012
 632.91; 5779.440;  -40.250;    0.000;5819.68994
 633.19; 5761.960;  -41.720;    0.000;5803.67996
 633.46; 5680.480;  -51.730;    0.000;5732.20998
 633.73; 5668.320;  -38.000;    0.000;5706.31982
 634.01; 5628.640;  -45.300;    0.000;5673.94014
 634.28; 5666.520;  -41.280;    0.000;5707.80002
 634.55; 5622.460;  -41.150;    0.000;5663.60996
 634.82; 5636.360;  -47.530;    0.000;5683.88986
 635.10; 5607.980;  -39.270;    0.000;5647.24998
 635.37; 5598.200;  -47.120;    0.000;5645.32019
 635.64; 5588.500;  -54.360;    0.000;5642.86000
 635.91; 5536.660;  -48.020;    0.000;5584.68016
 636.19; 5575.420;  -44.600;    0.000;5620.01992
 636.46; 5565.160;  -48.800;    0.000;5613.96016
 636.73; 5616.440;  -39.570;    0.000;5656.00994
 637.00; 5574.000;  -42.160;    0.000;5616.16000
 637.28; 5580.900;  -50.320;    0.000;5631.21990
 637.55; 5579.860;  -43.570;    0.000;5623.42986
 637.82; 5502.840;  -46.760;    0.000;5549.59984
 638.09; 5419.680;  -39.060;    0.000;5458.74018
 638.37; 5288.540;  -46.470;    0.000;5335.01004
 638.64; 5309.100;  -47.310;    0.000;5356.41010
 638.91; 5281.020;  -41.310;    0.000;5322.33002
 639.18; 5244.400;  -43.470;    0.000;5287.86990
 639.46; 5208.520;  -48.390;    0.000;5256.91002
 639.73; 5181.720;  -39.780;    0.000;5221.50021
 640.00; 5153.700;  -45.530;    0.000;5199.23019
 640.27; 5141.000;  -46.560;    0.000;5187.56000
 640.54; 5092.800;  -51.660;    0.000;5144.45980
 640.82; 5077.280;  -48.560;    0.000;5125.83979
 641.09; 5002.680;  -48.760;    0.000;5051.44017
 641.36; 4975.900;  -46.200;    0.000;5022.09990
 641.63; 4909.760;  -55.600;    0.000;4965.35976
 641.91; 4873.000;  -46.400;    0.000;4919.40000
 642.18; 4855.280;  -52.210;    0.000;4907.48978
 642.45; 4752.780;  -52.490;    0.000;4805.26979
 642.72; 4707.960;  -53.360;    0.000;4761.31996
 642.99; 4683.700;  -36.570;    0.000;4720.27020
 643.26; 4640.200;  -47.650;    0.000;4687.85020
 643.54; 4613.740;  -40.710;    0.000;4654.45023
 643.81; 4606.540;  -55.630;    0.000;4662.17004
 644.08; 4547.780;  -47.930;    0.000;4595.70979
 644.35; 4526.060;  -48.850;    0.000;4574.91006
 644.62; 4479.660;  -49.000;    0.000;4528.66016
 644.90; 4459.400;  -43.820;    0.000;4503.21990
 645.17; 4390.500;  -51.370;    0.000;4441.87000
 645.44; 4400.840;  -47.130;    0.000;4447.96984
 645.71; 4358.980;  -49.200;    0.000;4408.17998
 645.98; 4329.560;  -46.690;    0.000;4376.25006
 646.25; 4279.080;  -46.940;    0.000;4326.02008
 646.53; 4254.820;  -50.370;    0.000;4305.18982
 646.80; 4258.660;  -42.780;    0.000;4301.44016
 647.07; 4237.500;  -59.170;    0.000;4296.67000
 647.34; 4176.620;  -47.590;    0.000;4224.21012
 647.61; 4202.740;  -45.690;    0.000;4248.43023
 647.88; 4155.040;  -38.410;    0.000;4193.45004
 648.15; 4091.040;  -51.900;    0.000;4142.94004
 648.43; 4099.740;  -52.460;    0.000;4152.20023
 648.70; 4055.420;  -50.870;    0.000;4106.28992
 648.97; 4053.300;  -44.090;    0.000;4097.39005
 649.24; 4037.720;  -46.570;    0.000;4084.28997
 649.51; 3990.700;  -56.440;    0.000;4047.13995
 649.78; 3949.900;  -48.510;    0.000;3998.40990
 650.05; 3931.740;  -44.310;    0.000;3976.04999
 650.32; 3977.420;  -21.090;    0.000;3998.50992
 650.60; 3906.360;  -47.320;    0.000;3953.68011
 650.87; 3869.040;  -50.640;    0.000;3919.68004
 651.14; 3842.200;  -54.410;    0.000;3896.60995
 651.41; 3811.720;  -54.500;    0.000;3866.21997
 651.68; 3823.380;  -50.510;    0.000;3873.88988
 651.95; 3798.240;  -48.670;    0.000;3846.90999
 652.22; 3769.480;  -53.000;    0.000;3822.47998
 652.49; 3723.420;  -58.480;    0.000;3781.89992
 652.76; 3687.020;  -53.540;    0.000;3740.56002
 653.03; 3676.440;  -48.460;    0.000;3724.89994
 653.31; 3652.240;  -50.850;    0.000;3703.08999
 653.58; 3637.380;  -50.660;    0.000;3688.03988
 653.85; 3576.980;  -53.770;    0.000;3630.74998
 654.12; 3605.520;  -52.700;    0.000;3658.22002
 654.39; 3545.800;  -49.080;    0.000;3594.88005
 654.66; 3576.080;  -44.350;    0.000;3620.43008
 654.93; 3542.060;  -40.020;    0.000;3582.08006
 655.20; 3490.440;  -51.700;    0.000;3542.13994
 655.47; 3456.400;  -52.020;    0.000;3508.41990
 655.74; 3451.100;  -46.170;    0.000;3497.27010
 656.01; 3455.220;  -53.270;    0.000;3508.48997
 656.28; 3410.420;  -53.920;    0.000;3464.33992
 656.55; 3360.500;  -44.780;    0.000;3405.28000
 656.83; 3335.840;  -54.700;    0.000;3390.54009
 657.10; 3335.820;  -54.950;    0.000;3390.77007
 657.37; 3277.980;  -45.470;    0.000;3323.44998
 657.64; 3300.580;  -50.040;    0.000;3350.62008
 657.91; 3289.380;  -54.530;    0.000;3343.90988
 658.18; 3256.320;  -48.090;    0.000;3304.41007
 658.45; 3236.380;  -53.800;    0.000;3290.17988
 658.72; 3196.740;  -49.560;    0.000;3246.29999
 658.99; 3178.900;  -52.810;    0.000;3231.70990
 659.26; 3213.420;  -44.460;    0.000;3257.87992
 659.53; 3151.940;  -53.390;    0.000;3205.32994
 659.80; 3158.820;  -50.980;    0.000;3209.80007
 660.07; 3114.220;  -41.400;    0.000;3155.61997
 660.34; 3106.940;  -52.590;    0.000;3159.52994
 660.61; 3075.680;  -54.010;    0.000;3129.68993
 660.88; 3050.540;  -49.010;    0.000;3099.55004
 661.15; 3061.540;  -45.510;    0.000;3107.05004
 661.42; 2991.680;  -52.000;    0.000;3043.67993
 661.69; 2975.660;  -51.660;    0.000;3027.31991
 661.96; 2969.780;  -53.540;    0.000;3023.32003
 662.23; 2980.480;  -54.210;    0.000;3034.68998
 662.50; 2908.600;  -55.200;    0.000;2963.80010
 662.77; 2918.360;  -57.340;    0.000;2975.70011
 663.04; 2881.480;  -55.460;    0.000;2936.93998
 663.31; 2840.260;  -53.020;    0.000;2893.28001
 663.58; 2837.100;  -53.790;    0.000;2890.89010
 663.85; 2848.100;  -48.190;    0.000;2896.29010
 664.12; 2815.100;  -49.170;    0.000;2864.27010
 664.39; 2780.340;  -57.490;    0.000;2837.83009
 664.66; 2755.840;  -56.420;    0.000;2812.26009
 664.93; 2751.400;  -57.810;    0.000;2809.20990
 665.20; 2742.040;  -45.510;    0.000;2787.55004
 665.47; 2729.220;  -47.500;    0.000;2776.71997
 665.74; 2711.080;  -56.240;    0.000;2767.32008
 666.01; 2703.100;  -52.970;    0.000;2756.07010
 666.28; 2688.400;  -53.610;    0.000;2742.00990
 666.55; 2645.880;  -48.340;    0.000;2694.21988
 666.82; 2625.040;  -58.560;    0.000;2683.60004
 667.09; 2621.740;  -54.770;    0.000;2676.50999
 667.36; 2594.400;  -51.960;    0.000;2646.35990
 667.63; 2606.340;  -48.120;    0.000;2654.46009
 667.90; 2561.840;  -50.500;    0.000;2612.34009
 668.16; 2547.700;  -51.760;    0.000;2599.45995
 668.43; 2505.260;  -52.290;    0.000;2557.55001
 668.70; 2514.040;  -50.190;    0.000;2564.23004
 668.97; 2466.880;  -54.900;    0.000;2521.77988
 669.24; 2469.120;  -50.670;    0.000;2519.79012
 669.51; 2431.060;  -47.280;    0.000;2478.34006
 669.78; 2414.800;  -57.020;    0.000;2471.82005
 670.05; 2426.240;  -53.780;    0.000;2480.01999
 670.32; 2418.820;  -47.630;    0.000;2466.45007
 670.59; 2354.940;  -59.380;    0.000;2414.31994
 670.86; 2356.560;  -54.490;    0.000;2411.05006
 671.13; 2333.700;  -53.370;    0.000;2387.06995
 671.40; 2328.200;  -52.030;    0.000;2380.22995
 671.67; 2329.240;  -50.040;    0.000;2379.27999
 671.93; 2299.160;  -55.350;    0.000;2354.50991
 672.20; 2268.060;  -58.000;    0.000;2326.06006
 672.47; 2264.260;  -49.890;    0.000;2314.15001
 672.74; 2228.580;  -48.940;    0.000;2277.52008
 673.01; 2210.680;  -62.990;    0.000;2273.66993
 673.28; 2217.080;  -53.910;    0.000;2270.99008
 673.55; 2199.440;  -54.610;    0.000;2254.04994
 673.82; 2165.420;  -51.100;    0.000;2216.51992
 674.09; 2157.440;  -52.250;    0.000;2209.68994
 674.35; 2116.920;  -58.740;    0.000;2175.65992
 674.62; 2135.660;  -44.900;    0.000;2180.55991
 674.89; 2121.940;  -53.110;    0.000;2175.04994
 675.16; 2123.160;  -47.910;    0.000;2171.06991
 675.43; 2083.700;  -52.020;    0.000;2135.71995
 675.70; 2127.820;  -36.370;    0.000;2164.19007
 675.97; 2066.400;  -55.340;    0.000;2121.73990
 676.24; 2037.220;  -47.960;    0.000;2085.17997
 676.50; 2018.980;  -59.330;    0.000;2078.30998
 676.77; 1997.380;  -60.020;    0.000;2057.40001
 677.04; 2012.480;  -47.110;    0.000;2059.58998
 677.31; 1974.960;  -55.920;    0.000;2030.87996
 677.58; 1975.760;  -52.120;    0.000;2027.88001
 677.85; 1954.040;  -48.990;    0.000;2003.03004
 678.12; 1942.180;  -52.160;    0.000;1994.34005
 678.38; 1910.760;  -54.140;    0.000;1964.90001
 678.65; 1903.060;  -60.680;    0.000;1963.74006
 678.92; 1895.000;  -53.340;    0.000;1948.34000
 679.19; 1900.820;  -39.870;    0.000;1940.68995
 679.46; 1878.160;  -46.760;    0.000;1924.92003
 679.73; 1871.500;  -59.180;    0.000;1930.68000
 679.99; 1810.580;  -56.270;    0.000;1866.84996
 680.26; 1803.760;  -54.520;    0.000;1858.28001
 680.53; 1817.860;  -59.650;    0.000;1877.50999
 680.80; 1798.420;  -56.750;    0.000;1855.17004
 681.07; 1775.380;  -55.340;    0.000;1830.72001
 681.33; 1785.800;  -54.670;    0.000;1840.47005
 681.60; 1746.740;  -52.230;    0.000;1798.96999
 681.87; 1738.120;  -54.620;    0.000;1792.73999
 682.14; 1737.420;  -52.270;    0.000;1789.69004
 682.41; 1697.480;  -57.990;    0.000;1755.46998
 682.67; 1709.600;  -50.450;    0.000;1760.04998
 682.94; 1671.660;  -59.360;    0.000;1731.02003
 683.21; 1653.960;  -53.700;    0.000;1707.65996
 683.48; 1641.860;  -55.450;    0.000;1697.30999
 683.75; 1663.020;  -47.950;    0.000;1710.97002
 684.01; 1679.900;  -46.370;    0.000;1726.27002
 684.28; 1604.220;  -57.410;    0.000;1661.62997
 684.55; 1642.020;  -54.400;    0.000;1696.42002
 684.82; 1585.120;  -62.610;    0.000;1647.73000
 685.09; 1590.300;  -45.320;    0.000;1635.62005
 685.35; 1588.960;  -50.950;    0.000;1639.90996
 685.62; 1577.660;  -53.810;    0.000;1631.47004
 685.89; 1580.300;  -50.790;    0.000;1631.09005
 686.16; 1527.000;  -60.890;    0.000;1587.89000
 686.42; 1529.620;  -53.860;    0.000;1583.48000
 686.69; 1539.320;  -49.770;    0.000;1589.08995
 686.96; 1514.400;  -58.350;    0.000;1572.75002
 687.23; 1517.260;  -53.370;    0.000;1570.63001
 687.49; 1497.500;  -46.350;    0.000;1543.85000
 687.76; 1453.700;  -56.190;    0.000;1509.88995
 688.03; 1469.000;  -57.270;    0.000;1526.27000
 688.30; 1442.580;  -63.910;    0.000;1506.48996
 688.56; 1431.700;  -49.760;    0.000;1481.45995
 688.83; 1439.040;  -58.260;    0.000;1497.30004
 689.10; 1411.100;  -59.880;    0.000;1470.97998
 689.37; 1399.580;  -60.250;    0.000;1459.82996
 689.63; 1393.740;  -58.120;    0.000;1451.85999
 689.90; 1384.580;  -42.960;    0.000;1427.53996
 690.17; 1355.620;  -57.170;    0.000;1412.78999
 690.44; 1353.760;  -53.100;    0.000;1406.86001
 690.70; 1341.880;  -64.370;    0.000;1406.25001
 690.97; 1331.280;  -52.060;    0.000;1383.34003
 691.24; 1348.760;  -45.640;    0.000;1394.40001
 691.50; 1302.420;  -63.810;    0.000;1366.23005
 691.77; 1291.820;  -61.380;    0.000;1353.19995
 692.04; 1287.120;  -50.390;    0.000;1337.50999
 692.30; 1258.580;  -61.100;    0.000;1319.67995
 692.57; 1261.300;  -55.730;    0.000;1317.03005
 692.84; 1265.380;  -60.990;    0.000;1326.37001
 693.11; 1246.160;  -51.860;    0.000;1298.02003
 693.37; 1228.440;  -50.850;    0.000;1279.28994
 693.64; 1211.220;  -63.550;    0.000;1274.76997
 693.91; 1204.960;  -52.450;    0.000;1257.40996
 694.17; 1201.200;  -52.150;    0.000;1253.34995
 694.44; 1184.780;  -55.600;    0.000;1240.38003
 694.71; 1159.240;  -66.220;    0.000;1225.45999
 694.97; 1173.340;  -60.180;    0.000;1233.51997
 695.24; 1136.600;  -60.420;    0.000;1197.01997
 695.51; 1115.080;  -64.250;    0.000;1179.32996
 695.77; 1143.680;  -53.070;    0.000;1196.75005
 696.04; 1121.660;  -57.450;    0.000;1179.11003
 696.31; 1098.380;  -55.850;    0.000;1154.23000
 696.57; 1117.800;  -48.360;    0.000;1166.16005
 696.84; 1078.940;  -56.540;    0.000;1135.47994
 697.11; 1086.980;  -49.450;    0.000;1136.42998
 697.37; 1072.620;  -52.390;    0.000;1125.00999
 697.64; 1042.200;  -50.550;    0.000;1092.74995
 697.91; 1030.240;  -63.040;    0.000;1093.27999
 698.17; 1023.500;  -58.460;    0.000;1081.96000
 698.44; 1023.960;  -54.420;    0.000;1078.38002
 698.71; 1009.440;  -60.630;    0.000;1070.07000
 698.97;  985.220;  -56.130;    0.000;1041.34997
 699.24;  996.680;  -57.190;    0.000;1053.86999
 699.50;  951.920;  -63.610;    0.000;1015.52998
 699.77;  957.780;  -63.480;    0.000;1021.26003
 700.04;  949.800;  -56.390;    0.000;1006.18999
 700.30;  934.900;  -57.580;    0.000;992.48003
 700.57;  915.240;  -57.160;    0.000;972.39999
 700.84;  908.200;  -52.700;    0.000;960.90001
 701.10;  879.580;  -55.650;    0.000;935.23002
 701.37;  890.700;  -57.060;    0.000;947.76001
 701.63;  853.140;  -60.840;    0.000;913.98001
 701.90;  882.360;  -55.460;    0.000;937.81998
 702.17;  880.580;  -46.530;    0.000;927.11002
 702.43;  839.100;  -56.900;    0.000;895.99998
 702.70;  856.360;  -43.080;    0.000;899.43999
 702.96;  814.300;  -57.550;    0.000;871.84999
 703.23;  793.500;  -63.900;    0.000;857.40000
 703.50;  797.600;  -57.740;    0.000;855.33998
 703.76;  790.180;  -60.140;    0.000;850.31999
 704.03;  772.860;  -62.000;    0.000;834.85999
 704.29;  753.080;  -56.620;    0.000;809.70002
 704.56;  742.700;  -66.340;    0.000;809.04001
 704.82;  735.040;  -61.140;    0.000;796.17998
 705.09;  731.780;  -50.240;    0.000;782.02003
 705.36;  705.440;  -63.730;    0.000;769.17000
 705.62;  736.660;  -45.100;    0.000;781.75997
 705.89;  696.800;  -57.710;    0.000;754.50999
 706.15;  667.320;  -52.660;    0.000;719.98001
 706.42;  665.060;  -49.750;    0.000;714.81000
 706.68;  647.020;  -59.540;    0.000;706.56002
 706.95;  635.280;  -55.380;    0.000;690.66003
 707.21;  624.760;  -63.590;    0.000;688.35001
 707.48;  631.140;  -61.770;    0.000;692.91002
 707.75;  613.480;  -54.600;    0.000;668.07998
 708.01;  595.360;  -64.580;    0.000;659.93999
 708.28;  604.100;  -55.470;    0.000;659.56998
 708.54;  588.200;  -64.490;    0.000;652.69001
 708.81;  592.460;  -52.630;    0.000;645.09002
 709.07;  580.280;  -58.430;    0.000;638.71003
 709.34;  570.980;  -63.150;    0.000;634.12998
 709.60;  547.040;  -59.760;    0.000;606.79998
 709.87;  553.260;  -51.730;    0.000;604.99001
 710.13;  526.760;  -58.250;    0.000;585.01001
 710.40;  532.820;  -67.870;    0.000;600.69001
 710.66;  517.540;  -58.170;    0.000;575.70998
 710.93;  525.000;  -58.390;    0.000;583.39000
 711.19;  507.420;  -60.660;    0.000;568.08001
 711.46;  509.960;  -53.110;    0.000;563.06999
 711.72;  491.700;  -53.100;    0.000;544.80001
 711.99;  495.460;  -64.700;    0.000;560.15999
 712.25;  480.920;  -54.480;    0.000;535.40001
 712.52;  497.040;  -51.400;    0.000;548.44001
 712.78;  492.200;  -54.830;    0.000;547.03001
 713.05;  457.800;  -61.310;    0.000;519.10999
 713.31;  461.160;  -54.880;    0.000;516.04000
 713.58;  460.620;  -56.790;    0.000;517.41000
 713.84;  450.560;  -53.100;    0.000;503.66000
 714.11;  444.580;  -62.430;    0.000;507.00999
 714.37;  449.040;  -52.180;    0.000;501.22001
 714.64;  425.360;  -54.400;    0.000;479.75999
 714.90;  436.860;  -53.310;    0.000;490.16999
 715.17;  422.840;  -57.550;    0.000;480.39000
 715.43;  428.780;  -50.260;    0.000;479.04000
 715.70;  413.680;  -55.710;    0.000;469.38999
 715.96;  415.660;  -54.690;    0.000;470.35000
 716.22;  403.440;  -61.380;    0.000;464.82000
 716.49;  388.760;  -58.790;    0.000;447.55001
 716.75;  390.940;  -62.550;    0.000;453.49000
 717.02;  398.560;  -58.140;    0.000;456.70000
 717.28;  384.480;  -63.690;    0.000;448.17001
 717.55;  381.580;  -62.720;    0.000;444.29999
 717.81;  399.420;  -56.110;    0.000;455.53001
 718.08;  382.680;  -58.860;    0.000;441.53999
 718.34;  384.480;  -65.190;    0.000;449.67001
 718.60;  388.900;  -51.960;    0.000;440.85999
 718.87;  387.100;  -58.480;    0.000;445.58001
 719.13;  386.120;  -63.390;    0.000;449.50999
 719.40;  370.840;  -57.650;    0.000;428.49000
 719.66;  362.080;  -60.260;    0.000;422.33998
 719.93;  375.160;  -56.900;    0.000;432.06001
 720.19;  347.020;  -67.380;    0.000;414.39999
 720.45;  357.500;  -62.750;    0.000;420.25000
 720.72;  373.400;  -57.950;    0.000;431.34999
 720.98;  386.380;  -55.200;    0.000;441.58001
 721.25;  358.860;  -64.310;    0.000;423.16998
 721.51;  366.120;  -68.290;    0.000;434.41000
 721.77;  362.780;  -60.350;    0.000;423.13000
 722.04;  385.000;  -45.030;    0.000;430.03000
 722.30;  367.320;  -55.770;    0.000;423.09001
 722.57;  358.260;  -60.430;    0.000;418.69001
 722.83;  353.320;  -62.410;    0.000;415.73001
 723.09;  349.900;  -64.170;    0.000;414.06999
 723.36;  335.320;  -64.180;    0.000;399.50001
 723.62;  367.480;  -58.620;    0.000;426.10001
 723.88;  350.200;  -56.860;    0.000;407.06001
 724.15;  355.000;  -56.520;    0.000;411.52000
 724.41;  343.640;  -63.620;    0.000;407.26001
 724.68;  345.240;  -62.790;    0.000;408.02999
 724.94;  366.440;  -49.670;    0.000;416.11000
 725.20;  346.760;  -59.760;    0.000;406.52001
 725.47;  343.500;  -61.790;    0.000;405.29000
 725.73;  360.260;  -57.560;    0.000;417.82001
 725.99;  334.140;  -62.280;    0.000;396.42001
 726.26;  348.840;  -48.740;    0.000;397.58000
 726.52;  348.480;  -52.300;    0.000;400.78001
 726.78;  348.700;  -64.050;    0.000;412.75002
 727.05;  342.600;  -58.610;    0.000;401.21001
 727.31;  329.660;  -65.490;    0.000;395.15000
 727.57;  342.480;  -61.120;    0.000;403.60001
 727.84;  361.480;  -54.090;    0.000;415.57001
 728.10;  326.880;  -57.090;    0.000;383.97001
 728.36;  337.940;  -62.130;    0.000;400.07000
 728.63;  328.120;  -64.770;    0.000;392.88999
 728.89;  316.320;  -68.210;    0.000;384.53001
 729.15;  320.620;  -60.940;    0.000;381.55999
 729.42;  315.180;  -64.380;    0.000;379.55999
 729.68;  323.420;  -59.120;    0.000;382.54001
 729.94;  294.220;  -61.710;    0.000;355.93000
 730.21;  315.040;  -63.750;    0.000;378.79001
 730.47;  312.580;  -65.420;    0.000;377.99998
 730.73;  319.160;  -62.120;    0.000;381.28000
 731.00;  324.380;  -57.710;    0.000;382.09000
 731.26;  308.620;  -55.830;    0.000;364.45000
 731.52;  319.400;  -65.480;    0.000;384.88000
 731.78;  289.420;  -64.150;    0.000;353.57001
 732.05;  296.720;  -63.760;    0.000;360.48000
 732.31;  291.980;  -66.150;    0.000;358.13001
 732.57;  306.380;  -62.040;    0.000;368.42001
 732.84;  287.880;  -65.060;    0.000;352.94000
 733.10;  300.520;  -61.680;    0.000;362.19999
 733.36;  278.980;  -65.560;    0.000;344.54001
 733.62;  293.340;  -68.590;    0.000;361.92999
 733.89;  279.460;  -60.690;    0.000;340.14999
 734.15;  283.760;  -62.020;    0.000;345.78001
 734.41;  291.760;  -59.170;    0.000;350.93001
 734.67;  287.540;  -65.610;    0.000;353.15001
 734.94;  272.840;  -64.100;    0.000;336.93999
 735.20;  300.280;  -64.260;    0.000;364.54000
 735.46;  289.660;  -61.760;    0.000;351.42000
 735.73;  287.100;  -62.280;    0.000;349.38000
 735.99;  262.660;  -63.580;    0.000;326.24001
 736.25;  260.780;  -65.330;    0.000;326.11000
 736.51;  266.260;  -64.780;    0.000;331.04001
 736.77;  261.880;  -59.870;    0.000;321.75000
 737.04;  261.960;  -62.400;    0.000;324.35999
 737.30;  259.860;  -60.030;    0.000;319.88998
 737.56;  254.160;  -57.690;    0.000;311.85000
 737.82;  261.840;  -62.400;    0.000;324.24000
 738.09;  244.980;  -61.080;    0.000;306.06000
 738.35;  245.820;  -65.060;    0.000;310.88000
 738.61;  244.720;  -60.770;    0.000;305.49000
 738.87;  247.680;  -61.660;    0.000;309.33999
 739.14;  244.000;  -59.450;    0.000;303.45000
 739.40;  236.240;  -66.620;    0.000;302.86001
 739.66;  238.980;  -65.480;    0.000;304.46000
 739.92;  223.360;  -64.110;    0.000;287.47000
 740.18;  231.100;  -58.910;    0.000;290.01001
 740.45;  224.020;  -66.570;    0.000;290.59000
 740.71;  236.360;  -64.190;    0.000;300.55000
 740.97;  231.580;  -61.620;    0.000;293.20000
 741.23;  211.240;  -64.440;    0.000;275.68001
 741.49;  232.000;  -61.870;    0.000;293.87000
 741.76;  208.900;  -69.670;    0.000;278.56999
 742.02;  219.580;  -70.580;    0.000;290.16000
 742.28;  216.920;  -67.810;    0.000;284.73000
 742.54;  225.240;  -67.320;    0.000;292.56001
 742.80;  210.100;  -66.940;    0.000;277.04001
 743.06;  230.940;  -60.220;    0.000;291.16000
 743.33;  208.280;  -60.250;    0.000;268.53000
 743.59;  194.340;  -71.210;    0.000;265.55000
 743.85;  196.360;  -63.280;    0.000;259.64000
 744.11;  196.600;  -65.520;    0.000;262.12000
 744.37;  208.840;  -63.300;    0.000;272.14000
 744.63;  201.520;  -62.430;    0.000;263.95000
 744.90;  182.020;  -61.300;    0.000;243.32000
 745.16;  195.140;  -61.400;    0.000;256.54000
 745.42;  187.300;  -69.410;    0.000;256.71001
 745.68;  193.660;  -62.770;    0.000;256.43000
 745.94;  201.460;  -54.740;    0.000;256.20001
 746.20;  186.180;  -62.940;    0.000;249.11999
 746.46;  183.920;  -58.490;    0.000;242.41000
 746.72;  197.420;  -60.020;    0.000;257.44000
 746.99;  172.300;  -59.340;    0.000;231.64000
 747.25;  198.980;  -54.110;    0.000;253.09000
 747.51;  183.960;  -63.240;    0.000;247.20001
 747.77;  171.200;  -66.010;    0.000;237.21000
 748.03;  165.120;  -65.590;    0.000;230.70999
 748.29;  173.520;  -63.300;    0.000;236.82000
 748.55;  157.960;  -63.610;    0.000;221.57001
 748.81;  161.080;  -65.400;    0.000;226.48000
 749.08;  157.680;  -61.140;    0.000;218.81999
 749.34;  173.060;  -61.020;    0.000;234.08000
 749.60;  165.580;  -61.090;    0.000;226.67000
 749.86;  184.060;  -62.460;    0.000;246.52000
 750.12;  145.900;  -58.080;    0.000;203.98000
 750.38;  164.580;  -66.740;    0.000;231.32000
 750.64;  139.100;  -64.990;    0.000;204.09000
 750.90;  154.080;  -61.010;    0.000;215.09000
 751.16;  128.060;  -66.030;    0.000;194.09000
 751.42;  139.380;  -63.820;    0.000;203.20000
 751.68;  144.800;  -57.490;    0.000;202.29000
 751.95;  139.140;  -66.360;    0.000;205.50000
 752.21;  138.660;  -68.570;    0.000;207.23000
 752.47;  132.060;  -59.310;    0.000;191.37000
 752.73;  115.680;  -72.150;    0.000;187.83000
 752.99;  122.120;  -62.330;    0.000;184.45000
 753.25;  116.100;  -68.210;    0.000;184.31000
 753.51;  122.760;  -66.540;    0.000;189.30000
 753.77;  109.660;  -65.250;    0.000;174.91000
 754.03;  108.180;  -63.310;    0.000;171.49000
 754.29;  106.960;  -69.830;    0.000;176.79000
 754.55;  111.780;  -73.220;    0.000;185.00000
 754.81;  104.200;  -65.730;    0.000;169.93000
 755.07;  120.320;  -60.480;    0.000;180.80000
 755.33;  116.900;  -68.640;    0.000;185.54000
 755.59;   99.560;  -69.750;    0.000;169.31000
 755.85;  105.040;  -61.550;    0.000;166.59000
 756.11;  114.140;  -66.180;    0.000;180.32000
 756.37;   95.720;  -68.200;    0.000;163.92000
 756.63;  119.400;  -52.880;    0.000;172.28000
 756.89;   91.360;  -77.540;    0.000;168.90000
 757.15;   94.340;  -67.220;    0.000;161.56000
 757.41;  112.960;  -51.850;    0.000;164.81000
 757.68;   94.660;  -69.940;    0.000;164.60001
 757.94;   96.320;  -61.100;    0.000;157.42000
 758.20;  101.280;  -60.850;    0.000;162.13000
 758.46;   80.100;  -65.120;    0.000;145.22000
 758.72;   84.400;  -70.550;    0.000;154.95000
 758.98;   87.960;  -58.450;    0.000;146.41000
 759.24;   94.540;  -62.840;    0.000;157.38000
 759.50;   96.460;  -60.370;    0.000;156.83000
 759.76;   95.980;  -58.150;    0.000;154.13000
 760.02;   77.320;  -64.840;    0.000;142.16000
 760.27;   87.260;  -64.360;    0.000;151.62000
 760.53;   84.220;  -61.770;    0.000;145.99000
 760.79;   80.860;  -58.420;    0.000;139.28000
 761.05;   68.880;  -59.730;    0.000;128.61000
 761.31;   87.780;  -68.970;    0.000;156.75000
 761.57;   94.560;  -64.760;    0.000;159.32000
 761.83;   67.140;  -63.850;    0.000;130.99000
 762.09;   60.240;  -60.800;    0.000;121.04000
 762.35;   72.020;  -73.160;    0.000;145.18000
 762.61;   73.100;  -65.790;    0.000;138.89000
 762.87;   79.040;  -64.790;    0.000;143.83000
 763.13;   51.160;  -65.200;    0.000;116.36000
 763.39;   89.760;  -58.510;    0.000;148.27000
 763.65;   68.820;  -65.790;    0.000;134.61000
 763.91;   62.860;  -68.850;    0.000;131.71000
 764.17;   65.680;  -61.550;    0.000;127.23000
 764.43;   75.140;  -65.120;    0.000;140.26000
 764.69;   60.640;  -67.690;    0.000;128.33000
 764.95;   76.540;  -65.290;    0.000;141.83000
 765.21;   47.060;  -64.710;    0.000;111.77000
 765.47;   60.520;  -60.070;    0.000;120.59000
 765.73;   54.820;  -63.090;    0.000;117.91000
 765.98;   71.500;  -62.060;    0.000;133.56000
 766.24;   50.280;  -71.710;    0.000;121.99000
 766.50;   48.800;  -70.390;    0.000;119.19000
 766.76;   55.380;  -59.140;    0.000;114.52000
 767.02;   46.100;  -67.650;    0.000;113.75000
 767.28;   42.460;  -62.770;    0.000;105.23000
 767.54;   49.960;  -65.130;    0.000;115.09000
 767.80;   51.500;  -67.980;    0.000;119.48000
 768.06;   71.640;  -57.150;    0.000;128.79000
 768.32;   53.280;  -55.090;    0.000;108.37000
 768.58;   45.300;  -72.460;    0.000;117.76000
 768.83;   37.300;  -67.770;    0.000;105.07000
 769.09;   50.840;  -63.610;    0.000;114.45000
 769.35;   42.740;  -63.310;    0.000;106.05000
 769.61;   44.200;  -65.500;    0.000;109.70000
 769.87;   46.120;  -60.230;    0.000;106.35000
 770.13;   51.380;  -65.920;    0.000;117.30000
 770.39;   17.060;  -67.330;    0.000;84.39000
 770.65;   41.400;  -65.630;    0.000;107.03000
 770.90;   33.960;  -71.040;    0.000;105.00000
 771.16;   22.220;  -65.650;    0.000;87.87000
 771.42;   41.400;  -60.610;    0.000;102.01000
 771.68;   29.220;  -72.120;    0.000;101.34000
 771.94;   47.600;  -64.270;    0.000;111.87000
 772.20;   37.960;  -71.570;    0.000;109.53000
 772.46;   31.440;  -70.450;    0.000;101.89000
 772.71;   35.520;  -62.790;    0.000;98.31000
 772.97;   51.380;  -61.450;    0.000;112.83000
 773.23;   26.320;  -66.880;    0.000;93.20000
 773.49;   45.360;  -61.900;    0.000;107.26000
 773.75;   27.080;  -66.690;    0.000;93.77000
 774.01;   12.080;  -66.730;    0.000;78.81000
 774.26;    5.660;  -70.110;    0.000;75.77000
 774.52;   31.180;  -57.630;    0.000;88.81000
 774.78;   20.420;  -67.870;    0.000;88.29000
 775.04;   45.480;  -57.380;    0.000;102.86000
 775.30;   27.760;  -70.620;    0.000;98.38000
 775.56;   17.320;  -62.130;    0.000;79.45000
 775.81;   30.140;  -62.360;    0.000;92.50000
 776.07;   13.660;  -63.320;    0.000;76.98000
 776.33;   18.260;  -66.810;    0.000;85.07000
 776.59;   20.300;  -72.310;    0.000;92.61000
 776.85;   24.180;  -72.330;    0.000;96.51000
 777.10;   25.880;  -66.910;    0.000;92.79000
 777.36;   12.920;  -70.350;    0.000;83.27000
 777.62;   24.460;  -66.270;    0.000;90.73000
 777.88;   17.980;  -66.450;    0.000;84.43000
 778.14;   10.380;  -67.860;    0.000;78.24000
 778.39;   20.540;  -69.450;    0.000;89.99000
 778.65;   14.300;  -66.470;    0.000;80.77000
 778.91;   17.940;  -72.700;    0.000;90.64000
 779.17;   27.000;  -59.560;    0.000;86.56000
 779.42;   10.320;  -73.390;    0.000;83.71000
 779.68;    3.360;  -69.660;    0.000;73.02000
 779.94;   14.920;  -68.700;    0.000;83.62000
 780.20;    4.580;  -73.010;    0.000;77.59000
 780.46;    1.440;  -73.730;    0.000;75.17000
 780.71;   23.460;  -65.500;    0.000;88.96000
 780.97;   10.000;  -67.720;    0.000;77.72000
 781.23;    0.980;  -68.470;    0.000;69.45000
 781.49;   11.120;  -65.070;    0.000;76.19000
 781.74;    4.020;  -62.670;    0.000;66.69000
 782.00;   -0.960;  -71.050;    0.000;70.09000
 782.26;    5.000;  -61.940;    0.000;66.94000
 782.52;    8.900;  -67.400;    0.000;76.30000
 782.77;    6.140;  -63.130;    0.000;69.27000
 783.03;   -0.920;  -72.070;    0.000;71.15000
 783.29;   -0.240;  -67.470;    0.000;67.23000
 783.54;    2.280;  -69.510;    0.000;71.79000
 783.80;   27.460;  -61.520;    0.000;88.98000
 784.06;    3.740;  -72.390;    0.000;76.13000
 784.32;   -6.720;  -69.850;    0.000;63.13000
 784.57;   25.900;  -57.390;    0.000;83.29000
 784.83;  -22.180;  -75.500;    0.000;53.32000
 785.09;  -11.680;  -75.670;    0.000;63.99000
 785.34;  -12.340;  -67.830;    0.000;55.49000
 785.60;   12.460;  -68.990;    0.000;81.45000
 785.86;  -18.580;  -65.770;    0.000;47.19000
 786.12;    7.780;  -64.000;    0.000;71.78000
 786.37;   14.580;  -58.590;    0.000;73.17000
 786.63;    1.320;  -70.160;    0.000;71.48000
 786.89;   -6.300;  -64.130;    0.000;57.83000
 787.14;    5.760;  -68.600;    0.000;74.36000
 787.40;  -12.260;  -65.120;    0.000;52.86000
 787.66;    3.880;  -69.570;    0.000;73.45000
 787.91;   14.960;  -54.980;    0.000;69.94000
 788.17;   -6.700;  -74.240;    0.000;67.54000
 788.43;  -24.020;  -65.670;    0.000;41.65000
 788.68;   -5.180;  -66.800;    0.000;61.62000
 788.94;   -2.740;  -64.460;    0.000;61.72000
 789.20;    0.040;  -67.690;    0.000;67.73000
 789.45;  -18.500;  -75.860;    0.000;57.36000
 789.71;  -13.800;  -77.270;    0.000;63.47000
 789.97;   -0.160;  -62.650;    0.000;62.49000
 790.22;   -1.900;  -70.660;    0.000;68.76000
 790.48;  -20.400;  -66.280;    0.000;45.88000
 790.74;   -2.980;  -69.070;    0.000;66.09000
 790.99;   -8.040;  -67.310;    0.000;59.27000
 791.25;   -7.340;  -72.320;    0.000;64.98000
 791.51;   -8.980;  -69.110;    0.000;60.13000
 791.76;    2.860;  -60.800;    0.000;63.66000
 792.02;  -11.520;  -69.930;    0.000;58.41000
 792.27;    6.520;  -63.120;    0.000;69.64000
 792.53;  -12.600;  -67.640;    0.000;55.04000
 792.79;  -16.800;  -74.900;    0.000;58.10000
 793.04;  -10.500;  -66.410;    0.000;55.91000
 793.30;  -14.640;  -72.290;    0.000;57.65000
 793.56;  -21.920;  -64.850;    0.000;42.93000
 793.81;    4.180;  -64.930;    0.000;69.11000
 794.07;  -32.940;  -78.310;    0.000;45.37000
 794.32;   -7.080;  -65.850;    0.000;58.77000
 794.58;  -15.400;  -64.290;    0.000;48.89000
 794.84;  -15.440;  -73.370;    0.000;57.93000
 795.09;  -12.960;  -63.290;    0.000;50.33000
 795.35;   -2.680;  -68.300;    0.000;65.62000
 795.60;    0.040;  -67.650;    0.000;67.69000
 795.86;  -14.700;  -68.830;    0.000;54.13000
 796.12;  -24.640;  -75.900;    0.000;51.26000
 796.37;  -24.280;  -66.550;    0.000;42.27000
 796.63;  -16.940;  -68.700;    0.000;51.76000
 796.88;  -13.560;  -72.950;    0.000;59.39000
 797.14;  -22.680;  -65.230;    0.000;42.55000
 797.39;   -9.080;  -61.460;    0.000;52.38000
 797.65;  -21.100;  -68.500;    0.000;47.40000
 797.91;  -22.080;  -79.560;    0.000;57.48000
 798.16;  -32.420;  -69.310;    0.000;36.89000
 798.42;  -26.260;  -73.060;    0.000;46.80000
 798.67;  -20.820;  -75.160;    0.000;54.34000
 798.93;  -27.900;  -72.820;    0.000;44.92000
 799.18;  -26.320;  -69.660;    0.000;43.34000
 799.44;  -31.140;  -74.410;    0.000;43.27000
 799.69;  -16.900;  -72.570;    0.000;55.67000
 799.95;  -28.060;  -76.750;    0.000;48.69000
 800.21;  -30.820;  -71.490;    0.000;40.67000
 800.46;    2.280;  -60.670;    0.000;62.95000
 800.72;  -36.360;  -74.550;    0.000;38.19000
 800.97;  -31.420;  -66.080;    0.000;34.66000
 801.23;  -27.840;  -69.050;    0.000;41.21000
 801.48;  -44.760;  -80.230;    0.000;35.47001
 801.74;  -29.480;  -70.650;    0.000;41.17000
 801.99;  -19.020;  -69.570;    0.000;50.55000
 802.25;  -40.920;  -68.120;    0.000;27.20000
 802.50;  -22.900;  -69.760;    0.000;46.86000
 802.76;  -23.080;  -68.390;    0.000;45.31000
 803.01;  -26.760;  -73.710;    0.000;46.95000
 803.27;  -34.420;  -68.660;    0.000;34.24001
 803.52;  -27.740;  -67.380;    0.000;39.64000
 803.78;  -18.980;  -65.800;    0.000;46.82000
 804.03;  -15.820;  -64.730;    0.000;48.91000
 804.29;  -40.860;  -73.690;    0.000;32.83000
 804.54;  -19.340;  -72.140;    0.000;52.80000
 804.80;  -37.340;  -70.710;    0.000;33.37000
 805.05;  -28.140;  -78.700;    0.000;50.56000
 805.31;  -18.080;  -64.860;    0.000;46.78000
 805.56;   -7.320;  -61.820;    0.000;54.50000
 805.82;  -41.640;  -75.510;    0.000;33.87000
 806.07;  -11.880;  -71.590;    0.000;59.71000
 806.33;  -32.740;  -63.430;    0.000;30.69000
 806.58;  -43.980;  -76.420;    0.000;32.44000
 806.84;  -30.640;  -67.110;    0.000;36.47000
 807.09;  -27.740;  -70.810;    0.000;43.07000
 807.34;  -32.780;  -71.760;    0.000;38.98000
 807.60;  -19.960;  -72.510;    0.000;52.55000
 807.85;  -25.160;  -66.100;    0.000;40.94000
 808.11;  -41.040;  -65.900;    0.000;24.86000
 808.36;  -12.940;  -56.490;    0.000;43.55000
 808.62;  -34.580;  -69.320;    0.000;34.74000
 808.87;  -38.040;  -69.730;    0.000;31.69000
 809.13;  -41.200;  -72.860;    0.000;31.66000
 809.38;   -7.780;  -63.580;    0.000;55.80000
 809.63;  -41.140;  -74.820;    0.000;33.68000
 809.89;  -23.960;  -65.740;    0.000;41.78000
 810.14;  -33.860;  -75.130;    0.000;41.27000
 810.40;  -38.720;  -66.270;    0.000;27.55000
 810.65;  -24.820;  -71.440;    0.000;46.62000
 810.91;  -41.860;  -76.930;    0.000;35.07000
 811.16;  -14.600;  -65.800;    0.000;51.20000
 811.41;  -28.220;  -58.080;    0.000;29.86000
 811.67;  -34.260;  -71.200;    0.000;36.94000
 811.92;  -23.660;  -67.900;    0.000;44.24000
 812.18;  -28.040;  -70.620;    0.000;42.58000
 812.43;  -45.600;  -69.170;    0.000;23.57000
 812.68;  -21.380;  -72.250;    0.000;50.87000
 812.94;  -38.520;  -70.010;    0.000;31.49000
 813.19;  -41.780;  -73.690;    0.000;31.91000
 813.45;  -13.620;  -54.460;    0.000;40.84000
 813.70;  -38.520;  -73.310;    0.000;34.79000
 813.95;  -39.300;  -69.970;    0.000;30.67000
 814.21;  -30.520;  -72.990;    0.000;42.47000
 814.46;  -42.880;  -66.200;    0.000;23.32000
 814.71;  -42.640;  -77.220;    0.000;34.58000
 814.97;  -48.960;  -71.610;    0.000;22.65000
 815.22;  -39.680;  -73.660;    0.000;33.98000
 815.48;  -39.160;  -74.930;    0.000;35.77000
 815.73;  -26.820;  -70.320;    0.000;43.50000
 815.98;  -41.220;  -72.260;    0.000;31.04000
 816.24;  -31.520;  -73.690;    0.000;42.17000
 816.49;  -31.240;  -67.570;    0.000;36.33000
 816.74;  -25.020;  -66.060;    0.000;41.04000
 817.00;  -12.760;  -65.110;    0.000;52.35000
 817.25;  -30.500;  -64.360;    0.000;33.86000
 817.50;  -48.180;  -71.190;    0.000;23.01000
 817.76;  -41.200;  -73.870;    0.000;32.67000
 818.01;  -61.580;  -74.140;    0.000;12.56000
 818.26;  -49.180;  -77.660;    0.000;28.48000
 818.52;  -49.840;  -71.160;    0.000;21.32000
 818.77;  -40.120;  -70.450;    0.000;30.33000
 819.02;  145.000;   -1.560;    0.000;146.56000
 819.28;  -43.300;  -76.850;    0.000;33.55000
 819.53;  -44.200;  -76.810;    0.000;32.61000
 819.78;  -32.480;  -71.320;    0.000;38.84000
 820.04;  -43.800;  -76.120;    0.000;32.32000
 820.29;  -33.920;  -69.520;    0.000;35.60000
 820.54;  -34.440;  -71.830;    0.000;37.39000
 820.79;  -31.740;  -68.430;    0.000;36.69000
 821.05;  -56.240;  -73.180;    0.000;16.94000
 821.30;  -19.160;  -60.740;    0.000;41.58000
 821.55;  -29.740;  -56.870;    0.000;27.13000
 821.81;  -43.580;  -72.250;    0.000;28.67000
 822.06;  -42.420;  -64.240;    0.000;21.82000
 822.31;  -11.340;  -64.090;    0.000;52.75000
 822.56;  -45.720;  -71.570;    0.000;25.85000
 822.82;  -33.560;  -74.760;    0.000;41.20000
 823.07;  -55.080;  -77.000;    0.000;21.92000
 823.32;  -52.940;  -86.470;    0.000;33.53000
 823.58;  -40.200;  -70.830;    0.000;30.63000
 823.83;  -46.660;  -68.440;    0.000;21.78000
 824.08;  -54.800;  -68.700;    0.000;13.90000
 824.33;  -50.080;  -78.080;    0.000;28.00000
 824.59;  -46.620;  -75.110;    0.000;28.49000
 824.84;  -42.480;  -73.820;    0.000;31.34000
 825.09;  -53.200;  -71.350;    0.000;18.15000
 825.34;  -40.980;  -78.610;    0.000;37.63000
 825.60;  -58.860;  -76.840;    0.000;17.98000
 825.85;  -50.860;  -72.800;    0.000;21.94000
 826.10;  -63.640;  -75.820;    0.000;12.18000
 826.35;  -41.600;  -78.380;    0.000;36.78000
 826.61;  -50.200;  -69.170;    0.000;18.97000
 826.86;  -54.500;  -74.300;    0.000;19.80000
 827.11;  -53.400;  -73.210;    0.000;19.81000
 827.36;  -52.960;  -79.440;    0.000;26.48000
 827.61;  -56.660;  -77.970;    0.000;21.31000
 827.87;  -57.660;  -73.890;    0.000;16.23000
 828.12;  -57.260;  -78.790;    0.000;21.53000
 828.37;  -32.280;  -76.470;    0.000;44.19000
 828.62;  -54.580;  -66.780;    0.000;12.20000
 828.88;  -38.360;  -68.950;    0.000;30.59000
 829.13;  -44.680;  -65.460;    0.000;20.78000
 829.38;  -51.840;  -74.310;    0.000;22.47000
 829.63;  -53.540;  -76.380;    0.000;22.84000
 829.88;  -59.300;  -77.840;    0.000;18.54000
 830.14;  -50.480;  -68.400;    0.000;17.92000
 830.39;  -36.580;  -67.150;    0.000;30.57000
 830.64;  -61.240;  -73.500;    0.000;12.26000
 830.89;  -36.100;  -63.930;    0.000;27.83000
 831.14;  -50.900;  -65.130;    0.000;14.23000
 831.39;  -56.040;  -80.200;    0.000;24.16000
 831.65;  -66.660;  -73.680;    0.000; 7.02000
 831.90;  -39.760;  -76.450;    0.000;36.69000
 832.15;  -55.540;  -74.460;    0.000;18.92000
 832.40;  -38.360;  -71.070;    0.000;32.71000
 832.65;  -55.000;  -65.920;    0.000;10.92000
 832.90;  -60.940;  -71.420;    0.000;10.48000
 833.16;  -58.120;  -70.920;    0.000;12.80000
 833.41;  -46.160;  -68.270;    0.000;22.11000
 833.66;  -57.460;  -80.480;    0.000;23.02000
 833.91;  -52.360;  -69.470;    0.000;17.11000
 834.16;  -73.360;  -74.480;    0.000; 1.12000
 834.41;  -55.920;  -78.330;    0.000;22.41000
 834.66;  -54.640;  -73.780;    0.000;19.14000
 834.92;  -50.080;  -76.420;    0.000;26.34000
 835.17;  -66.300;  -79.700;    0.000;13.39999
 835.42;  -43.320;  -74.750;    0.000;31.43000
 835.67;  -51.240;  -67.620;    0.000;16.38000
 835.92;  -67.500;  -76.180;    0.000; 8.68000
 836.17;  -56.140;  -73.070;    0.000;16.93000
 836.42;  -66.120;  -80.720;    0.000;14.60000
 836.67;  -59.520;  -72.910;    0.000;13.39000
 836.93;  -56.740;  -67.370;    0.000;10.63000
 837.18;  -48.000;  -68.480;    0.000;20.48000
 837.43;  -58.040;  -77.570;    0.000;19.53000
 837.68;  -49.700;  -75.250;    0.000;25.55000
 837.93;  -71.120;  -77.620;    0.000; 6.50000
 838.18;  -63.040;  -72.720;    0.000; 9.68000
 838.43;  -61.260;  -77.330;    0.000;16.07000
 838.68;  -60.560;  -75.400;    0.000;14.84000
 838.93;  -65.300;  -76.840;    0.000;11.53999
 839.18;  -48.080;  -68.870;    0.000;20.79000
 839.43;  -46.420;  -68.920;    0.000;22.50000
 839.69;  -62.240;  -75.200;    0.000;12.96000
 839.94;  -59.600;  -75.060;    0.000;15.46000
 840.19;  -57.240;  -64.900;    0.000; 7.66000
 840.44;  -44.060;  -74.590;    0.000;30.52999
 840.69;  -53.020;  -67.680;    0.000;14.66000
 840.94;  -38.620;  -78.800;    0.000;40.18000
 841.19;  -32.120;  -66.410;    0.000;34.29000
 841.44;  -43.060;  -70.390;    0.000;27.33000
 841.69;  -36.460;  -69.710;    0.000;33.25000
 841.94;  -64.020;  -72.650;    0.000; 8.63000
 842.19;  -62.300;  -74.280;    0.000;11.98000
 842.44;  -55.740;  -72.650;    0.000;16.91000
 842.69;  -61.200;  -68.330;    0.000; 7.13000
 842.94;  -51.100;  -71.610;    0.000;20.51000
 843.19;  -72.880;  -78.190;    0.000; 5.31001
 843.44;  -58.620;  -74.710;    0.000;16.09000
 843.69;  -64.120;  -76.520;    0.000;12.39999
 843.94;   13.860;  -44.550;    0.000;58.41000
 844.19;  -61.000;  -77.910;    0.000;16.91000
 844.44;  -44.960;  -71.510;    0.000;26.55000
 844.69;  -63.100;  -73.310;    0.000;10.21000
 844.95;  -46.960;  -74.630;    0.000;27.67000
 845.20;  -76.980;  -82.130;    0.000; 5.14999
 845.45;  -38.620;  -68.000;    0.000;29.38000
 845.70;  -64.300;  -72.870;    0.000; 8.57000
 845.95;  -60.520;  -74.560;    0.000;14.04000
 846.20;  -63.300;  -71.730;    0.000; 8.43000
 846.45;  -63.880;  -77.390;    0.000;13.51000
 846.70;  -62.820;  -65.790;    0.000; 2.97000
 846.95;  -62.340;  -75.980;    0.000;13.64000
 847.20;  -63.280;  -73.000;    0.000; 9.72000
 847.44;  -28.640;  -61.130;    0.000;32.49000
 847.69;  -67.200;  -79.180;    0.000;11.98000
 847.94;  -54.020;  -71.950;    0.000;17.93000
 848.19;  -69.020;  -73.590;    0.000; 4.57000
 848.44;  -46.860;  -70.960;    0.000;24.10000
 848.69;  -71.860;  -73.670;    0.000; 1.81000
 848.94;  -51.080;  -69.750;    0.000;18.67000
 849.19;  -61.820;  -80.480;    0.000;18.66000
 849.44;  -63.560;  -73.190;    0.000; 9.63000
 849.69;  -64.820;  -78.510;    0.000;13.69000
 849.94;  -68.540;  -72.940;    0.000; 4.40000
 850.19;  -62.320;  -63.930;    0.000; 1.61000
 850.44;  -67.900;  -76.610;    0.000; 8.71000
 850.69;  -62.580;  -69.690;    0.000; 7.11000
 850.94;  -56.180;  -77.600;    0.000;21.42000
 851.19;  -76.500;  -72.230;    0.000;-4.27000
 851.44;  -65.040;  -76.080;    0.000;11.04000
 851.69;  -72.840;  -76.040;    0.000; 3.20000
 851.94;  -62.080;  -79.190;    0.000;17.11000
 852.19;  -67.140;  -76.300;    0.000; 9.16000
 852.44;  -68.380;  -74.760;    0.000; 6.38000
 852.68;  -67.840;  -75.620;    0.000; 7.78001
 852.93;  -51.560;  -70.590;    0.000;19.02999
 853.18;  -72.220;  -77.250;    0.000; 5.03000
 853.43;  -58.720;  -76.120;    0.000;17.40000
 853.68;  -67.900;  -77.810;    0.000; 9.91000
 853.93;  -50.720;  -67.550;    0.000;16.83000
 854.18;  -57.640;  -66.630;    0.000; 8.99000
 854.43;  -58.520;  -77.970;    0.000;19.45000
 854.68;  -73.280;  -75.490;    0.000; 2.21000
 854.93;  -43.600;  -66.450;    0.000;22.85000
 855.18;  -69.940;  -74.650;    0.000; 4.71000
 855.42;  -48.300;  -72.230;    0.000;23.93000
 855.67;  -67.720;  -71.310;    0.000; 3.59000
 855.92;  -69.500;  -74.510;    0.000; 5.01000
 856.17;  -61.520;  -67.440;    0.000; 5.92000
 856.42;  -43.760;  -76.160;    0.000;32.40001
 856.67;  -63.840;  -77.970;    0.000;14.13000
 856.92;  -60.480;  -79.620;    0.000;19.14000
 857.17;  -73.620;  -77.870;    0.000; 4.25000
 857.41;  -51.360;  -71.030;    0.000;19.67000
 857.66;  -61.380;  -73.290;    0.000;11.91000
 857.91;  -53.560;  -73.290;    0.000;19.73000
 858.16;  -65.480;  -82.520;    0.000;17.03999
 858.41;  -63.200;  -72.320;    0.000; 9.12000
 858.66;  -61.880;  -69.160;    0.000; 7.28000
 858.91;  -53.500;  -77.930;    0.000;24.43000
 859.15;  -69.140;  -76.870;    0.000; 7.73000
 859.40;  -39.040;  -68.270;    0.000;29.23000
 859.65;  -73.240;  -84.460;    0.000;11.22000
 859.90;  -63.080;  -79.390;    0.000;16.31000
 860.15;  -55.960;  -69.890;    0.000;13.93000
 860.40;  -43.140;  -69.890;    0.000;26.75000
 860.64;  -53.620;  -70.370;    0.000;16.75000
 860.89;  -45.840;  -74.750;    0.000;28.91000
 861.14;  -66.560;  -70.090;    0.000; 3.53000
 861.39;  -51.820;  -69.870;    0.000;18.05000
 861.64;  -74.900;  -75.520;    0.000; 0.62000
 861.88;  -46.540;  -72.380;    0.000;25.84000
 862.13;  -58.980;  -76.230;    0.000;17.25000
 862.38;  -67.380;  -72.450;    0.000; 5.07000
 862.63;  -68.740;  -74.260;    0.000; 5.52000
 862.88;  -52.620;  -69.530;    0.000;16.91000
 863.12;  -51.780;  -67.960;    0.000;16.18000
 863.37;  -67.840;  -71.990;    0.000; 4.15000
 863.62;  -63.480;  -77.420;    0.000;13.94000
 863.87;  -76.800;  -78.180;    0.000; 1.38000
 864.12;  -65.680;  -73.600;    0.000; 7.92000
 864.36;  -62.960;  -69.580;    0.000; 6.62000
 864.61;  -66.260;  -73.260;    0.000; 7.00000
 864.86;  -55.380;  -78.780;    0.000;23.40000
 865.11;  -51.460;  -68.440;    0.000;16.98000
 865.35;  -49.080;  -68.810;    0.000;19.73000
 865.60;  -65.840;  -71.930;    0.000; 6.09000
 865.85;  -45.760;  -72.600;    0.000;26.84000
 866.10;  -73.580;  -75.090;    0.000; 1.50999
 866.34;  -52.660;  -74.150;    0.000;21.49000
 866.59;  -56.820;  -67.290;    0.000;10.47000
 866.84;  -56.700;  -74.630;    0.000;17.93000
 867.09;  -68.820;  -80.380;    0.000;11.56000
 867.33;  -60.680;  -74.040;    0.000;13.36000
 867.58;  -60.120;  -71.470;    0.000;11.35000
 867.83;  -69.260;  -74.280;    0.000; 5.02000
 868.08;  -56.600;  -76.090;    0.000;19.49000
 868.32;  -54.580;  -68.010;    0.000;13.43000
 868.57;  -70.320;  -81.500;    0.000;11.18000
 868.82;  -51.760;  -72.920;    0.000;21.16000
 869.07;  -99.660;  -81.160;    0.000;-18.50000
 869.31;  -51.720;  -69.490;    0.000;17.77000
 869.56;  -70.600;  -84.440;    0.000;13.84000
 869.81;  -63.940;  -83.050;    0.000;19.11000
 870.05;  -72.460;  -79.990;    0.000; 7.53000
 870.30;  -41.200;  -76.070;    0.000;34.87000
 870.55;  -52.700;  -69.170;    0.000;16.47000
 870.80;  -48.200;  -74.860;    0.000;26.66000
 871.04;  -50.100;  -69.280;    0.000;19.18000
 871.29;  -56.280;  -73.970;    0.000;17.69000
 871.54;  -57.100;  -72.650;    0.000;15.55000
 871.78;  -65.000;  -75.650;    0.000;10.65000
 872.03;  -60.580;  -76.460;    0.000;15.88000
 872.28;  -59.140;  -75.610;    0.000;16.47000
 872.52;  -63.520;  -63.940;    0.000; 0.42000
 872.77;  -53.560;  -68.280;    0.000;14.72000
 873.02;  -76.300;  -78.210;    0.000; 1.91000
 873.26;  -56.180;  -75.910;    0.000;19.73000
 873.51;  -46.880;  -67.060;    0.000;20.18000
 873.76;  -55.440;  -69.910;    0.000;14.47001
 874.00;  -40.060;  -67.690;    0.000;27.63000
 874.25;  -64.180;  -75.800;    0.000;11.62000
 874.50;  -65.920;  -80.100;    0.000;14.18000
 874.74;  -68.100;  -73.380;    0.000; 5.28000
 874.99;  -64.760;  -77.690;    0.000;12.93000
 875.24;  -40.860;  -71.860;    0.000;31.00000
 875.48;  -62.500;  -75.510;    0.000;13.01000
 875.73;  -62.820;  -71.020;    0.000; 8.20000
 875.98;  -64.680;  -72.290;    0.000; 7.61000
 876.22;  -57.240;  -74.020;    0.000;16.77999
 876.47;  -58.500;  -73.180;    0.000;14.68000
 876.71;  -48.400;  -66.650;    0.000;18.25000
 876.96;  -48.420;  -68.040;    0.000;19.62000
 877.21;  -65.320;  -80.560;    0.000;15.24000
 877.45;  -74.540;  -79.740;    0.000; 5.20000
 877.70;  -48.900;  -68.150;    0.000;19.25000
 877.95;  -53.680;  -71.420;    0.000;17.74000
 878.19;  -34.440;  -66.290;    0.000;31.85000
 878.44;  -65.440;  -73.630;    0.000; 8.18999
 878.68;  -11.680;  -58.820;    0.000;47.14000
 878.93;  -54.680;  -67.350;    0.000;12.67000
 879.18;  -45.640;  -71.350;    0.000;25.71000
 879.42;  -50.520;  -70.170;    0.000;19.65000
 879.67;  -50.960;  -73.850;    0.000;22.89000
 879.91;  -32.760;  -67.960;    0.000;35.20000
 880.16;  -46.140;  -78.060;    0.000;31.92000
 880.40;  -48.620;  -65.360;    0.000;16.74000
 880.65;  -40.080;  -71.790;    0.000;31.71000
 880.90;  -44.120;  -69.720;    0.000;25.60000
 881.14;  -36.360;  -65.060;    0.000;28.70000
 881.39;  -62.820;  -72.620;    0.000; 9.80000
 881.63;  -47.720;  -68.980;    0.000;21.26000
 881.88;  -46.120;  -70.790;    0.000;24.67000
 882.12;  -49.940;  -76.190;    0.000;26.25000
 882.37;  -44.460;  -72.930;    0.000;28.47000
 882.62;  -54.960;  -70.810;    0.000;15.85000
 882.86;  -59.820;  -75.020;    0.000;15.20000
 883.11;  -44.100;  -74.980;    0.000;30.88000
 883.35;  -37.240;  -71.230;    0.000;33.99000
 883.60;  -34.720;  -67.200;    0.000;32.48000
 883.84;  -56.740;  -73.170;    0.000;16.43000
 884.09;  -40.740;  -72.690;    0.000;31.95000
 884.33;  -55.840;  -71.050;    0.000;15.21000
 884.58;  -44.300;  -70.670;    0.000;26.37000
 884.82;  -57.160;  -73.840;    0.000;16.68000
 885.07;  -41.980;  -75.950;    0.000;33.97000
 885.31;  -53.480;  -74.400;    0.000;20.92000
 885.56;  -24.000;  -65.280;    0.000;41.28000
 885.80;  -57.980;  -79.420;    0.000;21.44000
 886.05;  -49.060;  -70.300;    0.000;21.24000
 886.29;  -34.220;  -61.930;    0.000;27.71000
 886.54;  -50.560;  -68.310;    0.000;17.75000
 886.78;  -45.260;  -71.060;    0.000;25.80000
 887.03;  -42.380;  -67.810;    0.000;25.43000
 887.27;  -36.080;  -61.920;    0.000;25.84000
 887.52;  -48.740;  -70.160;    0.000;21.42000
 887.76;  -51.980;  -70.980;    0.000;19.00000
 888.01;  -34.340;  -70.270;    0.000;35.93000
 888.25;  -52.960;  -74.180;    0.000;21.22000
 888.50;  -31.660;  -70.460;    0.000;38.80000
 888.74;  -40.400;  -65.070;    0.000;24.67000
 888.99;  -32.200;  -75.410;    0.000;43.21000
 889.23;  -29.120;  -73.760;    0.000;44.64000
 889.48;  -49.640;  -67.050;    0.000;17.41000
 889.72;  -35.080;  -61.140;    0.000;26.06000
 889.97;  -23.620;  -67.890;    0.000;44.27000
 890.21;  -32.220;  -71.660;    0.000;39.44000
 890.46;  -24.120;  -67.310;    0.000;43.19000
 890.70;  -42.540;  -66.540;    0.000;24.00000
 890.94;  -33.780;  -66.690;    0.000;32.91000
 891.19;  -38.840;  -67.720;    0.000;28.88000
 891.43;  -22.800;  -60.230;    0.000;37.43000
 891.68;  -14.860;  -60.880;    0.000;46.02000
 891.92;  -22.960;  -66.740;    0.000;43.78000
 892.17;  -46.640;  -63.670;    0.000;17.03000
 892.41;  -17.500;  -64.550;    0.000;47.05000
 892.66;  -35.160;  -72.780;    0.000;37.62000
 892.90;    4.420;  -53.850;    0.000;58.27000
 893.14;  -44.520;  -67.700;    0.000;23.18000
 893.39;  -28.320;  -61.520;    0.000;33.20000
 893.63;  -45.540;  -66.090;    0.000;20.55000
 893.88;  -30.660;  -64.750;    0.000;34.09000
 894.12;  -38.860;  -60.690;    0.000;21.83000
 894.36;  -19.060;  -52.460;    0.000;33.40000
 894.61;  -28.500;  -59.430;    0.000;30.93000
 894.85;  -16.380;  -59.970;    0.000;43.59000
 895.10;  -18.920;  -64.360;    0.000;45.44000
 895.34;  -30.680;  -59.380;    0.000;28.70000
 895.58;  -34.340;  -69.260;    0.000;34.92000
 895.83;  -17.620;  -62.800;    0.000;45.18000
 896.07;  -34.280;  -66.320;    0.000;32.04000
 896.32;  -24.500;  -58.720;    0.000;34.22000
 896.56;  -31.040;  -59.080;    0.000;28.04000
 896.80;  -14.800;  -64.120;    0.000;49.32000
 897.05;  -29.680;  -66.340;    0.000;36.66000
 897.29;  -14.580;  -51.230;    0.000;36.65000
 897.53;  -27.320;  -64.490;    0.000;37.17000
 897.78;  -27.140;  -59.400;    0.000;32.26000
 898.02;   -8.560;  -53.570;    0.000;45.01000
 898.26;  -20.440;  -63.930;    0.000;43.49000
 898.51;   -3.420;  -52.040;    0.000;48.62000
 898.75;  -11.900;  -56.010;    0.000;44.11000
 898.99;   -5.680;  -55.790;    0.000;50.11000
 899.24;   -6.880;  -49.180;    0.000;42.30000
 899.48;   -2.220;  -48.260;    0.000;46.04000
 899.73;   -1.860;  -54.040;    0.000;52.18000
 899.97;    3.240;  -42.750;    0.000;45.99000
 900.21;   25.820;  -44.210;    0.000;70.03000
 900.46;    7.340;  -41.230;    0.000;48.57000
 900.70;   16.360;  -40.060;    0.000;56.42000
 900.94;   -2.000;  -49.340;    0.000;47.34000
 901.18;   18.800;  -43.690;    0.000;62.49000
 901.43;   20.520;  -40.290;    0.000;60.81000
 901.67;   24.860;  -38.410;    0.000;63.27000
 901.91;   25.860;  -29.050;    0.000;54.91000
 902.16;   28.620;  -39.250;    0.000;67.87000
 902.40;   33.220;  -35.010;    0.000;68.23000
 902.64;   39.160;  -28.700;    0.000;67.86000
 902.89;   44.040;  -28.120;    0.000;72.16000
 903.13;   63.960;  -20.830;    0.000;84.79000
 903.37;   72.580;  -22.230;    0.000;94.81000
 903.61;   85.580;   -7.810;    0.000;93.39000
 903.86;   82.560;   -9.670;    0.000;92.23000
 904.10;  101.320;   -7.290;    0.000;108.61000
 904.34;  122.960;    5.810;    0.000;117.15000
 904.59;  139.080;   17.270;    0.000;121.81000
 904.83;  148.200;   23.940;    0.000;124.26000
 905.07;  189.120;   39.780;    0.000;149.34000
 905.31;  196.480;   43.380;    0.000;153.09999
 905.56;  226.940;   56.080;    0.000;170.86000
 905.80;  267.320;   75.520;    0.000;191.80001

