p1
Integration time [ms]:  10.000
Averaging Nr. [scans]: 100
Smoothing Nr. [pixels]: 0
Data measured with spectrometer [name]: 1307078U2
Wave   ;Sample   ;Dark     ;Reference;Scope Corrected for Dark
[nm]   ;[counts] ;[counts] ;[counts] 

 351.07;   27.310;    0.420;    0.000;26.89000
 351.37;   18.130;    2.109;    0.000;16.02125
 351.66;   18.570;    2.484;    0.000;16.08625
 351.95;   17.080;    0.324;    0.000;16.75625
 352.24;   12.020;    1.910;    0.000;10.11000
 352.54;   12.250;    1.401;    0.000;10.84875
 352.83;    6.260;   -0.629;    0.000; 6.88875
 353.12;   24.630;    1.364;    0.000;23.26625
 353.42;   13.190;   -0.535;    0.000;13.72500
 353.71;   15.050;    2.263;    0.000;12.78750
 354.00;   14.850;    3.929;    0.000;10.92125
 354.30;   13.900;    1.025;    0.000;12.87500
 354.59;   12.910;   -0.266;    0.000;13.17625
 354.88;   11.150;    5.190;    0.000; 5.96000
 355.17;    4.400;   -0.014;    0.000; 4.41375
 355.47;    6.840;    2.134;    0.000; 4.70625
 355.76;   18.920;    0.416;    0.000;18.50375
 356.05;   16.710;    1.192;    0.000;15.51750
 356.35;   14.420;    1.587;    0.000;12.83250
 356.64;   25.050;    1.753;    0.000;23.29750
 356.93;   12.340;    1.768;    0.000;10.57250
 357.22;   31.060;    1.366;    0.000;29.69375
 357.52;    6.980;    3.320;    0.000; 3.66000
 357.81;   20.810;    1.643;    0.000;19.16750
 358.10;   18.140;   -0.600;    0.000;18.74000
 358.39;   21.110;    1.461;    0.000;19.64875
 358.69;    7.510;    1.997;    0.000; 5.51250
 358.98;    9.840;    0.317;    0.000; 9.52250
 359.27;   14.000;    1.446;    0.000;12.55375
 359.57;   21.470;    2.324;    0.000;19.14625
 359.86;    9.480;   -0.700;    0.000;10.18000
 360.15;   29.870;    1.474;    0.000;28.39625
 360.44;    8.820;   -0.946;    0.000; 9.76625
 360.74;   19.110;    1.480;    0.000;17.63000
 361.03;   17.600;   -0.345;    0.000;17.94500
 361.32;   18.200;    2.919;    0.000;15.28125
 361.61;   11.180;    2.338;    0.000; 8.84250
 361.91;   21.430;    2.645;    0.000;18.78500
 362.20;   15.090;    1.590;    0.000;13.50000
 362.49;   20.270;    1.854;    0.000;18.41625
 362.78;   17.760;    0.435;    0.000;17.32500
 363.08;   21.030;    1.149;    0.000;19.88125
 363.37;    8.570;    0.004;    0.000; 8.56625
 363.66;   24.440;    3.439;    0.000;21.00125
 363.95;    7.510;    2.359;    0.000; 5.15125
 364.24;   16.650;    2.213;    0.000;14.43750
 364.54;   14.740;   -0.068;    0.000;14.80750
 364.83;   13.410;    2.066;    0.000;11.34375
 365.12;    6.700;   -0.624;    0.000; 7.32375
 365.41;   23.380;    3.152;    0.000;20.22750
 365.71;   14.490;    0.161;    0.000;14.32875
 366.00;   10.700;    1.484;    0.000; 9.21625
 366.29;    7.260;    0.876;    0.000; 6.38375
 366.58;   13.050;    2.200;    0.000;10.85000
 366.87;   30.510;    3.334;    0.000;27.17625
 367.17;   23.030;    4.057;    0.000;18.97250
 367.46;    9.250;    1.112;    0.000; 8.13750
 367.75;   18.160;    0.207;    0.000;17.95250
 368.04;    7.150;    2.296;    0.000; 4.85375
 368.34;   14.330;    3.155;    0.000;11.17500
 368.63;    7.810;    1.982;    0.000; 5.82750
 368.92;   27.710;    4.579;    0.000;23.13125
 369.21;   18.310;    0.301;    0.000;18.00875
 369.50;   24.180;    4.056;    0.000;20.12375
 369.80;   13.160;    3.011;    0.000;10.14875
 370.09;   15.600;    2.666;    0.000;12.93375
 370.38;    9.340;    1.489;    0.000; 7.85125
 370.67;   16.620;    2.949;    0.000;13.67125
 370.96;    4.900;    1.915;    0.000; 2.98500
 371.26;   13.380;    3.515;    0.000; 9.86500
 371.55;    5.350;   -0.750;    0.000; 6.10000
 371.84;   11.180;    1.237;    0.000; 9.94250
 372.13;    2.200;    0.486;    0.000; 1.71375
 372.42;   18.140;    4.290;    0.000;13.85000
 372.71;   21.340;    2.305;    0.000;19.03500
 373.01;   18.120;    2.734;    0.000;15.38625
 373.30;    7.510;    0.909;    0.000; 6.60125
 373.59;   19.930;    4.401;    0.000;15.52875
 373.88;   19.600;    0.729;    0.000;18.87125
 374.17;   23.450;    5.426;    0.000;18.02375
 374.46;   17.840;    2.037;    0.000;15.80250
 374.76;   24.340;    3.602;    0.000;20.73750
 375.05;   30.230;    4.131;    0.000;26.09875
 375.34;    8.200;    4.778;    0.000; 3.42250
 375.63;   13.480;   -1.367;    0.000;14.84750
 375.92;   13.090;    1.354;    0.000;11.73625
 376.21;   -2.050;    0.181;    0.000;-2.23125
 376.51;    4.630;    0.475;    0.000; 4.15500
 376.80;    6.780;    3.346;    0.000; 3.43375
 377.09;    5.660;    1.947;    0.000; 3.71250
 377.38;    5.740;    1.015;    0.000; 4.72500
 377.67;   18.020;    2.574;    0.000;15.44625
 377.96;    2.950;    0.863;    0.000; 2.08750
 378.25;   14.360;    3.033;    0.000;11.32750
 378.55;    6.440;    1.080;    0.000; 5.36000
 378.84;   14.650;    4.383;    0.000;10.26750
 379.13;   12.680;    1.696;    0.000;10.98375
 379.42;   10.480;    4.142;    0.000; 6.33750
 379.71;    9.690;    1.695;    0.000; 7.99500
 380.00;   26.130;    4.409;    0.000;21.72125
 380.29;    1.760;    0.924;    0.000; 0.83625
 380.59;   14.080;    2.340;    0.000;11.74000
 380.88;    3.510;    1.253;    0.000; 2.25750
 381.17;    9.360;    2.536;    0.000; 6.82375
 381.46;   18.100;    2.259;    0.000;15.84125
 381.75;   20.040;    3.750;    0.000;16.29000
 382.04;   14.740;    3.304;    0.000;11.43625
 382.33;    9.400;    1.438;    0.000; 7.96250
 382.62;    2.610;    2.980;    0.000;-0.37000
 382.91;   20.030;    3.025;    0.000;17.00500
 383.21;   14.550;   -1.186;    0.000;15.73625
 383.50;   18.770;    1.279;    0.000;17.49125
 383.79;   11.070;    3.581;    0.000; 7.48875
 384.08;    5.360;    1.620;    0.000; 3.74000
 384.37;   13.390;    2.861;    0.000;10.52875
 384.66;   15.480;    0.262;    0.000;15.21750
 384.95;    2.520;    1.033;    0.000; 1.48750
 385.24;   10.440;    0.772;    0.000; 9.66750
 385.53;   -4.300;   -1.732;    0.000;-2.56750
 385.83;   10.200;    0.712;    0.000; 9.48750
 386.12;   14.320;    1.009;    0.000;13.31125
 386.41;   12.290;    2.080;    0.000;10.21000
 386.70;    1.500;    0.155;    0.000; 1.34500
 386.99;   18.650;    0.820;    0.000;17.83000
 387.28;   21.120;    3.057;    0.000;18.06250
 387.57;   12.260;    2.020;    0.000;10.24000
 387.86;    8.640;    1.317;    0.000; 7.32250
 388.15;   14.210;    2.237;    0.000;11.97250
 388.44;   10.960;    1.854;    0.000; 9.10625
 388.73;   13.740;    1.639;    0.000;12.10125
 389.02;   10.210;    1.174;    0.000; 9.03625
 389.31;   13.650;    3.336;    0.000;10.31375
 389.61;   10.090;    1.742;    0.000; 8.34750
 389.90;   12.040;    2.181;    0.000; 9.85875
 390.19;    6.560;    0.252;    0.000; 6.30750
 390.48;   17.490;    3.714;    0.000;13.77625
 390.77;    8.380;    2.156;    0.000; 6.22375
 391.06;   18.510;    0.019;    0.000;18.49125
 391.35;    5.960;    0.766;    0.000; 5.19375
 391.64;   20.830;    4.639;    0.000;16.19125
 391.93;   -0.460;    0.449;    0.000;-0.90875
 392.22;   14.780;    2.592;    0.000;12.18750
 392.51;   17.220;    1.247;    0.000;15.97250
 392.80;   15.590;    2.735;    0.000;12.85500
 393.09;    5.640;    1.086;    0.000; 4.55375
 393.38;    7.690;    0.229;    0.000; 7.46125
 393.67;    5.070;    1.561;    0.000; 3.50875
 393.96;   12.140;    1.930;    0.000;10.21000
 394.25;    7.230;    0.956;    0.000; 6.27375
 394.54;   15.290;    1.622;    0.000;13.66750
 394.83;   10.100;    0.440;    0.000; 9.66000
 395.13;   16.060;    2.201;    0.000;13.85875
 395.42;   13.300;    2.457;    0.000;10.84250
 395.71;   16.470;    4.305;    0.000;12.16500
 396.00;   12.670;    1.222;    0.000;11.44750
 396.29;    9.290;    1.178;    0.000; 8.11250
 396.58;    5.550;    0.967;    0.000; 4.58250
 396.87;   12.320;    1.986;    0.000;10.33375
 397.16;    3.240;    1.911;    0.000; 1.32875
 397.45;   14.370;    3.014;    0.000;11.35625
 397.74;   16.930;    2.689;    0.000;14.24125
 398.03;   15.570;    2.170;    0.000;13.40000
 398.32;    6.170;    1.844;    0.000; 4.32625
 398.61;   13.600;    3.154;    0.000;10.44625
 398.90;    8.610;    1.420;    0.000; 7.19000
 399.19;   14.030;    3.316;    0.000;10.71375
 399.48;    8.560;    0.412;    0.000; 8.14750
 399.77;   16.990;    1.786;    0.000;15.20375
 400.06;   17.780;    2.120;    0.000;15.66000
 400.35;   16.180;    3.961;    0.000;12.21875
 400.64;    8.400;    2.411;    0.000; 5.98875
 400.93;   11.880;    3.304;    0.000; 8.57625
 401.22;    6.220;    1.479;    0.000; 4.74125
 401.51;   11.550;    3.400;    0.000; 8.15000
 401.80;    9.990;    1.049;    0.000; 8.94125
 402.09;   11.730;    1.710;    0.000;10.02000
 402.38;    8.050;    1.655;    0.000; 6.39500
 402.67;   10.330;    2.055;    0.000; 8.27500
 402.96;   12.940;    1.381;    0.000;11.55875
 403.25;   23.890;    4.099;    0.000;19.79125
 403.54;   15.550;    2.920;    0.000;12.63000
 403.83;   16.100;    1.701;    0.000;14.39875
 404.12;   10.530;    4.244;    0.000; 6.28625
 404.41;   19.450;    7.259;    0.000;12.19125
 404.70;    9.480;    1.739;    0.000; 7.74125
 404.98;   14.630;    3.635;    0.000;10.99500
 405.27;   12.100;    2.116;    0.000; 9.98375
 405.56;   25.880;    5.247;    0.000;20.63250
 405.85;    7.420;    1.905;    0.000; 5.51500
 406.14;   15.420;    2.216;    0.000;13.20375
 406.43;    7.750;    0.695;    0.000; 7.05500
 406.72;   11.860;    1.689;    0.000;10.17125
 407.01;   11.310;    2.034;    0.000; 9.27625
 407.30;   18.060;    2.056;    0.000;16.00375
 407.59;   14.940;   -0.241;    0.000;15.18125
 407.88;   17.650;    1.026;    0.000;16.62375
 408.17;    8.830;    1.819;    0.000; 7.01125
 408.46;   21.130;    2.744;    0.000;18.38625
 408.75;   20.740;    2.339;    0.000;18.40125
 409.04;    4.260;    1.809;    0.000; 2.45125
 409.33;    8.070;    1.810;    0.000; 6.26000
 409.62;   28.040;    3.089;    0.000;24.95125
 409.91;    4.160;    0.704;    0.000; 3.45625
 410.20;    6.800;    1.890;    0.000; 4.91000
 410.48;    9.220;    1.309;    0.000; 7.91125
 410.77;    8.540;    2.919;    0.000; 5.62125
 411.06;   10.540;   -0.224;    0.000;10.76375
 411.35;   32.180;    2.226;    0.000;29.95375
 411.64;   11.890;    2.741;    0.000; 9.14875
 411.93;    8.380;   -0.534;    0.000; 8.91375
 412.22;   14.310;    0.561;    0.000;13.74875
 412.51;   14.380;    2.220;    0.000;12.16000
 412.80;   10.650;    1.974;    0.000; 8.67625
 413.09;   18.500;    0.749;    0.000;17.75125
 413.38;   10.370;    3.604;    0.000; 6.76625
 413.67;    7.830;    0.146;    0.000; 7.68375
 413.96;   -5.160;   -0.986;    0.000;-4.17375
 414.24;   14.200;    2.872;    0.000;11.32750
 414.53;    9.590;    3.146;    0.000; 6.44375
 414.82;   18.830;    2.290;    0.000;16.54000
 415.11;   21.490;    2.401;    0.000;19.08875
 415.40;   16.670;    0.995;    0.000;15.67500
 415.69;    4.060;    2.255;    0.000; 1.80500
 415.98;   10.680;    3.622;    0.000; 7.05750
 416.27;    3.600;    2.026;    0.000; 1.57375
 416.56;   26.610;    2.160;    0.000;24.45000
 416.84;    5.900;    1.849;    0.000; 4.05125
 417.13;   14.580;    1.085;    0.000;13.49500
 417.42;   16.800;    2.255;    0.000;14.54500
 417.71;   13.220;    0.942;    0.000;12.27750
 418.00;   14.910;   -0.894;    0.000;15.80375
 418.29;   16.060;    2.760;    0.000;13.30000
 418.58;    9.930;    1.184;    0.000; 8.74625
 418.87;   14.570;    1.616;    0.000;12.95375
 419.15;    8.310;    1.469;    0.000; 6.84125
 419.44;   19.690;    1.505;    0.000;18.18500
 419.73;   11.430;   -0.203;    0.000;11.63250
 420.02;   15.400;    3.578;    0.000;11.82250
 420.31;    1.600;    0.189;    0.000; 1.41125
 420.60;   19.230;    0.344;    0.000;18.88625
 420.89;   -0.080;    1.889;    0.000;-1.96875
 421.18;   18.750;    0.249;    0.000;18.50125
 421.46;    5.870;    1.220;    0.000; 4.65000
 421.75;   17.200;    1.529;    0.000;15.67125
 422.04;    3.950;    1.446;    0.000; 2.50375
 422.33;   16.290;    1.941;    0.000;14.34875
 422.62;    2.910;    4.503;    0.000;-1.59250
 422.91;   14.450;    4.043;    0.000;10.40750
 423.19;    6.340;    3.485;    0.000; 2.85500
 423.48;   25.960;    1.274;    0.000;24.68625
 423.77;    5.970;    2.696;    0.000; 3.27375
 424.06;    5.520;    3.234;    0.000; 2.28625
 424.35;    4.870;    0.522;    0.000; 4.34750
 424.64;   24.120;    3.535;    0.000;20.58500
 424.93;   -0.090;   -0.317;    0.000; 0.22750
 425.21;   17.020;    2.582;    0.000;14.43750
 425.50;    9.490;    3.263;    0.000; 6.22750
 425.79;   11.000;    2.591;    0.000; 8.40875
 426.08;    3.840;    1.785;    0.000; 2.05500
 426.37;   18.550;    1.579;    0.000;16.97125
 426.65;    7.590;    2.955;    0.000; 4.63500
 426.94;    6.800;    2.134;    0.000; 4.66625
 427.23;   12.200;    2.475;    0.000; 9.72500
 427.52;   12.970;    0.715;    0.000;12.25500
 427.81;    9.140;   -0.177;    0.000; 9.31750
 428.10;   27.260;    2.043;    0.000;25.21750
 428.38;    0.660;    0.154;    0.000; 0.50625
 428.67;   12.720;    2.436;    0.000;10.28375
 428.96;    0.810;    1.938;    0.000;-1.12750
 429.25;   10.980;    2.326;    0.000; 8.65375
 429.54;   14.190;    2.418;    0.000;11.77250
 429.82;   20.690;    2.749;    0.000;17.94125
 430.11;   11.440;    0.755;    0.000;10.68500
 430.40;   22.140;    2.376;    0.000;19.76375
 430.69;   12.190;    2.435;    0.000; 9.75500
 430.98;   19.430;    3.626;    0.000;15.80375
 431.26;   11.490;    4.383;    0.000; 7.10750
 431.55;   19.870;    3.697;    0.000;16.17250
 431.84;    6.070;   -0.666;    0.000; 6.73625
 432.13;   24.350;    0.749;    0.000;23.60125
 432.41;    1.780;    2.846;    0.000;-1.06625
 432.70;   17.820;    2.501;    0.000;15.31875
 432.99;   10.490;    2.007;    0.000; 8.48250
 433.28;   13.840;    4.089;    0.000; 9.75125
 433.57;   20.830;    0.668;    0.000;20.16250
 433.85;   19.700;    0.570;    0.000;19.13000
 434.14;    6.700;    1.510;    0.000; 5.19000
 434.43;   19.340;    4.943;    0.000;14.39750
 434.72;    9.950;    1.523;    0.000; 8.42750
 435.00;    7.720;    4.381;    0.000; 3.33875
 435.29;    1.790;    3.159;    0.000;-1.36875
 435.58;   16.920;    3.307;    0.000;13.61250
 435.87;    4.290;    0.380;    0.000; 3.91000
 436.15;   12.920;    2.906;    0.000;10.01375
 436.44;   10.940;    2.568;    0.000; 8.37250
 436.73;   19.170;    4.294;    0.000;14.87625
 437.02;    5.940;    2.537;    0.000; 3.40250
 437.30;   12.030;    2.334;    0.000; 9.69625
 437.59;   12.030;    2.810;    0.000; 9.22000
 437.88;   12.380;    5.700;    0.000; 6.68000
 438.17;    4.220;   -0.534;    0.000; 4.75375
 438.45;    5.780;    3.159;    0.000; 2.62125
 438.74;    6.550;    0.505;    0.000; 6.04500
 439.03;   11.770;    2.618;    0.000; 9.15250
 439.32;    7.180;    3.250;    0.000; 3.93000
 439.60;   18.600;    0.890;    0.000;17.71000
 439.89;    5.450;    2.642;    0.000; 2.80750
 440.18;    9.010;    2.490;    0.000; 6.52000
 440.46;    6.740;    0.183;    0.000; 6.55750
 440.75;   20.970;    2.443;    0.000;18.52750
 441.04;    3.850;    0.079;    0.000; 3.77125
 441.33;   19.640;    3.149;    0.000;16.49125
 441.61;    6.450;    2.630;    0.000; 3.82000
 441.90;   21.090;    3.733;    0.000;17.35750
 442.19;    5.670;   -0.200;    0.000; 5.87000
 442.47;   12.950;    3.862;    0.000; 9.08750
 442.76;    2.620;    2.916;    0.000;-0.29625
 443.05;   13.520;    2.666;    0.000;10.85375
 443.34;   11.360;    2.057;    0.000; 9.30250
 443.62;   16.950;    1.426;    0.000;15.52375
 443.91;   -0.500;    0.027;    0.000;-0.52750
 444.20;   37.440;    6.335;    0.000;31.10500
 444.48;   12.470;    1.109;    0.000;11.36125
 444.77;   30.950;    4.639;    0.000;26.31125
 445.06;    8.730;    1.806;    0.000; 6.92375
 445.34;   17.870;    0.406;    0.000;17.46375
 445.63;   -0.480;    0.630;    0.000;-1.11000
 445.92;   29.070;    1.935;    0.000;27.13500
 446.21;   12.860;    3.364;    0.000; 9.49625
 446.49;   13.750;    2.110;    0.000;11.64000
 446.78;   15.680;    2.021;    0.000;13.65875
 447.07;    4.200;    0.465;    0.000; 3.73500
 447.35;    4.340;    0.983;    0.000; 3.35750
 447.64;   23.860;    3.451;    0.000;20.40875
 447.93;    5.960;    1.934;    0.000; 4.02625
 448.21;   15.240;    1.536;    0.000;13.70375
 448.50;    4.570;    1.910;    0.000; 2.66000
 448.79;    6.540;    1.992;    0.000; 4.54750
 449.07;   11.750;    3.325;    0.000; 8.42500
 449.36;   10.610;    1.426;    0.000; 9.18375
 449.65;    2.510;    0.134;    0.000; 2.37625
 449.93;   14.350;    3.255;    0.000;11.09500
 450.22;   11.580;    1.070;    0.000;10.51000
 450.51;   13.040;    3.435;    0.000; 9.60500
 450.79;    9.460;    2.901;    0.000; 6.55875
 451.08;    6.150;    2.376;    0.000; 3.77375
 451.36;   14.030;   -0.282;    0.000;14.31250
 451.65;   13.120;    4.582;    0.000; 8.53750
 451.94;    3.650;    2.245;    0.000; 1.40500
 452.22;   13.260;    1.971;    0.000;11.28875
 452.51;   -0.450;    2.864;    0.000;-3.31375
 452.80;    6.270;    0.808;    0.000; 5.46250
 453.08;    2.310;    3.300;    0.000;-0.99000
 453.37;   18.880;    5.216;    0.000;13.66375
 453.66;    2.830;    1.974;    0.000; 0.85625
 453.94;   12.960;    2.578;    0.000;10.38250
 454.23;    4.520;    0.707;    0.000; 3.81250
 454.51;   20.260;    5.106;    0.000;15.15375
 454.80;    1.270;    1.065;    0.000; 0.20500
 455.09;   17.900;    3.789;    0.000;14.11125
 455.37;   17.390;    2.000;    0.000;15.39000
 455.66;   20.120;    0.929;    0.000;19.19125
 455.95;    7.970;    2.487;    0.000; 5.48250
 456.23;   19.060;    1.810;    0.000;17.25000
 456.52;    5.850;   -1.785;    0.000; 7.63500
 456.80;   10.930;    1.676;    0.000; 9.25375
 457.09;   11.310;    0.610;    0.000;10.70000
 457.38;   18.710;    2.624;    0.000;16.08625
 457.66;   11.510;    2.954;    0.000; 8.55625
 457.95;   15.400;    2.106;    0.000;13.29375
 458.23;    2.620;   -0.848;    0.000; 3.46750
 458.52;   23.110;    3.451;    0.000;19.65875
 458.81;   -0.170;    4.972;    0.000;-5.14250
 459.09;    6.900;    4.175;    0.000; 2.72500
 459.38;    3.630;    0.647;    0.000; 2.98250
 459.66;   12.610;    2.150;    0.000;10.46000
 459.95;   10.980;    3.480;    0.000; 7.50000
 460.23;   17.130;    1.835;    0.000;15.29500
 460.52;   11.060;   -0.050;    0.000;11.11000
 460.81;    5.930;    3.735;    0.000; 2.19500
 461.09;   -2.570;    2.649;    0.000;-5.21875
 461.38;   16.520;    0.196;    0.000;16.32375
 461.66;   -1.170;    2.040;    0.000;-3.21000
 461.95;   10.310;    2.691;    0.000; 7.61875
 462.23;    6.710;    2.905;    0.000; 3.80500
 462.52;   11.070;    1.970;    0.000; 9.10000
 462.81;    5.010;    1.775;    0.000; 3.23500
 463.09;   16.580;    2.996;    0.000;13.58375
 463.38;    2.830;    3.536;    0.000;-0.70625
 463.66;    6.860;    2.416;    0.000; 4.44375
 463.95;   19.640;    0.976;    0.000;18.66375
 464.23;   17.210;    3.136;    0.000;14.07375
 464.52;    5.290;    0.415;    0.000; 4.87500
 464.80;    9.680;    2.267;    0.000; 7.41250
 465.09;   15.910;    4.450;    0.000;11.46000
 465.38;   14.320;    2.135;    0.000;12.18500
 465.66;    3.140;    3.092;    0.000; 0.04750
 465.95;   17.820;    3.005;    0.000;14.81500
 466.23;    5.060;    1.654;    0.000; 3.40625
 466.52;   12.240;    2.730;    0.000; 9.51000
 466.80;   24.390;    4.429;    0.000;19.96125
 467.09;    7.750;    2.030;    0.000; 5.72000
 467.37;   16.440;    2.378;    0.000;14.06250
 467.66;   20.300;    4.521;    0.000;15.77875
 467.94;    9.140;    1.929;    0.000; 7.21125
 468.23;   14.420;    1.577;    0.000;12.84250
 468.51;   14.030;    3.882;    0.000;10.14750
 468.80;    7.120;    3.013;    0.000; 4.10750
 469.08;   16.460;    2.563;    0.000;13.89750
 469.37;   18.750;    3.146;    0.000;15.60375
 469.66;   13.520;    1.077;    0.000;12.44250
 469.94;   10.930;    0.594;    0.000;10.33625
 470.23;    8.380;    0.586;    0.000; 7.79375
 470.51;   15.780;    2.723;    0.000;13.05750
 470.80;   19.850;    2.582;    0.000;17.26750
 471.08;   19.880;    3.061;    0.000;16.81875
 471.37;    7.840;    2.378;    0.000; 5.46250
 471.65;   24.570;    3.132;    0.000;21.43750
 471.94;    5.900;    0.899;    0.000; 5.00125
 472.22;   15.450;    1.457;    0.000;13.99250
 472.51;   14.800;    1.730;    0.000;13.07000
 472.79;   14.200;    3.695;    0.000;10.50500
 473.08;   13.710;    0.592;    0.000;13.11750
 473.36;   22.330;    3.221;    0.000;19.10875
 473.64;    8.940;    1.619;    0.000; 7.32125
 473.93;   14.470;    3.253;    0.000;11.21750
 474.21;    8.630;    2.713;    0.000; 5.91750
 474.50;   17.360;    4.048;    0.000;13.31250
 474.78;   25.770;    2.095;    0.000;23.67500
 475.07;   10.960;    0.941;    0.000;10.01875
 475.35;   20.020;    3.199;    0.000;16.82125
 475.64;   19.460;    2.451;    0.000;17.00875
 475.92;    8.560;    1.299;    0.000; 7.26125
 476.21;   25.110;    0.804;    0.000;24.30625
 476.49;   16.010;    2.276;    0.000;13.73375
 476.78;    6.540;    2.287;    0.000; 4.25250
 477.06;   19.840;    2.473;    0.000;17.36750
 477.35;   16.820;    3.790;    0.000;13.03000
 477.63;    6.300;    1.086;    0.000; 5.21375
 477.91;   19.960;    1.760;    0.000;18.20000
 478.20;   13.420;    1.059;    0.000;12.36125
 478.48;   18.210;    0.538;    0.000;17.67250
 478.77;   20.790;    3.499;    0.000;17.29125
 479.05;   16.220;    3.216;    0.000;13.00375
 479.34;   30.800;    0.761;    0.000;30.03875
 479.62;   28.730;    3.401;    0.000;25.32875
 479.91;   21.900;   -0.785;    0.000;22.68500
 480.19;   35.300;    2.868;    0.000;32.43250
 480.47;    4.100;    0.215;    0.000; 3.88500
 480.76;   16.520;    5.134;    0.000;11.38625
 481.04;   17.360;    2.594;    0.000;14.76625
 481.33;   28.590;    5.226;    0.000;23.36375
 481.61;   22.880;    0.775;    0.000;22.10500
 481.90;   24.490;    3.454;    0.000;21.03625
 482.18;   18.940;    1.354;    0.000;17.58625
 482.46;   25.470;    2.395;    0.000;23.07500
 482.75;   17.270;    3.819;    0.000;13.45125
 483.03;   13.500;    1.339;    0.000;12.16125
 483.32;   18.870;   -0.608;    0.000;19.47750
 483.60;   33.590;    2.681;    0.000;30.90875
 483.88;   20.580;    3.960;    0.000;16.62000
 484.17;   35.280;    1.490;    0.000;33.79000
 484.45;   25.200;    0.410;    0.000;24.79000
 484.74;   35.490;    2.251;    0.000;33.23875
 485.02;   29.350;    2.283;    0.000;27.06750
 485.30;   29.420;    1.720;    0.000;27.70000
 485.59;   18.670;    0.525;    0.000;18.14500
 485.87;   52.120;    1.050;    0.000;51.07000
 486.16;   31.620;    1.403;    0.000;30.21750
 486.44;   26.280;    2.604;    0.000;23.67625
 486.72;   28.610;    1.150;    0.000;27.46000
 487.01;   45.800;    3.671;    0.000;42.12875
 487.29;   41.580;    0.510;    0.000;41.07000
 487.58;   45.510;    5.654;    0.000;39.85625
 487.86;   48.880;    3.342;    0.000;45.53750
 488.14;   47.230;    3.932;    0.000;43.29750
 488.43;   45.350;    0.979;    0.000;44.37125
 488.71;   58.110;    0.730;    0.000;57.38000
 488.99;   62.940;    1.616;    0.000;61.32375
 489.28;   65.400;    0.715;    0.000;64.68500
 489.56;   75.120;    1.239;    0.000;73.88125
 489.85;   71.980;    2.350;    0.000;69.63000
 490.13;   78.840;    2.057;    0.000;76.78250
 490.41;   97.250;    4.855;    0.000;92.39500
 490.70;  102.430;    2.358;    0.000;100.07250
 490.98;  106.130;    1.931;    0.000;104.19875
 491.26;  125.610;   -0.796;    0.000;126.40625
 491.55;  145.840;    2.747;    0.000;143.09250
 491.83;  146.960;    2.797;    0.000;144.16251
 492.11;  164.250;    0.218;    0.000;164.03250
 492.40;  171.060;    1.774;    0.000;169.28625
 492.68;  200.390;    3.876;    0.000;196.51375
 492.96;  224.550;    2.506;    0.000;222.04375
 493.25;  245.680;    3.009;    0.000;242.67124
 493.53;  259.900;    1.435;    0.000;258.46499
 493.81;  284.080;    3.051;    0.000;281.02874
 494.10;  329.840;    2.372;    0.000;327.46750
 494.38;  375.830;    0.340;    0.000;375.48999
 494.66;  400.320;   -0.239;    0.000;400.55876
 494.95;  447.930;    2.470;    0.000;445.45999
 495.23;  481.990;    3.210;    0.000;478.77999
 495.51;  523.510;    4.576;    0.000;518.93376
 495.80;  561.410;    2.500;    0.000;558.90997
 496.08;  640.620;    4.334;    0.000;636.28625
 496.36;  697.880;    2.381;    0.000;695.49875
 496.65;  748.890;    0.871;    0.000;748.01876
 496.93;  822.750;    2.741;    0.000;820.00875
 497.21;  881.770;    0.571;    0.000;881.19877
 497.50;  960.860;    3.068;    0.000;957.79249
 497.78; 1046.210;    1.405;    0.000;1044.80496
 498.06; 1117.130;    0.853;    0.000;1116.27750
 498.34; 1223.400;    2.364;    0.000;1221.03627
 498.63; 1290.500;    3.320;    0.000;1287.18000
 498.91; 1410.230;    4.931;    0.000;1405.29873
 499.19; 1502.960;    1.158;    0.000;1501.80246
 499.48; 1600.080;    2.360;    0.000;1597.71996
 499.76; 1724.130;    3.057;    0.000;1721.07250
 500.04; 1864.810;    4.120;    0.000;1860.69006
 500.32; 1964.440;    3.015;    0.000;1961.42494
 500.61; 2075.610;    2.210;    0.000;2073.40011
 500.89; 2204.440;    2.584;    0.000;2201.85619
 501.17; 2343.970;    1.663;    0.000;2342.30747
 501.46; 2501.500;    3.491;    0.000;2498.00875
 501.74; 2665.610;    4.365;    0.000;2661.24511
 502.02; 2833.240;    3.974;    0.000;2829.26624
 502.30; 3001.090;    3.686;    0.000;2997.40384
 502.59; 3119.030;    3.149;    0.000;3115.88128
 502.87; 3314.940;    2.419;    0.000;3312.52119
 503.15; 3477.270;    3.114;    0.000;3474.15627
 503.43; 3683.990;    1.428;    0.000;3682.56249
 503.72; 3864.770;    1.790;    0.000;3862.98002
 504.00; 4065.540;    1.394;    0.000;4064.14629
 504.28; 4261.960;    2.723;    0.000;4259.23746
 504.56; 4481.520;    3.711;    0.000;4477.80877
 504.85; 4701.310;    1.084;    0.000;4700.22631
 505.13; 4905.220;    3.199;    0.000;4902.02146
 505.41; 5103.080;    1.260;    0.000;5101.82008
 505.69; 5340.860;    4.202;    0.000;5336.65736
 505.98; 5580.020;    2.303;    0.000;5577.71752
 506.26; 5805.410;    2.465;    0.000;5802.94516
 506.54; 6043.960;    1.691;    0.000;6042.26871
 506.82; 6331.300;    1.630;    0.000;6329.66980
 507.11; 6547.430;    2.685;    0.000;6544.74518
 507.39; 6796.690;    2.963;    0.000;6793.72744
 507.67; 7102.890;    2.545;    0.000;7100.34514
 507.95; 7306.230;    4.004;    0.000;7302.22623
 508.23; 7632.550;    1.665;    0.000;7630.88480
 508.52; 7868.210;    4.427;    0.000;7863.78246
 508.80; 8132.380;    2.648;    0.000;8129.73238
 509.08; 8463.140;    3.473;    0.000;8459.66715
 509.36; 8698.800;    0.114;    0.000;8698.68605
 509.65; 8992.240;    2.144;    0.000;8990.09648
 509.93; 9304.150;    1.548;    0.000;9302.60289
 510.21; 9599.750;    1.577;    0.000;9598.17250
 510.49; 9869.070;    2.626;    0.000;9866.44406
 510.77;10196.130;    2.529;    0.000;10193.60113
 511.06;10483.950;    1.059;    0.000;10482.89145
 511.34;10800.340;    1.541;    0.000;10798.79859
 511.62;11083.320;   -1.497;    0.000;11084.81781
 511.90;11416.650;    3.204;    0.000;11413.44664
 512.18;11719.100;    1.067;    0.000;11718.03211
 512.47;12049.070;    5.470;    0.000;12043.60031
 512.75;12312.160;    1.100;    0.000;12311.06016
 513.03;12636.360;    4.050;    0.000;12632.31035
 513.31;12981.380;    1.416;    0.000;12979.96363
 513.59;13295.450;    3.094;    0.000;13292.35645
 513.87;13551.890;    1.499;    0.000;13550.39090
 514.16;13899.160;    3.134;    0.000;13896.02641
 514.44;14239.420;    1.394;    0.000;14238.02617
 514.72;14525.080;    3.402;    0.000;14521.67758
 515.00;14820.150;    2.842;    0.000;14817.30789
 515.28;15186.570;    3.527;    0.000;15183.04281
 515.56;15463.110;    2.730;    0.000;15460.38035
 515.85;15776.580;    0.644;    0.000;15775.93633
 516.13;16107.970;    2.204;    0.000;16105.76598
 516.41;16470.289;    1.971;    0.000;16468.31781
 516.69;16702.391;    3.354;    0.000;16699.03688
 516.97;17036.061;    4.766;    0.000;17031.29430
 517.25;17332.721;    2.075;    0.000;17330.64570
 517.54;17615.131;    4.198;    0.000;17610.93336
 517.82;17912.311;    2.642;    0.000;17909.66805
 518.10;18212.881;    1.928;    0.000;18210.95336
 518.38;18554.221;    3.320;    0.000;18550.90070
 518.66;18810.529;    3.017;    0.000;18807.51180
 518.94;19110.551;   -0.038;    0.000;19110.58828
 519.22;19378.221;    3.063;    0.000;19375.15820
 519.51;19689.830;    0.155;    0.000;19689.67508
 519.79;19894.971;   -0.216;    0.000;19895.18695
 520.07;20202.391;    3.670;    0.000;20198.72062
 520.35;20481.779;    3.328;    0.000;20478.45180
 520.63;20764.590;    2.414;    0.000;20762.17609
 520.91;21036.109;    0.201;    0.000;21035.90812
 521.19;21325.449;    3.025;    0.000;21322.42422
 521.47;21547.350;    1.909;    0.000;21545.44086
 521.75;21797.631;    2.081;    0.000;21795.54961
 522.04;22082.891;    2.229;    0.000;22080.66188
 522.32;22375.400;    0.170;    0.000;22375.23039
 522.60;22545.381;    3.899;    0.000;22541.48211
 522.88;22754.449;    3.216;    0.000;22751.23297
 523.16;22980.689;    2.065;    0.000;22978.62445
 523.44;23306.270;    2.495;    0.000;23303.77453
 523.72;23536.420;    3.304;    0.000;23533.11617
 524.00;23773.631;    2.655;    0.000;23770.97586
 524.28;23979.119;    2.943;    0.000;23976.17664
 524.57;24256.990;    2.586;    0.000;24254.40398
 524.85;24504.180;    4.845;    0.000;24499.33469
 525.13;24696.689;    4.231;    0.000;24692.45820
 525.41;24946.180;    1.692;    0.000;24944.48719
 525.69;25161.619;    1.334;    0.000;25160.28539
 525.97;25365.359;    4.061;    0.000;25361.29812
 526.25;25506.189;    0.954;    0.000;25505.23570
 526.53;25696.551;    4.273;    0.000;25692.27828
 526.81;25951.619;    0.319;    0.000;25951.30039
 527.09;26127.500;    1.679;    0.000;26125.82125
 527.37;26336.090;    0.134;    0.000;26335.95609
 527.65;26462.801;    3.938;    0.000;26458.86328
 527.93;26702.279;    1.886;    0.000;26700.39305
 528.22;26856.141;    3.976;    0.000;26852.16438
 528.50;27133.529;    1.497;    0.000;27132.03180
 528.78;27301.070;    4.605;    0.000;27296.46531
 529.06;27438.359;    3.001;    0.000;27435.35812
 529.34;27632.590;    3.697;    0.000;27628.89234
 529.62;27842.410;    2.995;    0.000;27839.41516
 529.90;28012.391;    2.693;    0.000;28009.69812
 530.18;28123.961;    0.646;    0.000;28123.31469
 530.46;28330.750;    3.618;    0.000;28327.13250
 530.74;28482.029;    4.294;    0.000;28477.73555
 531.02;28695.689;    2.640;    0.000;28693.04945
 531.30;28810.051;    0.880;    0.000;28809.17078
 531.58;28956.510;    3.714;    0.000;28952.79602
 531.86;29029.260;    2.035;    0.000;29027.22477
 532.14;29273.650;    4.215;    0.000;29269.43539
 532.42;29368.510;    2.910;    0.000;29365.59977
 532.70;29600.010;    3.036;    0.000;29596.97352
 532.98;29698.641;    0.534;    0.000;29698.10688
 533.26;29871.529;    2.263;    0.000;29869.26680
 533.54;29993.400;    1.962;    0.000;29991.43789
 533.82;30116.000;    4.854;    0.000;30111.14625
 534.10;30224.160;    3.501;    0.000;30220.65891
 534.38;30408.090;    0.683;    0.000;30407.40734
 534.66;30537.529;    4.026;    0.000;30533.50305
 534.94;30652.609;    2.694;    0.000;30649.91563
 535.22;30761.900;    2.501;    0.000;30759.39914
 535.50;30850.061;    1.347;    0.000;30848.71305
 535.78;30993.080;    4.506;    0.000;30988.57383
 536.06;31123.570;    5.009;    0.000;31118.56156
 536.34;31277.930;    2.092;    0.000;31275.83719
 536.62;31332.320;    3.473;    0.000;31328.84781
 536.90;31504.820;    4.017;    0.000;31500.80281
 537.18;31617.910;    2.636;    0.000;31615.27391
 537.46;31720.320;    0.501;    0.000;31719.81906
 537.74;31797.740;    3.977;    0.000;31793.76273
 538.02;31992.270;    5.509;    0.000;31986.76078
 538.30;32024.900;    5.718;    0.000;32019.18289
 538.58;32152.859;    2.925;    0.000;32149.93438
 538.86;32239.230;    4.149;    0.000;32235.08172
 539.14;32375.949;    3.205;    0.000;32372.74422
 539.42;32510.039;    5.500;    0.000;32504.53906
 539.70;32459.289;    1.393;    0.000;32457.89656
 539.98;32673.721;    2.892;    0.000;32670.82820
 540.26;32766.930;    1.592;    0.000;32765.33719
 540.54;32763.551;    4.443;    0.000;32759.10828
 540.82;32886.270;    1.806;    0.000;32884.46328
 541.10;33031.230;    4.010;    0.000;33027.22047
 541.38;33241.988;    2.525;    0.000;33239.46328
 541.66;33172.430;    4.036;    0.000;33168.39344
 541.94;33238.809;    5.741;    0.000;33233.06734
 542.22;33411.969;    6.370;    0.000;33405.59875
 542.50;33548.230;    2.181;    0.000;33546.04922
 542.78;33477.941;    3.706;    0.000;33474.23516
 543.06;33653.270;    1.092;    0.000;33652.17703
 543.34;33768.621;    4.554;    0.000;33764.06734
 543.62;33839.441;    1.795;    0.000;33837.64641
 543.90;33853.781;    2.027;    0.000;33851.75375
 544.17;33933.801;    2.539;    0.000;33931.26203
 544.45;34087.762;    5.716;    0.000;34082.04547
 544.73;34027.180;    3.084;    0.000;34024.09594
 545.01;34107.480;    3.473;    0.000;34104.00797
 545.29;34220.211;    4.139;    0.000;34216.07219
 545.57;34366.379;    5.057;    0.000;34361.32141
 545.85;34299.898;    3.080;    0.000;34296.81844
 546.13;34368.750;    3.045;    0.000;34365.70500
 546.41;34473.590;    5.004;    0.000;34468.58609
 546.69;34473.102;    5.885;    0.000;34467.21656
 546.97;34537.211;    3.510;    0.000;34533.70094
 547.25;34685.461;    5.443;    0.000;34680.01844
 547.52;34615.980;    6.606;    0.000;34609.37422
 547.80;34724.879;    4.670;    0.000;34720.20891
 548.08;34751.219;    2.263;    0.000;34748.95625
 548.36;34823.781;    4.355;    0.000;34819.42625
 548.64;34872.160;    4.756;    0.000;34867.40391
 548.92;34836.789;    3.705;    0.000;34833.08406
 549.20;34949.621;    3.259;    0.000;34946.36234
 549.48;35027.852;    4.170;    0.000;35023.68156
 549.76;35015.461;    4.735;    0.000;35010.72594
 550.04;34987.852;    5.597;    0.000;34982.25406
 550.31;35046.281;    1.956;    0.000;35044.32500
 550.59;35090.539;    3.471;    0.000;35087.06781
 550.87;35127.141;    2.305;    0.000;35124.83562
 551.15;35160.922;    5.196;    0.000;35155.72563
 551.43;35213.051;    2.901;    0.000;35210.14953
 551.71;35234.199;    4.271;    0.000;35229.92797
 551.99;35215.238;    2.554;    0.000;35212.68453
 552.27;35290.461;    4.544;    0.000;35285.91719
 552.54;35301.488;    3.098;    0.000;35298.39078
 552.82;35373.320;    2.580;    0.000;35370.74031
 553.10;35335.621;    3.609;    0.000;35332.01234
 553.38;35293.949;    5.986;    0.000;35287.96297
 553.66;35398.879;    4.290;    0.000;35394.58891
 553.94;35478.570;    0.865;    0.000;35477.70531
 554.22;35356.180;    4.026;    0.000;35352.15344
 554.49;35346.738;    1.909;    0.000;35344.82953
 554.77;35464.641;    3.175;    0.000;35461.46563
 555.05;35388.852;    4.770;    0.000;35384.08156
 555.33;35383.898;    3.230;    0.000;35380.66844
 555.61;35447.730;    3.481;    0.000;35444.24922
 555.89;35403.289;    0.751;    0.000;35402.53781
 556.16;35471.051;    1.086;    0.000;35469.96453
 556.44;35366.730;    1.997;    0.000;35364.73297
 556.72;35455.719;    5.874;    0.000;35449.84500
 557.00;35386.930;    2.216;    0.000;35384.71344
 557.28;35479.820;    2.520;    0.000;35477.30031
 557.56;35431.609;    1.341;    0.000;35430.26813
 557.83;35480.078;    6.726;    0.000;35473.35187
 558.11;35385.762;    6.404;    0.000;35379.35797
 558.39;35314.211;    2.997;    0.000;35311.21344
 558.67;35319.410;    1.645;    0.000;35317.76516
 558.95;35388.359;    1.871;    0.000;35386.48812
 559.23;35358.500;    3.966;    0.000;35354.53375
 559.50;35321.879;    3.114;    0.000;35318.76516
 559.78;35357.859;    2.484;    0.000;35355.37562
 560.06;35280.328;    3.674;    0.000;35276.65438
 560.34;35297.988;    4.381;    0.000;35293.60703
 560.62;35243.461;    5.099;    0.000;35238.36219
 560.89;35226.371;    3.236;    0.000;35223.13484
 561.17;35156.551;    3.039;    0.000;35153.51203
 561.45;35119.422;    6.720;    0.000;35112.70188
 561.73;35080.012;    3.614;    0.000;35076.39797
 562.00;35041.719;    1.837;    0.000;35039.88125
 562.28;35086.629;    4.736;    0.000;35081.89266
 562.56;35007.539;    3.688;    0.000;35003.85156
 562.84;34993.949;    5.670;    0.000;34988.27922
 563.12;34912.840;    1.199;    0.000;34911.64109
 563.39;34864.211;    2.850;    0.000;34861.36094
 563.67;34805.789;    4.331;    0.000;34801.45781
 563.95;34782.352;    3.725;    0.000;34778.62656
 564.23;34665.301;    0.817;    0.000;34664.48328
 564.50;34662.738;    3.756;    0.000;34658.98203
 564.78;34664.031;    4.778;    0.000;34659.25375
 565.06;34503.539;    4.095;    0.000;34499.44406
 565.34;34538.531;    3.490;    0.000;34535.04125
 565.61;34476.828;    3.579;    0.000;34473.24938
 565.89;34419.020;    4.356;    0.000;34414.66328
 566.17;34365.031;    1.107;    0.000;34363.92375
 566.45;34361.270;    3.446;    0.000;34357.82328
 566.73;34254.121;    4.733;    0.000;34249.38859
 567.00;34135.898;    2.011;    0.000;34133.88719
 567.28;34091.102;    4.403;    0.000;34086.69906
 567.56;34012.660;    4.230;    0.000;34008.43016
 567.83;34027.961;    4.820;    0.000;34023.14094
 568.11;33867.809;    4.360;    0.000;33863.44859
 568.39;33814.770;    3.311;    0.000;33811.45828
 568.67;33738.270;    4.975;    0.000;33733.29453
 568.94;33680.309;    4.472;    0.000;33675.83609
 569.22;33604.949;    2.889;    0.000;33602.06047
 569.50;33562.590;    2.293;    0.000;33560.29734
 569.78;33465.500;    0.215;    0.000;33465.28500
 570.05;33468.352;    2.606;    0.000;33465.74531
 570.33;33392.410;    2.001;    0.000;33390.40891
 570.61;33220.910;    5.050;    0.000;33215.86016
 570.88;33155.879;    1.764;    0.000;33154.11516
 571.16;33034.859;    2.787;    0.000;33032.07188
 571.44;33004.148;    0.548;    0.000;33003.60094
 571.72;32896.281;    2.101;    0.000;32894.18000
 571.99;32823.078;    2.487;    0.000;32820.59063
 572.27;32725.340;    2.940;    0.000;32722.39984
 572.55;32627.961;    2.769;    0.000;32625.19219
 572.82;32537.420;    3.071;    0.000;32534.34867
 573.10;32462.330;    4.463;    0.000;32457.86758
 573.38;32313.150;    4.084;    0.000;32309.06664
 573.65;32210.820;    4.691;    0.000;32206.12906
 573.93;32177.600;    2.601;    0.000;32174.99836
 574.21;32026.211;    2.024;    0.000;32024.18719
 574.48;31898.029;    4.831;    0.000;31893.19805
 574.76;31782.811;    4.536;    0.000;31778.27430
 575.04;31703.500;    5.972;    0.000;31697.52750
 575.32;31620.900;    0.036;    0.000;31620.86414
 575.59;31474.840;    5.807;    0.000;31469.03234
 575.87;31376.949;    3.089;    0.000;31373.86047
 576.15;31278.320;    4.832;    0.000;31273.48781
 576.42;31151.881;    1.260;    0.000;31150.62086
 576.70;30978.410;    2.868;    0.000;30975.54266
 576.98;30989.770;    4.479;    0.000;30985.29078
 577.25;30816.270;    3.994;    0.000;30812.27578
 577.53;30726.920;    2.311;    0.000;30724.60867
 577.80;30625.619;    4.555;    0.000;30621.06414
 578.08;30472.580;    1.016;    0.000;30471.56383
 578.36;30351.189;    3.935;    0.000;30347.25445
 578.63;30212.141;    2.959;    0.000;30209.18187
 578.91;30156.279;    3.149;    0.000;30153.13055
 579.19;29999.070;    3.899;    0.000;29995.17156
 579.46;29952.650;    3.882;    0.000;29948.76789
 579.74;29800.061;    0.826;    0.000;29799.23430
 580.02;29710.551;    0.681;    0.000;29709.86953
 580.29;29511.721;    3.734;    0.000;29507.98695
 580.57;29476.350;    2.340;    0.000;29474.00961
 580.84;29299.010;    1.306;    0.000;29297.70352
 581.12;29160.029;    4.154;    0.000;29155.87555
 581.40;29026.471;    2.944;    0.000;29023.52695
 581.67;28921.090;    4.294;    0.000;28916.79609
 581.95;28816.490;    1.742;    0.000;28814.74773
 582.23;28671.420;    2.881;    0.000;28668.53867
 582.50;28426.740;    4.459;    0.000;28422.28148
 582.78;28325.779;    2.859;    0.000;28322.92055
 583.05;28145.869;    3.785;    0.000;28142.08414
 583.33;28016.510;    2.399;    0.000;28014.11102
 583.61;27919.910;    6.227;    0.000;27913.68266
 583.88;27778.189;    3.654;    0.000;27774.53570
 584.16;27646.689;    1.746;    0.000;27644.94320
 584.43;27505.891;    3.211;    0.000;27502.67937
 584.71;27373.340;    2.947;    0.000;27370.39234
 584.99;27277.100;    3.717;    0.000;27273.38211
 585.26;27091.080;    2.017;    0.000;27089.06258
 585.54;26961.029;    1.204;    0.000;26959.82555
 585.81;26872.740;    4.169;    0.000;26868.57148
 586.09;26714.301;    3.445;    0.000;26710.85578
 586.37;26609.051;    1.883;    0.000;26607.16828
 586.64;26418.650;    4.314;    0.000;26414.33664
 586.92;26292.820;    1.679;    0.000;26291.14156
 587.19;26169.410;    3.080;    0.000;26166.33016
 587.47;26004.520;    2.747;    0.000;26001.77203
 587.74;25909.961;    4.613;    0.000;25905.34844
 588.02;25748.580;    4.313;    0.000;25744.26758
 588.30;25612.330;    3.340;    0.000;25608.99008
 588.57;25445.189;    3.376;    0.000;25441.81320
 588.85;25278.850;    4.094;    0.000;25274.75586
 589.12;25224.910;    4.117;    0.000;25220.79266
 589.40;25038.850;    2.787;    0.000;25036.06211
 589.67;24934.189;    2.685;    0.000;24931.50445
 589.95;24816.221;    7.534;    0.000;24808.68695
 590.22;24653.820;    2.001;    0.000;24651.81906
 590.50;24558.100;    3.696;    0.000;24554.40336
 590.77;24442.391;    1.840;    0.000;24440.55062
 591.05;24219.029;    4.359;    0.000;24214.67055
 591.33;24100.551;    1.175;    0.000;24099.37578
 591.60;23964.830;    1.119;    0.000;23963.71133
 591.88;23817.520;    4.168;    0.000;23813.35203
 592.15;23702.539;    3.402;    0.000;23699.13656
 592.43;23532.301;    2.320;    0.000;23529.98078
 592.70;23397.891;    3.095;    0.000;23394.79562
 592.98;23268.520;    3.245;    0.000;23265.27453
 593.25;23096.061;    3.697;    0.000;23092.36305
 593.53;22970.350;    2.335;    0.000;22968.01461
 593.80;22824.680;    3.291;    0.000;22821.38844
 594.08;22570.471;    1.874;    0.000;22568.59695
 594.35;22476.070;    4.060;    0.000;22472.01031
 594.63;22308.891;    2.872;    0.000;22306.01813
 594.90;22182.369;    2.609;    0.000;22179.76039
 595.18;22053.039;    3.821;    0.000;22049.21781
 595.45;21869.000;    4.101;    0.000;21864.89875
 595.73;21720.020;    3.088;    0.000;21716.93203
 596.00;21636.051;    5.176;    0.000;21630.87453
 596.28;21440.750;    2.150;    0.000;21438.60000
 596.55;21291.230;    4.939;    0.000;21286.29172
 596.83;21175.770;    1.852;    0.000;21173.91703
 597.10;20969.910;    4.657;    0.000;20965.25266
 597.38;20839.990;    3.055;    0.000;20836.93523
 597.65;20668.359;    2.369;    0.000;20665.99062
 597.93;20526.830;    0.613;    0.000;20526.21758
 598.20;20379.270;    3.918;    0.000;20375.35203
 598.48;20274.510;    1.860;    0.000;20272.64977
 598.75;20116.910;    3.500;    0.000;20113.41016
 599.03;19948.100;    4.341;    0.000;19943.75836
 599.30;19832.680;    1.952;    0.000;19830.72719
 599.58;19709.760;    3.211;    0.000;19706.54852
 599.85;19508.301;    5.479;    0.000;19502.82203
 600.12;19399.811;    2.605;    0.000;19397.20555
 600.40;19262.221;    4.610;    0.000;19257.61070
 600.67;19105.150;    3.875;    0.000;19101.27539
 600.95;19003.039;    3.932;    0.000;18999.10656
 601.22;18826.551;    4.343;    0.000;18822.20828
 601.50;18666.711;    3.861;    0.000;18662.84969
 601.77;18605.650;    2.813;    0.000;18602.83789
 602.05;18395.570;    3.898;    0.000;18391.67281
 602.32;18323.609;    2.983;    0.000;18320.62687
 602.59;18213.930;    2.529;    0.000;18211.40094
 602.87;18045.400;    4.855;    0.000;18040.54539
 603.14;17902.381;    3.612;    0.000;17898.76836
 603.42;17773.500;    2.557;    0.000;17770.94250
 603.69;17640.891;    1.731;    0.000;17639.15937
 603.97;17557.920;    4.331;    0.000;17553.58867
 604.24;17464.699;    3.800;    0.000;17460.89922
 604.51;17280.170;    3.688;    0.000;17276.48242
 604.79;17111.320;    3.882;    0.000;17107.43781
 605.06;17031.490;    3.945;    0.000;17027.54523
 605.34;16900.490;    4.537;    0.000;16895.95273
 605.61;16863.990;    2.057;    0.000;16861.93273
 605.89;16711.740;    3.287;    0.000;16708.45273
 606.16;16602.910;    4.349;    0.000;16598.56141
 606.43;16530.221;    5.481;    0.000;16524.73945
 606.71;16377.930;    2.475;    0.000;16375.45469
 606.98;16284.810;    2.328;    0.000;16282.48207
 607.26;16104.670;    3.761;    0.000;16100.90867
 607.53;16048.420;    2.716;    0.000;16045.70367
 607.80;15873.250;    2.881;    0.000;15870.36875
 608.08;15808.960;    3.045;    0.000;15805.91496
 608.35;15699.820;    3.132;    0.000;15696.68781
 608.62;15601.900;    2.546;    0.000;15599.35414
 608.90;15455.810;    1.881;    0.000;15453.92832
 609.17;15407.430;    1.808;    0.000;15405.62219
 609.45;15332.790;    3.072;    0.000;15329.71754
 609.72;15234.690;    4.076;    0.000;15230.61418
 609.99;15084.820;    1.740;    0.000;15083.08031
 610.27;15012.700;    3.930;    0.000;15008.77020
 610.54;14918.960;   -0.248;    0.000;14919.20746
 610.81;14814.700;    3.979;    0.000;14810.72145
 611.09;14743.270;    2.641;    0.000;14740.62828
 611.36;14648.540;    0.728;    0.000;14647.81254
 611.64;14525.350;    3.644;    0.000;14521.70586
 611.91;14472.370;    2.205;    0.000;14470.16512
 612.18;14284.140;    3.130;    0.000;14281.00965
 612.46;14228.710;    4.631;    0.000;14224.07871
 612.73;14107.070;    1.941;    0.000;14105.12906
 613.00;14033.440;    3.451;    0.000;14029.98918
 613.28;13934.030;    2.829;    0.000;13931.20152
 613.55;13800.090;    5.354;    0.000;13794.73609
 613.82;13689.440;    2.598;    0.000;13686.84293
 614.10;13563.610;    2.566;    0.000;13561.04410
 614.37;13442.200;    0.998;    0.000;13441.20270
 614.64;13294.790;    1.727;    0.000;13293.06254
 614.92;13130.610;    1.755;    0.000;13128.85535
 615.19;12988.310;    3.310;    0.000;12984.99957
 615.46;12834.470;    3.815;    0.000;12830.65473
 615.74;12644.620;    3.493;    0.000;12641.12762
 616.01;12411.510;   -0.661;    0.000;12412.17102
 616.28;12281.110;    3.483;    0.000;12277.62785
 616.56;12040.530;    1.890;    0.000;12038.64027
 616.83;11866.360;    2.476;    0.000;11863.88410
 617.10;11736.190;    4.282;    0.000;11731.90793
 617.37;11770.880;    2.747;    0.000;11768.13238
 617.65;11834.690;    1.979;    0.000;11832.71168
 617.92;11941.560;    3.259;    0.000;11938.30082
 618.19;11838.760;    3.304;    0.000;11835.45602
 618.47;11765.100;    2.418;    0.000;11762.68211
 618.74;11703.660;    2.545;    0.000;11701.11516
 619.01;11632.420;    5.466;    0.000;11626.95367
 619.28;11584.140;    6.039;    0.000;11578.10090
 619.56;11560.860;    4.155;    0.000;11556.70535
 619.83;11471.860;    3.957;    0.000;11467.90285
 620.10;11377.820;    3.467;    0.000;11374.35281
 620.38;11329.530;    2.330;    0.000;11327.20027
 620.65;11224.770;    3.352;    0.000;11221.41703
 620.92;11177.020;    2.168;    0.000;11174.85203
 621.19;11225.070;    4.168;    0.000;11220.90281
 621.47;11184.560;    0.951;    0.000;11183.60832
 621.74;11239.330;    4.323;    0.000;11235.00758
 622.01;11251.780;    1.462;    0.000;11250.31777
 622.28;11210.680;    4.025;    0.000;11206.65469
 622.56;11179.270;    2.351;    0.000;11176.91828
 622.83;11136.490;    1.730;    0.000;11134.76023
 623.10;11070.500;    2.729;    0.000;11067.77125
 623.38;11070.730;    2.005;    0.000;11068.72547
 623.65;11037.850;    4.239;    0.000;11033.61086
 623.92;10956.150;    1.536;    0.000;10954.61414
 624.19;10922.540;   -0.880;    0.000;10923.42004
 624.46;10860.890;    3.061;    0.000;10857.82840
 624.74;10817.060;    3.045;    0.000;10814.01457
 625.01;10780.720;    5.025;    0.000;10775.69473
 625.28;10731.880;    1.938;    0.000;10729.94238
 625.55;10680.760;    1.933;    0.000;10678.82727
 625.83;10655.060;    3.122;    0.000;10651.93707
 626.10;10587.040;    3.759;    0.000;10583.28129
 626.37;10545.770;    1.891;    0.000;10543.87828
 626.64;10500.890;    2.188;    0.000;10498.70215
 626.92;10411.300;    1.146;    0.000;10410.15355
 627.19;10413.940;    3.395;    0.000;10410.54543
 627.46;10333.530;    1.855;    0.000;10331.67527
 627.73;10310.650;   -0.625;    0.000;10311.27539
 628.00;10281.950;    4.034;    0.000;10277.91645
 628.28;10206.460;    2.981;    0.000;10203.47871
 628.55;10170.700;    0.068;    0.000;10170.63270
 628.82;10191.890;    1.947;    0.000;10189.94215
 629.09;10044.500;    4.360;    0.000;10040.14000
 629.36;10047.240;    5.664;    0.000;10041.57648
 629.64; 9990.780;    0.757;    0.000;9990.02277
 629.91; 9958.070;    6.573;    0.000;9951.49781
 630.18; 9929.450;    3.014;    0.000;9926.43645
 630.45; 9883.040;    0.545;    0.000;9882.49504
 630.72; 9821.010;   -1.060;    0.000;9822.06977
 631.00; 9788.040;    1.430;    0.000;9786.61004
 631.27; 9727.390;    2.735;    0.000;9724.65465
 631.54; 9713.980;    1.822;    0.000;9712.15797
 631.81; 9637.360;    3.679;    0.000;9633.68160
 632.08; 9637.780;    3.724;    0.000;9634.05652
 632.35; 9513.330;    2.265;    0.000;9511.06508
 632.63; 9488.570;    4.170;    0.000;9484.40031
 632.90; 9468.520;    2.181;    0.000;9466.33828
 633.17; 9441.370;    1.319;    0.000;9440.05137
 633.44; 9420.460;    3.421;    0.000;9417.03871
 633.71; 9438.370;    3.719;    0.000;9434.65137
 633.98; 9361.710;    0.863;    0.000;9360.84746
 634.25; 9333.410;    4.139;    0.000;9329.27141
 634.53; 9307.390;    3.731;    0.000;9303.65840
 634.80; 9301.640;    2.301;    0.000;9299.33840
 635.07; 9286.280;    2.280;    0.000;9284.00027
 635.34; 9305.460;    4.559;    0.000;9300.90121
 635.61; 9311.270;    4.886;    0.000;9306.38328
 635.88; 9278.830;    2.765;    0.000;9276.06508
 636.15; 9261.530;    3.779;    0.000;9257.75152
 636.43; 9311.960;    3.138;    0.000;9308.82246
 636.70; 9300.400;    0.309;    0.000;9300.09164
 636.97; 9283.510;    0.026;    0.000;9283.48352
 637.24; 9159.570;    2.896;    0.000;9156.67406
 637.51; 9027.850;    4.227;    0.000;9023.62211
 637.78; 8882.300;    1.205;    0.000;8881.09480
 638.05; 8797.430;   -0.521;    0.000;8797.95094
 638.32; 8809.570;    4.594;    0.000;8804.97656
 638.60; 8727.930;    1.989;    0.000;8725.94094
 638.87; 8658.040;    0.371;    0.000;8657.66879
 639.14; 8629.300;    4.139;    0.000;8625.16105
 639.41; 8517.030;    0.873;    0.000;8516.15777
 639.68; 8519.590;    3.072;    0.000;8516.51734
 639.95; 8450.040;    1.040;    0.000;8449.00004
 640.22; 8385.930;    3.735;    0.000;8382.19469
 640.49; 8343.560;    2.639;    0.000;8340.92082
 640.76; 8268.410;    5.461;    0.000;8262.94891
 641.03; 8168.110;    0.767;    0.000;8167.34236
 641.30; 8067.710;    4.760;    0.000;8062.94996
 641.58; 7958.830;    0.679;    0.000;7958.15133
 641.85; 7882.250;    3.010;    0.000;7879.24000
 642.12; 7820.810;    1.204;    0.000;7819.60631
 642.39; 7799.650;    4.154;    0.000;7795.49615
 642.66; 7722.990;    1.847;    0.000;7721.14273
 642.93; 7645.780;    1.470;    0.000;7644.30979
 643.20; 7587.330;    1.317;    0.000;7586.01258
 643.47; 7554.070;    3.454;    0.000;7550.61607
 643.74; 7494.150;    0.748;    0.000;7493.40240
 644.01; 7437.000;    3.763;    0.000;7433.23750
 644.28; 7363.700;    0.605;    0.000;7363.09520
 644.55; 7373.290;    2.486;    0.000;7370.80379
 644.82; 7308.010;    2.384;    0.000;7305.62602
 645.09; 7256.770;    0.360;    0.000;7256.41002
 645.36; 7214.780;    3.155;    0.000;7211.62479
 645.63; 7142.570;    2.894;    0.000;7139.67607
 645.91; 7096.880;    3.947;    0.000;7092.93238
 646.18; 7096.740;    3.690;    0.000;7093.05023
 646.45; 7048.450;    0.995;    0.000;7047.45520
 646.72; 6975.090;    1.101;    0.000;6973.98859
 646.99; 6896.620;    1.396;    0.000;6895.22387
 647.26; 6919.530;    1.024;    0.000;6918.50604
 647.53; 6846.640;    1.119;    0.000;6845.52139
 647.80; 6821.400;    1.765;    0.000;6819.63490
 648.07; 6761.940;    0.945;    0.000;6760.99494
 648.34; 6707.920;    1.820;    0.000;6706.09992
 648.61; 6667.540;    1.154;    0.000;6666.38629
 648.88; 6618.970;    2.699;    0.000;6616.27146
 649.15; 6579.820;    1.045;    0.000;6578.77482
 649.42; 6565.640;    2.971;    0.000;6562.66889
 649.69; 6502.290;   -1.864;    0.000;6504.15379
 649.96; 6464.650;    0.123;    0.000;6464.52740
 650.23; 6416.450;   -1.247;    0.000;6417.69770
 650.50; 6404.140;    2.479;    0.000;6401.66139
 650.77; 6339.310;   -0.845;    0.000;6340.15506
 651.04; 6308.430;    4.423;    0.000;6304.00768
 651.31; 6259.890;    1.202;    0.000;6258.68764
 651.58; 6240.060;    1.992;    0.000;6238.06756
 651.85; 6178.930;    0.651;    0.000;6178.27893
 652.12; 6164.120;    1.250;    0.000;6162.87012
 652.39; 6103.320;    2.362;    0.000;6100.95732
 652.66; 6098.670;    3.281;    0.000;6095.38867
 652.93; 6045.800;    2.255;    0.000;6043.54480
 653.20; 6012.700;    2.949;    0.000;6009.75145
 653.47; 5942.210;    0.469;    0.000;5941.74121
 653.74; 5905.260;    4.386;    0.000;5900.87352
 654.01; 5878.750;    2.973;    0.000;5875.77750
 654.28; 5849.400;    1.301;    0.000;5848.09865
 654.55; 5817.200;   -1.832;    0.000;5819.03270
 654.81; 5731.650;    3.639;    0.000;5728.01115
 655.08; 5733.140;    0.624;    0.000;5732.51639
 655.35; 5686.540;    4.320;    0.000;5682.22004
 655.62; 5647.440;   -1.529;    0.000;5648.96869
 655.89; 5605.550;    2.852;    0.000;5602.69730
 656.16; 5576.570;    0.510;    0.000;5576.05982
 656.43; 5515.230;    3.440;    0.000;5511.78998
 656.70; 5481.220;    1.716;    0.000;5479.50396
 656.97; 5465.340;    2.947;    0.000;5462.39234
 657.24; 5408.770;    2.443;    0.000;5406.32752
 657.51; 5375.050;    5.190;    0.000;5369.85980
 657.78; 5373.880;    2.088;    0.000;5371.79238
 658.05; 5304.750;    2.378;    0.000;5302.37250
 658.32; 5283.740;    2.024;    0.000;5281.71648
 658.59; 5229.780;    2.130;    0.000;5227.64979
 658.86; 5193.760;    1.824;    0.000;5191.93602
 659.12; 5167.200;    2.666;    0.000;5164.53395
 659.39; 5095.960;    1.124;    0.000;5094.83621
 659.66; 5103.080;    3.401;    0.000;5099.67883
 659.93; 5020.770;    1.985;    0.000;5018.78502
 660.20; 5036.370;    3.110;    0.000;5033.26012
 660.47; 4970.960;    2.070;    0.000;4968.88996
 660.74; 4952.480;    1.519;    0.000;4950.96123
 661.01; 4933.880;    5.176;    0.000;4928.70363
 661.28; 4889.200;    1.305;    0.000;4887.89520
 661.55; 4875.510;    3.871;    0.000;4871.63852
 661.81; 4819.410;    0.349;    0.000;4819.06141
 662.08; 4781.730;   -1.056;    0.000;4782.78623
 662.35; 4754.490;    0.981;    0.000;4753.50898
 662.62; 4719.290;    0.535;    0.000;4718.75504
 662.89; 4681.630;    3.275;    0.000;4678.35488
 663.16; 4649.860;   -0.139;    0.000;4649.99861
 663.43; 4624.030;    1.344;    0.000;4622.68604
 663.70; 4566.060;    3.266;    0.000;4562.79381
 663.96; 4564.720;    1.253;    0.000;4563.46771
 664.23; 4518.970;    0.530;    0.000;4518.44021
 664.50; 4501.620;    2.487;    0.000;4499.13262
 664.77; 4459.970;   -0.877;    0.000;4460.84771
 665.04; 4427.920;    3.953;    0.000;4423.96742
 665.31; 4372.980;    0.842;    0.000;4372.13748
 665.58; 4369.480;    2.457;    0.000;4367.02248
 665.84; 4326.630;    0.780;    0.000;4325.84988
 666.11; 4299.530;    4.791;    0.000;4294.73853
 666.38; 4268.880;   -0.827;    0.000;4269.70738
 666.65; 4241.510;    2.049;    0.000;4239.46102
 666.92; 4206.150;   -1.602;    0.000;4207.75240
 667.19; 4187.660;    2.217;    0.000;4185.44266
 667.46; 4161.050;    0.044;    0.000;4161.00605
 667.72; 4112.470;    2.615;    0.000;4109.85521
 667.99; 4081.970;    1.617;    0.000;4080.35247
 668.26; 4081.200;    4.448;    0.000;4076.75245
 668.53; 4000.360;    1.530;    0.000;3998.83011
 668.80; 4009.580;    1.789;    0.000;4007.79133
 669.06; 3971.150;    3.941;    0.000;3967.20865
 669.33; 3948.520;    4.309;    0.000;3944.21127
 669.60; 3913.110;    0.438;    0.000;3912.67261
 669.87; 3875.260;    1.599;    0.000;3873.66126
 670.14; 3851.440;   -0.375;    0.000;3851.81494
 670.41; 3847.080;    1.401;    0.000;3845.67883
 670.67; 3785.870;    2.004;    0.000;3783.86637
 670.94; 3767.110;    0.808;    0.000;3766.30261
 671.21; 3749.460;    2.151;    0.000;3747.30871
 671.48; 3718.970;   -0.835;    0.000;3719.80497
 671.75; 3671.590;    2.424;    0.000;3669.16634
 672.01; 3637.010;    3.504;    0.000;3633.50626
 672.28; 3615.800;    1.559;    0.000;3614.24130
 672.55; 3598.580;    3.671;    0.000;3594.90883
 672.82; 3558.620;    1.102;    0.000;3557.51762
 673.08; 3535.460;    2.175;    0.000;3533.28496
 673.35; 3491.780;   -0.296;    0.000;3492.07628
 673.62; 3470.020;    0.715;    0.000;3469.30502
 673.89; 3424.310;   -1.376;    0.000;3425.68631
 674.16; 3400.870;    2.699;    0.000;3398.17137
 674.42; 3391.750;    3.569;    0.000;3388.18125
 674.69; 3369.470;    0.779;    0.000;3368.69122
 674.96; 3317.950;    1.980;    0.000;3315.96995
 675.23; 3304.480;    2.409;    0.000;3302.07123
 675.49; 3279.510;    1.455;    0.000;3278.05501
 675.76; 3263.070;    3.918;    0.000;3259.15257
 676.03; 3249.960;    2.640;    0.000;3247.31996
 676.30; 3192.450;    3.191;    0.000;3189.25870
 676.56; 3160.590;    1.544;    0.000;3159.04634
 676.83; 3144.510;    2.005;    0.000;3142.50501
 677.10; 3157.660;    0.876;    0.000;3156.78366
 677.37; 3122.720;    5.404;    0.000;3117.31622
 677.63; 3076.600;   -0.745;    0.000;3077.34510
 677.90; 3045.130;    4.010;    0.000;3041.11988
 678.17; 3034.550;    1.760;    0.000;3032.79005
 678.44; 3053.830;    2.400;    0.000;3051.43008
 678.70; 2979.210;    1.548;    0.000;2977.66246
 678.97; 2982.380;    1.459;    0.000;2980.92113
 679.24; 2928.040;    0.824;    0.000;2927.21629
 679.50; 2904.940;    2.297;    0.000;2902.64244
 679.77; 2885.910;    0.320;    0.000;2885.58991
 680.04; 2868.970;    0.405;    0.000;2868.56497
 680.31; 2856.810;   -0.887;    0.000;2857.69756
 680.57; 2826.840;    2.870;    0.000;2823.97009
 680.84; 2791.520;    1.740;    0.000;2789.78002
 681.11; 2810.210;    1.115;    0.000;2809.09496
 681.37; 2759.380;   -1.815;    0.000;2761.19488
 681.64; 2737.640;   -0.892;    0.000;2738.53239
 681.91; 2706.800;    4.430;    0.000;2702.37005
 682.17; 2701.420;    3.001;    0.000;2698.41867
 682.44; 2662.960;   -1.503;    0.000;2664.46246
 682.71; 2640.630;    3.140;    0.000;2637.48988
 682.98; 2606.430;    1.636;    0.000;2604.79368
 683.24; 2593.050;   -0.827;    0.000;2593.87755
 683.51; 2578.170;    0.954;    0.000;2577.21617
 683.78; 2565.290;    1.344;    0.000;2563.94629
 684.04; 2553.570;    1.450;    0.000;2552.12007
 684.31; 2505.790;    0.043;    0.000;2505.74754
 684.58; 2485.220;    1.136;    0.000;2484.08372
 684.84; 2497.350;    2.069;    0.000;2495.28135
 685.11; 2469.770;    3.858;    0.000;2465.91252
 685.38; 2458.090;    4.713;    0.000;2453.37759
 685.64; 2415.150;    0.870;    0.000;2414.27990
 685.91; 2425.250;   -0.069;    0.000;2425.31875
 686.17; 2379.330;    2.316;    0.000;2377.01383
 686.44; 2400.850;   -0.858;    0.000;2401.70760
 686.71; 2334.910;    1.816;    0.000;2333.09366
 686.97; 2334.820;   -1.670;    0.000;2336.49007
 687.24; 2308.520;    0.944;    0.000;2307.57627
 687.51; 2304.840;    0.550;    0.000;2304.29009
 687.77; 2263.070;    1.104;    0.000;2261.96632
 688.04; 2259.080;    1.634;    0.000;2257.44633
 688.31; 2236.020;    2.836;    0.000;2233.18377
 688.57; 2243.630;    1.955;    0.000;2241.67488
 688.84; 2195.910;    1.581;    0.000;2194.32866
 689.10; 2184.650;    3.057;    0.000;2181.59240
 689.37; 2175.540;    1.930;    0.000;2173.61004
 689.64; 2120.760;    0.310;    0.000;2120.45001
 689.90; 2101.120;    1.576;    0.000;2099.54387
 690.17; 2118.480;    3.089;    0.000;2115.39123
 690.44; 2083.610;   -0.029;    0.000;2083.63886
 690.70; 2075.760;    2.069;    0.000;2073.69126
 690.97; 2039.840;    0.464;    0.000;2039.37622
 691.23; 2036.410;    2.264;    0.000;2034.14628
 691.50; 2010.320;    0.368;    0.000;2009.95245
 691.77; 2003.200;    3.309;    0.000;1999.89120
 692.03; 1985.640;   -0.905;    0.000;1986.54501
 692.30; 1972.700;    1.190;    0.000;1971.50995
 692.56; 1943.220;    0.126;    0.000;1943.09372
 692.83; 1916.130;    0.384;    0.000;1915.74625
 693.10; 1912.150;    3.125;    0.000;1909.02502
 693.36; 1857.770;    2.911;    0.000;1854.85877
 693.63; 1856.070;    0.608;    0.000;1855.46245
 693.89; 1838.640;   -0.538;    0.000;1839.17751
 694.16; 1830.560;    0.642;    0.000;1829.91756
 694.42; 1834.980;    0.609;    0.000;1834.37123
 694.69; 1801.070;    3.661;    0.000;1797.40870
 694.96; 1806.590;    3.156;    0.000;1803.43372
 695.22; 1748.430;    2.274;    0.000;1746.15630
 695.49; 1753.750;    3.946;    0.000;1749.80375
 695.75; 1706.790;    2.188;    0.000;1704.60254
 696.02; 1712.520;    2.641;    0.000;1709.87877
 696.28; 1674.010;    2.575;    0.000;1671.43501
 696.55; 1652.880;    1.420;    0.000;1651.46000
 696.81; 1630.240;    1.639;    0.000;1628.60124
 697.08; 1640.660;    0.668;    0.000;1639.99253
 697.34; 1612.580;    0.815;    0.000;1611.76496
 697.61; 1607.360;    1.273;    0.000;1606.08749
 697.88; 1553.170;    0.400;    0.000;1552.77004
 698.14; 1555.040;    0.565;    0.000;1554.47504
 698.41; 1513.080;    2.316;    0.000;1510.76371
 698.67; 1519.850;    0.394;    0.000;1519.45623
 698.94; 1491.970;   -0.249;    0.000;1492.21872
 699.20; 1481.370;   -1.043;    0.000;1482.41250
 699.47; 1451.980;    3.237;    0.000;1448.74248
 699.73; 1455.350;    2.318;    0.000;1453.03248
 700.00; 1425.550;   -2.205;    0.000;1427.75505
 700.26; 1420.830;    1.921;    0.000;1418.90871
 700.53; 1396.810;   -0.345;    0.000;1397.15506
 700.79; 1371.710;    2.044;    0.000;1369.66621
 701.06; 1359.270;    1.224;    0.000;1358.04627
 701.32; 1362.640;    3.382;    0.000;1359.25751
 701.59; 1310.460;    0.240;    0.000;1310.21996
 701.85; 1318.770;   -1.337;    0.000;1320.10752
 702.12; 1275.820;   -0.553;    0.000;1276.37245
 702.38; 1264.070;    0.720;    0.000;1263.34995
 702.65; 1243.360;    2.704;    0.000;1240.65624
 702.91; 1241.370;    3.130;    0.000;1238.24000
 703.18; 1223.160;    0.159;    0.000;1223.00128
 703.44; 1209.620;    2.589;    0.000;1207.03125
 703.71; 1185.330;    0.451;    0.000;1184.87871
 703.97; 1171.660;    1.933;    0.000;1169.72753
 704.24; 1142.360;    2.733;    0.000;1139.62749
 704.50; 1121.240;   -1.066;    0.000;1122.30624
 704.76; 1125.790;    0.973;    0.000;1124.81754
 705.03; 1095.050;    3.154;    0.000;1091.89630
 705.29; 1075.310;   -1.855;    0.000;1077.16506
 705.56; 1059.320;    0.824;    0.000;1058.49620
 705.82; 1029.320;    1.599;    0.000;1027.72120
 706.09; 1038.510;    3.196;    0.000;1035.31376
 706.35; 1010.200;   -0.994;    0.000;1011.19376
 706.62;  997.660;    3.101;    0.000;994.55872
 706.88;  965.680;    0.259;    0.000;965.42124
 707.15;  961.550;    2.235;    0.000;959.31499
 707.41;  945.910;    1.023;    0.000;944.88747
 707.67;  934.560;    2.314;    0.000;932.24625
 707.94;  934.700;    0.341;    0.000;934.35876
 708.20;  905.310;    2.445;    0.000;902.86500
 708.47;  902.050;    0.235;    0.000;901.81499
 708.73;  873.950;    1.543;    0.000;872.40751
 709.00;  857.290;    1.543;    0.000;855.74748
 709.26;  865.700;    3.355;    0.000;862.34501
 709.52;  837.520;    1.150;    0.000;836.37002
 709.79;  841.780;    2.364;    0.000;839.41628
 710.05;  807.980;    1.482;    0.000;806.49748
 710.32;  796.810;    2.600;    0.000;794.21000
 710.58;  774.290;   -0.961;    0.000;775.25123
 710.84;  788.790;    3.686;    0.000;785.10373
 711.11;  765.830;    0.292;    0.000;765.53752
 711.37;  767.310;    3.571;    0.000;763.73875
 711.64;  749.350;    1.284;    0.000;748.06623
 711.90;  747.900;    3.639;    0.000;744.26127
 712.16;  734.780;    3.284;    0.000;731.49628
 712.43;  729.700;    1.572;    0.000;728.12751
 712.69;  711.550;    3.364;    0.000;708.18624
 712.96;  700.570;    2.591;    0.000;697.97876
 713.22;  688.810;    1.612;    0.000;687.19750
 713.48;  682.740;    0.123;    0.000;682.61749
 713.75;  686.570;   -1.460;    0.000;688.03001
 714.01;  679.660;    5.713;    0.000;673.94747
 714.27;  650.590;    1.730;    0.000;648.86003
 714.54;  657.730;    2.946;    0.000;654.78373
 714.80;  654.080;    1.184;    0.000;652.89627
 715.06;  648.530;    2.250;    0.000;646.28003
 715.33;  632.670;    1.124;    0.000;631.54623
 715.59;  630.510;    1.466;    0.000;629.04376
 715.86;  631.200;    3.069;    0.000;628.13126
 716.12;  625.690;    1.867;    0.000;623.82250
 716.38;  618.990;    2.986;    0.000;616.00374
 716.65;  612.810;    3.819;    0.000;608.99125
 716.91;  595.960;    0.629;    0.000;595.33127
 717.17;  595.000;    3.425;    0.000;591.57500
 717.44;  601.220;    2.554;    0.000;598.66622
 717.70;  593.570;    3.246;    0.000;590.32376
 717.96;  575.450;    0.561;    0.000;574.88876
 718.23;  584.770;   -0.406;    0.000;585.17627
 718.49;  576.770;    1.106;    0.000;575.66377
 718.75;  573.270;    4.903;    0.000;568.36752
 719.02;  566.530;    0.034;    0.000;566.49628
 719.28;  569.410;    0.564;    0.000;568.84622
 719.54;  559.020;    0.788;    0.000;558.23252
 719.80;  565.850;    2.293;    0.000;563.55748
 720.07;  550.090;   -0.094;    0.000;550.18378
 720.33;  556.300;    1.286;    0.000;555.01374
 720.59;  555.580;    1.628;    0.000;553.95252
 720.86;  546.000;   -1.405;    0.000;547.40500
 721.12;  546.260;    1.731;    0.000;544.52876
 721.38;  545.410;    4.088;    0.000;541.32247
 721.65;  539.830;   -0.108;    0.000;539.93752
 721.91;  549.900;   -0.026;    0.000;549.92627
 722.17;  519.340;   -0.304;    0.000;519.64378
 722.43;  537.530;    3.338;    0.000;534.19253
 722.70;  528.690;    0.495;    0.000;528.19500
 722.96;  540.230;    4.814;    0.000;535.41623
 723.22;  513.230;    2.186;    0.000;511.04373
 723.48;  538.290;    3.430;    0.000;534.85998
 723.75;  509.450;    2.215;    0.000;507.23501
 724.01;  520.870;    1.500;    0.000;519.37000
 724.27;  512.120;   -0.826;    0.000;512.94625
 724.54;  534.440;    2.814;    0.000;531.62625
 724.80;  518.800;   -1.109;    0.000;519.90874
 725.06;  519.620;    3.160;    0.000;516.46000
 725.32;  516.110;    2.344;    0.000;513.76624
 725.59;  520.900;    1.226;    0.000;519.67377
 725.85;  493.280;    2.034;    0.000;491.24625
 726.11;  519.400;    2.994;    0.000;516.40627
 726.37;  501.630;    3.204;    0.000;498.42625
 726.64;  528.010;    2.474;    0.000;525.53626
 726.90;  510.880;    3.596;    0.000;507.28375
 727.16;  510.310;    0.375;    0.000;509.93500
 727.42;  506.370;    0.449;    0.000;505.92125
 727.68;  502.380;    0.172;    0.000;502.20750
 727.95;  495.530;    2.132;    0.000;493.39750
 728.21;  515.560;    3.517;    0.000;512.04250
 728.47;  496.390;   -0.545;    0.000;496.93501
 728.73;  504.910;    3.100;    0.000;501.81000
 729.00;  501.800;    0.755;    0.000;501.04499
 729.26;  499.180;    0.587;    0.000;498.59249
 729.52;  479.680;   -0.405;    0.000;480.08499
 729.78;  493.440;   -2.089;    0.000;495.52875
 730.04;  489.190;    4.343;    0.000;484.84750
 730.31;  485.290;    3.566;    0.000;481.72376
 730.57;  483.890;    4.318;    0.000;479.57251
 730.83;  468.700;    2.994;    0.000;465.70626
 731.09;  479.450;   -0.604;    0.000;480.05376
 731.35;  468.360;    2.505;    0.000;465.85499
 731.62;  467.880;    0.100;    0.000;467.78000
 731.88;  480.870;    1.690;    0.000;479.18000
 732.14;  465.050;   -1.254;    0.000;466.30374
 732.40;  461.950;    3.940;    0.000;458.01001
 732.66;  455.140;    1.069;    0.000;454.07126
 732.92;  467.900;    2.316;    0.000;465.58374
 733.19;  465.740;    1.539;    0.000;464.20124
 733.45;  452.680;    5.839;    0.000;446.84124
 733.71;  456.280;    1.001;    0.000;455.27875
 733.97;  482.910;    3.849;    0.000;479.06125
 734.23;  433.350;   -2.451;    0.000;435.80126
 734.49;  454.720;    3.328;    0.000;451.39250
 734.76;  431.580;    1.984;    0.000;429.59624
 735.02;  439.030;    1.000;    0.000;438.03000
 735.28;  448.130;    1.494;    0.000;446.63625
 735.54;  439.680;    2.599;    0.000;437.08124
 735.80;  414.830;    3.059;    0.000;411.77124
 736.06;  434.430;    1.774;    0.000;432.65624
 736.32;  407.290;   -0.745;    0.000;408.03501
 736.59;  422.030;    1.776;    0.000;420.25375
 736.85;  416.220;    2.046;    0.000;414.17375
 737.11;  415.290;    1.040;    0.000;414.25001
 737.37;  401.060;   -0.538;    0.000;401.59750
 737.63;  407.620;    2.409;    0.000;405.21125
 737.89;  405.650;   -0.147;    0.000;405.79749
 738.15;  404.870;    2.342;    0.000;402.52750
 738.41;  390.510;   -1.143;    0.000;391.65251
 738.67;  392.990;    0.023;    0.000;392.96749
 738.94;  380.690;   -1.278;    0.000;381.96750
 739.20;  382.720;   -0.135;    0.000;382.85500
 739.46;  400.880;    1.821;    0.000;399.05875
 739.72;  367.290;    2.342;    0.000;364.94751
 739.98;  358.250;   -0.039;    0.000;358.28875
 740.24;  366.900;    1.996;    0.000;364.90374
 740.50;  370.530;    2.144;    0.000;368.38625
 740.76;  355.520;    4.496;    0.000;351.02374
 741.02;  355.190;    2.037;    0.000;353.15250
 741.28;  372.200;    4.015;    0.000;368.18501
 741.54;  343.780;    2.483;    0.000;341.29750
 741.81;  350.200;    3.010;    0.000;347.19001
 742.07;  331.750;    1.163;    0.000;330.58750
 742.33;  350.080;    2.645;    0.000;347.43499
 742.59;  342.750;    1.821;    0.000;340.92875
 742.85;  341.520;    0.298;    0.000;341.22249
 743.11;  320.930;    1.705;    0.000;319.22499
 743.37;  318.880;    0.685;    0.000;318.19500
 743.63;  314.160;    4.071;    0.000;310.08875
 743.89;  317.670;    4.113;    0.000;313.55751
 744.15;  304.670;    0.405;    0.000;304.26501
 744.41;  312.320;   -1.540;    0.000;313.86001
 744.67;  288.640;    1.661;    0.000;286.97876
 744.93;  312.770;    0.085;    0.000;312.68499
 745.19;  294.630;    2.245;    0.000;292.38500
 745.45;  294.160;    0.485;    0.000;293.67500
 745.71;  287.630;    1.388;    0.000;286.24250
 745.97;  295.920;    1.060;    0.000;294.86001
 746.23;  270.640;    1.283;    0.000;269.35751
 746.49;  271.050;    3.820;    0.000;267.22999
 746.75;  283.690;    3.335;    0.000;280.35500
 747.02;  271.410;    1.569;    0.000;269.84125
 747.28;  257.160;   -0.540;    0.000;257.70000
 747.54;  275.310;    2.818;    0.000;272.49250
 747.80;  253.930;   -1.074;    0.000;255.00374
 748.06;  258.340;   -5.407;    0.000;263.74750
 748.32;  255.170;    3.335;    0.000;251.83500
 748.58;  251.270;    4.275;    0.000;246.99500
 748.84;  252.150;    1.499;    0.000;250.65124
 749.10;  330.090;    9.339;    0.000;320.75125
 749.36;  241.820;    2.190;    0.000;239.63001
 749.62;  244.000;    2.432;    0.000;241.56750
 749.88;  233.330;    1.871;    0.000;231.45875
 750.14;  232.320;    3.449;    0.000;228.87126
 750.40;  224.110;   -1.523;    0.000;225.63250
 750.66;  238.740;    5.100;    0.000;233.64001
 750.91;  215.770;    1.121;    0.000;214.64875
 751.17;  214.240;    4.999;    0.000;209.24126
 751.43;  212.060;   -1.806;    0.000;213.86625
 751.69;  224.330;    4.175;    0.000;220.15500
 751.95;  210.940;    1.244;    0.000;209.69625
 752.21;  208.400;    2.675;    0.000;205.72499
 752.47;  200.690;    1.139;    0.000;199.55125
 752.73;  210.090;    3.609;    0.000;206.48125
 752.99;  183.210;   -0.211;    0.000;183.42126
 753.25;  195.660;    2.358;    0.000;193.30250
 753.51;  184.200;    1.201;    0.000;182.99875
 753.77;  192.300;    1.548;    0.000;190.75250
 754.03;  180.000;    0.859;    0.000;179.14125
 754.29;  180.140;    1.796;    0.000;178.34375
 754.55;  181.070;    3.635;    0.000;177.43501
 754.81;  181.780;    2.146;    0.000;179.63375
 755.07;  167.650;    0.389;    0.000;167.26124
 755.33;  173.130;    2.674;    0.000;170.45625
 755.59;  160.060;    1.291;    0.000;158.76875
 755.85;  168.800;    1.286;    0.000;167.51375
 756.10;  154.970;    2.474;    0.000;152.49625
 756.36;  168.410;    1.336;    0.000;167.07375
 756.62;  149.450;    1.236;    0.000;148.21375
 756.88;  163.910;    1.444;    0.000;162.46625
 757.14;  151.560;    1.900;    0.000;149.66000
 757.40;  151.920;    3.004;    0.000;148.91625
 757.66;  156.180;    2.839;    0.000;153.34124
 757.92;  147.500;    2.434;    0.000;145.06625
 758.18;  141.200;    1.880;    0.000;139.32000
 758.44;  148.210;    1.215;    0.000;146.99501
 758.70;  143.170;    1.508;    0.000;141.66250
 758.95;  141.450;   -0.256;    0.000;141.70625
 759.21;  131.510;    0.169;    0.000;131.34124
 759.47;  141.890;    4.939;    0.000;136.95125
 759.73;  117.220;    0.292;    0.000;116.92750
 759.99;  129.640;    3.420;    0.000;126.22000
 760.25;  121.070;    0.416;    0.000;120.65375
 760.51;  131.700;   -0.933;    0.000;132.63250
 760.77;  133.010;    3.746;    0.000;129.26374
 761.02;  134.080;    3.771;    0.000;130.30875
 761.28;  122.500;    1.756;    0.000;120.74375
 761.54;  126.950;    3.152;    0.000;123.79750
 761.80;  110.460;    2.394;    0.000;108.06625
 762.06;  129.650;    2.415;    0.000;127.23499
 762.32;  108.170;   -0.226;    0.000;108.39625
 762.58;  115.460;    0.177;    0.000;115.28250
 762.83;  130.150;    2.280;    0.000;127.86999
 763.09;  116.250;    4.425;    0.000;111.82500
 763.35;  104.350;    2.086;    0.000;102.26375
 763.61;  119.100;    3.421;    0.000;115.67875
 763.87;  113.000;    2.898;    0.000;110.10250
 764.13;  103.010;    2.771;    0.000;100.23875
 764.38;   98.550;    0.603;    0.000;97.94750
 764.64;   99.930;    0.809;    0.000;99.12125
 764.90;  100.960;    2.140;    0.000;98.82000
 765.16;  100.760;    2.909;    0.000;97.85125
 765.42;  100.050;    1.378;    0.000;98.67250
 765.68;   98.110;    1.506;    0.000;96.60375
 765.93;   86.560;    0.826;    0.000;85.73375
 766.19;  102.480;    1.595;    0.000;100.88500
 766.45;   90.770;    3.033;    0.000;87.73750
 766.71;  101.710;    1.970;    0.000;99.74000
 766.97;   94.760;    1.930;    0.000;92.83000
 767.22;   85.480;    0.001;    0.000;85.47875
 767.48;   81.900;    2.169;    0.000;79.73125
 767.74;   91.710;    3.239;    0.000;88.47125
 768.00;   81.920;    0.127;    0.000;81.79250
 768.26;   80.520;    2.041;    0.000;78.47875
 768.51;   76.260;    1.921;    0.000;74.33875
 768.77;   92.300;    2.866;    0.000;89.43375
 769.03;   86.630;    1.215;    0.000;85.41500
 769.29;   80.690;    3.609;    0.000;77.08125
 769.54;   78.310;   -1.861;    0.000;80.17125
 769.80;   81.200;    1.023;    0.000;80.17750
 770.06;   67.550;   -2.848;    0.000;70.39750
 770.32;   76.850;    3.336;    0.000;73.51375
 770.57;   66.850;    3.290;    0.000;63.56000
 770.83;   86.550;    2.001;    0.000;84.54875
 771.09;   69.200;    0.305;    0.000;68.89500
 771.35;   63.250;   -0.986;    0.000;64.23625
 771.61;   61.440;    3.224;    0.000;58.21625
 771.86;   78.270;    2.035;    0.000;76.23500
 772.12;   56.540;    2.678;    0.000;53.86250
 772.38;   75.170;    2.819;    0.000;72.35125
 772.63;   62.700;    2.169;    0.000;60.53125
 772.89;   61.370;    1.089;    0.000;60.28125
 773.15;   56.950;    3.095;    0.000;53.85500
 773.41;   64.150;    2.499;    0.000;61.65125
 773.66;   62.380;    2.453;    0.000;59.92750
 773.92;   69.800;    2.392;    0.000;67.40750
 774.18;   73.830;    0.616;    0.000;73.21375
 774.44;   56.260;    2.901;    0.000;53.35875
 774.69;   56.410;    2.365;    0.000;54.04500
 774.95;   63.070;    1.592;    0.000;61.47750
 775.21;   65.610;    3.401;    0.000;62.20875
 775.46;   55.110;    2.118;    0.000;52.99250
 775.72;   47.320;   -0.757;    0.000;48.07750
 775.98;   71.460;    2.870;    0.000;68.59000
 776.24;   36.370;    0.654;    0.000;35.71625
 776.49;   62.840;    0.461;    0.000;62.37875
 776.75;   52.630;   -0.097;    0.000;52.72750
 777.01;   53.800;    2.346;    0.000;51.45375
 777.26;   62.570;   -0.501;    0.000;63.07125
 777.52;   50.710;    3.513;    0.000;47.19750
 777.78;   49.790;    2.825;    0.000;46.96500
 778.03;   57.810;    4.813;    0.000;52.99750
 778.29;   45.130;   -1.135;    0.000;46.26500
 778.55;   50.570;    4.461;    0.000;46.10875
 778.80;   40.360;    4.707;    0.000;35.65250
 779.06;   45.210;    1.582;    0.000;43.62750
 779.32;   30.070;   -1.487;    0.000;31.55750
 779.57;   44.390;    5.735;    0.000;38.65500
 779.83;   37.100;    0.904;    0.000;36.19625
 780.09;   52.440;    4.139;    0.000;48.30125
 780.34;   37.490;    2.516;    0.000;34.97375
 780.60;   50.980;    5.276;    0.000;45.70375
 780.86;   40.770;    1.526;    0.000;39.24375
 781.11;   43.760;    2.318;    0.000;41.44250
 781.37;   30.670;    0.714;    0.000;29.95625
 781.63;   43.830;    0.601;    0.000;43.22875
 781.88;   30.920;    0.507;    0.000;30.41250
 782.14;   40.240;    2.296;    0.000;37.94375
 782.39;   34.710;    1.691;    0.000;33.01875
 782.65;   26.830;    0.065;    0.000;26.76500
 782.91;   36.990;    2.026;    0.000;34.96375
 783.16;   38.080;    1.395;    0.000;36.68500
 783.42;   28.850;    0.733;    0.000;28.11750
 783.67;   36.760;    2.081;    0.000;34.67875
 783.93;   25.840;    0.939;    0.000;24.90125
 784.19;   24.020;    1.356;    0.000;22.66375
 784.44;   29.810;    2.641;    0.000;27.16875
 784.70;   43.540;    3.922;    0.000;39.61750
 784.96;   18.120;   -0.010;    0.000;18.13000
 785.21;   34.090;    0.863;    0.000;33.22750
 785.47;   34.350;    1.643;    0.000;32.70750
 785.72;   20.950;    0.114;    0.000;20.83625
 785.98;    9.460;   -0.705;    0.000;10.16500
 786.23;   19.840;    1.793;    0.000;18.04750
 786.49;   15.350;    0.989;    0.000;14.36125
 786.75;   22.750;    3.019;    0.000;19.73125
 787.00;    9.950;    0.529;    0.000; 9.42125
 787.26;   15.120;    1.590;    0.000;13.53000
 787.51;   16.100;    0.141;    0.000;15.95875
 787.77;   34.750;    1.200;    0.000;33.55000
 788.02;   23.460;    1.789;    0.000;21.67125
 788.28;   16.010;    0.800;    0.000;15.21000
 788.54;   15.370;   -0.199;    0.000;15.56875
 788.79;   13.250;    0.516;    0.000;12.73375
 789.05;    7.780;    3.386;    0.000; 4.39375
 789.30;   10.670;    5.298;    0.000; 5.37250
 789.56;    8.940;    1.327;    0.000; 7.61250
 789.81;   14.830;    2.234;    0.000;12.59625
 790.07;    2.930;   -0.301;    0.000; 3.23125
 790.32;   10.920;    1.149;    0.000; 9.77125
 790.58;    8.280;    1.655;    0.000; 6.62500
 790.83;   12.000;    5.036;    0.000; 6.96375
 791.09;    0.810;    0.239;    0.000; 0.57125
 791.35;    9.050;    0.884;    0.000; 8.16625
 791.60;    6.270;    1.294;    0.000; 4.97625
 791.86;    4.110;    3.580;    0.000; 0.53000
 792.11;    9.820;    0.661;    0.000; 9.15875
 792.37;    4.390;    2.549;    0.000; 1.84125
 792.62;    9.010;    2.610;    0.000; 6.40000
 792.88;   13.630;    2.671;    0.000;10.95875
 793.13;   -0.150;    1.554;    0.000;-1.70375
 793.39;    4.760;    2.964;    0.000; 1.79625
 793.64;    1.280;    1.725;    0.000;-0.44500
 793.90;   13.150;    0.824;    0.000;12.32625
 794.15;   -0.180;    4.068;    0.000;-4.24750
 794.41;   16.050;    2.352;    0.000;13.69750
 794.66;    2.150;    1.508;    0.000; 0.64250
 794.92;   -3.040;    4.101;    0.000;-7.14125
 795.17;  -12.770;   -0.748;    0.000;-12.02250
 795.43;   -7.350;    2.310;    0.000;-9.66000
 795.68;   -6.880;    1.050;    0.000;-7.93000
 795.94;   11.800;    2.206;    0.000; 9.59375
 796.19;   -4.870;    2.890;    0.000;-7.76000
 796.44;    5.730;    2.810;    0.000; 2.92000
 796.70;  -10.950;   -0.166;    0.000;-10.78375
 796.95;    1.990;    4.159;    0.000;-2.16875
 797.21;   -2.790;    0.479;    0.000;-3.26875
 797.46;   -0.500;   -2.271;    0.000; 1.77125
 797.72;  -16.370;   -0.439;    0.000;-15.93125
 797.97;  -13.440;    0.895;    0.000;-14.33500
 798.23;   -9.120;    5.259;    0.000;-14.37875
 798.48;    2.050;    0.045;    0.000; 2.00500
 798.74;   -3.120;    0.639;    0.000;-3.75875
 798.99;   -8.030;    2.686;    0.000;-10.71625
 799.24;  -16.330;    3.122;    0.000;-19.45250
 799.50;    1.320;    1.000;    0.000; 0.32000
 799.75;   -6.620;   -0.770;    0.000;-5.85000
 800.01;  -10.270;   -0.245;    0.000;-10.02500
 800.26;  -27.100;   -0.215;    0.000;-26.88500
 800.52;   -8.320;    2.511;    0.000;-10.83125
 800.77;  -24.220;    2.716;    0.000;-26.93625
 801.02;   -9.520;    1.580;    0.000;-11.10000
 801.28;  -14.380;   -0.673;    0.000;-13.70750
 801.53;   -6.750;    0.356;    0.000;-7.10625
 801.79;  -17.260;    3.321;    0.000;-20.58125
 802.04;  -12.210;    1.775;    0.000;-13.98500
 802.29;  -15.590;    1.541;    0.000;-17.13125
 802.55;   -5.800;   -0.161;    0.000;-5.63875
 802.80;  -11.340;    1.750;    0.000;-13.09000
 803.06;  -16.830;    1.202;    0.000;-18.03250
 803.31;  -19.960;    2.051;    0.000;-22.01125
 803.56;    0.130;    1.589;    0.000;-1.45875
 803.82;  -29.040;    1.819;    0.000;-30.85875
 804.07;  -15.400;    1.121;    0.000;-16.52125
 804.32;  -17.860;    2.470;    0.000;-20.33000
 804.58;  -13.970;    0.745;    0.000;-14.71500
 804.83;  -22.640;    2.861;    0.000;-25.50125
 805.09;   -9.500;    2.116;    0.000;-11.61625
 805.34;  -19.890;    2.130;    0.000;-22.02000
 805.59;  -11.140;    1.832;    0.000;-12.97250
 805.85;  -21.720;    2.691;    0.000;-24.41125
 806.10;  -29.440;    4.224;    0.000;-33.66375
 806.35;  -11.070;    1.335;    0.000;-12.40500
 806.61;  -18.020;    3.255;    0.000;-21.27500
 806.86;  -29.300;    2.753;    0.000;-32.05250
 807.11;  -15.210;    2.922;    0.000;-18.13250
 807.37;   -2.500;    2.905;    0.000;-5.40500
 807.62;  -19.730;    1.607;    0.000;-21.33750
 807.87;  -20.000;    6.104;    0.000;-26.10375
 808.13;  -24.760;    0.795;    0.000;-25.55500
 808.38;  -30.430;   -0.554;    0.000;-29.87625
 808.63;  -16.700;    4.699;    0.000;-21.39875
 808.89;  -22.340;   -1.511;    0.000;-20.82875
 809.14;  -28.330;    1.401;    0.000;-29.73125
 809.39;  -32.410;   -2.053;    0.000;-30.35750
 809.65;  -32.060;    1.450;    0.000;-33.51000
 809.90;  -29.690;    3.850;    0.000;-33.54000
 810.15;  -28.130;    2.366;    0.000;-30.49625
 810.41;  -26.020;    0.111;    0.000;-26.13125
 810.66;  -13.740;    1.721;    0.000;-15.46125
 810.91;  -28.540;    0.284;    0.000;-28.82375
 811.16;  -20.780;    3.254;    0.000;-24.03375
 811.42;  -29.480;    1.806;    0.000;-31.28625
 811.67;  -26.910;    5.146;    0.000;-32.05625
 811.92;  -31.650;    1.339;    0.000;-32.98875
 812.18;  -28.460;    3.764;    0.000;-32.22375
 812.43;  -34.260;    0.262;    0.000;-34.52250
 812.68;  -25.960;   -0.415;    0.000;-25.54500
 812.93;  -35.680;   -0.444;    0.000;-35.23625
 813.19;  -24.230;    3.415;    0.000;-27.64500
 813.44;  -28.770;   -0.468;    0.000;-28.30250
 813.69;  -22.020;    3.735;    0.000;-25.75500
 813.95;  -32.300;    0.120;    0.000;-32.42000
 814.20;  -35.300;    1.482;    0.000;-36.78250
 814.45;  -45.140;    1.362;    0.000;-46.50250
 814.70;  -21.800;    2.450;    0.000;-24.25000
 814.96;  -35.870;    1.610;    0.000;-37.48000
 815.21;  -22.960;    0.421;    0.000;-23.38125
 815.46;  -41.100;    3.360;    0.000;-44.46000
 815.71;  -26.100;    1.746;    0.000;-27.84625
 815.96;  -37.440;    1.210;    0.000;-38.65000
 816.22;  -21.790;    3.869;    0.000;-25.65875
 816.47;  -28.590;    1.704;    0.000;-30.29375
 816.72;  -21.740;    2.375;    0.000;-24.11500
 816.97;  -27.920;    0.006;    0.000;-27.92625
 817.23;  -21.870;    2.188;    0.000;-24.05750
 817.48;  -34.890;    0.579;    0.000;-35.46875
 817.73;  -34.520;    1.298;    0.000;-35.81750
 817.98;  -23.730;    4.060;    0.000;-27.79000
 818.23;  -24.370;    2.849;    0.000;-27.21875
 818.49;  -35.040;    2.114;    0.000;-37.15375
 818.74;  -20.030;    3.495;    0.000;-23.52500
 818.99;  -37.570;    3.039;    0.000;-40.60875
 819.24;  -15.520;    4.864;    0.000;-20.38375
 819.50;  -39.510;   -0.814;    0.000;-38.69625
 819.75;  -22.890;    1.827;    0.000;-24.71750
 820.00;  -11.980;    2.721;    0.000;-14.70125
 820.25;  -29.700;    2.957;    0.000;-32.65750
 820.50;  -42.610;    0.806;    0.000;-43.41625
 820.75;  -28.840;    2.321;    0.000;-31.16125
 821.01;  -31.320;   -0.526;    0.000;-30.79375
 821.26;  -26.110;    2.589;    0.000;-28.69875
 821.51;  -39.280;    1.920;    0.000;-41.20000
 821.76;  -27.890;    2.214;    0.000;-30.10375
 822.01;  -40.610;    2.021;    0.000;-42.63125
 822.26;  -30.740;    2.135;    0.000;-32.87500
 822.52;  -37.130;    0.341;    0.000;-37.47125
 822.77;  -39.600;    2.754;    0.000;-42.35375
 823.02;  -43.850;    3.078;    0.000;-46.92750
 823.27;  -32.800;    2.414;    0.000;-35.21375
 823.52;  -38.220;   -1.496;    0.000;-36.72375
 823.77;  -38.200;    2.965;    0.000;-41.16500
 824.03;  -39.440;   -1.638;    0.000;-37.80250
 824.28;  -39.500;    1.317;    0.000;-40.81750
 824.53;  -41.520;    1.336;    0.000;-42.85625
 824.78;  -37.280;    0.855;    0.000;-38.13500
 825.03;  -45.200;    2.570;    0.000;-47.77000
 825.28;  -36.200;    2.166;    0.000;-38.36625
 825.53;  -43.480;    2.836;    0.000;-46.31625
 825.78;  -25.670;    2.856;    0.000;-28.52625
 826.04;  -38.320;   -0.415;    0.000;-37.90500
 826.29;  -34.900;    0.965;    0.000;-35.86500
 826.54;  -44.840;    0.800;    0.000;-45.64000
 826.79;  -32.520;    0.228;    0.000;-32.74750
 827.04;  -51.880;    2.715;    0.000;-54.59500
 827.29;  -33.090;    2.820;    0.000;-35.91000
 827.54;  -41.240;    1.196;    0.000;-42.43625
 827.79;  -31.240;    0.577;    0.000;-31.81750
 828.04;  -38.380;    1.154;    0.000;-39.53375
 828.29;  -35.890;    2.582;    0.000;-38.47250
 828.55;  -42.310;    0.469;    0.000;-42.77875
 828.80;  -31.570;    3.072;    0.000;-34.64250
 829.05;  -45.200;    0.731;    0.000;-45.93125
 829.30;  -51.690;    2.580;    0.000;-54.27000
 829.55;  -44.900;    0.910;    0.000;-45.81000
 829.80;  -32.900;    4.061;    0.000;-36.96125
 830.05;  -47.160;   -0.123;    0.000;-47.03750
 830.30;  -42.140;    2.500;    0.000;-44.64000
 830.55;  -40.840;    1.209;    0.000;-42.04875
 830.80;  -42.340;    0.980;    0.000;-43.32000
 831.05;  -43.180;    1.500;    0.000;-44.68000
 831.30;  -22.870;    2.391;    0.000;-25.26125
 831.55;  -41.580;    2.223;    0.000;-43.80250
 831.80;  -33.540;    2.836;    0.000;-36.37625
 832.05;  -41.470;    1.240;    0.000;-42.71000
 832.30;  -33.560;    2.408;    0.000;-35.96750
 832.56;  -46.580;    2.081;    0.000;-48.66125
 832.81;  -40.650;    1.378;    0.000;-42.02750
 833.06;  -40.480;    4.117;    0.000;-44.59750
 833.31;  -42.300;    2.487;    0.000;-44.78750
 833.56;  -45.990;    0.243;    0.000;-46.23250
 833.81;  -44.010;    2.466;    0.000;-46.47625
 834.06;  -43.210;    1.622;    0.000;-44.83250
 834.31;  -33.330;    3.581;    0.000;-36.91125
 834.56;  -44.310;    4.500;    0.000;-48.81000
 834.81;  -49.360;    1.409;    0.000;-50.76875
 835.06;  -51.570;    0.406;    0.000;-51.97625
 835.31;  -36.800;    3.463;    0.000;-40.26250
 835.56;  -35.970;   -0.016;    0.000;-35.95375
 835.81;  -30.900;    2.260;    0.000;-33.16000
 836.06;  -31.940;    1.614;    0.000;-33.55375
 836.31;  -51.560;    2.148;    0.000;-53.70750
 836.56;  -48.980;    3.629;    0.000;-52.60875
 836.81;  -51.370;    2.047;    0.000;-53.41750
 837.06;  -39.200;    0.816;    0.000;-40.01625
 837.31;  -51.220;    1.456;    0.000;-52.67625
 837.56;  -51.440;    1.783;    0.000;-53.22250
 837.81;  -45.580;    2.975;    0.000;-48.55500
 838.06;  -42.640;    4.039;    0.000;-46.67875
 838.31;  -45.980;    0.147;    0.000;-46.12750
 838.56;  -53.120;    1.841;    0.000;-54.96125
 838.80;  -49.900;    2.314;    0.000;-52.21375
 839.05;  -46.500;    1.386;    0.000;-47.88625
 839.30;  -53.030;    0.001;    0.000;-53.03125
 839.55;  -53.590;    0.301;    0.000;-53.89125
 839.80;  -36.440;    3.539;    0.000;-39.97875
 840.05;  -51.200;    1.010;    0.000;-52.21000
 840.30;  -26.030;    4.226;    0.000;-30.25625
 840.55;  -45.700;    1.514;    0.000;-47.21375
 840.80;  -43.110;    4.875;    0.000;-47.98500
 841.05;  -44.250;    0.784;    0.000;-45.03375
 841.30;  -44.510;    3.494;    0.000;-48.00375
 841.55;  -51.320;   -0.995;    0.000;-50.32500
 841.80;  -46.450;    1.559;    0.000;-48.00875
 842.05;  -59.260;   -1.285;    0.000;-57.97500
 842.30;  -46.930;    2.414;    0.000;-49.34375
 842.55;  -50.320;    1.058;    0.000;-51.37750
 842.79;  -47.840;    1.925;    0.000;-49.76500
 843.04;  -45.630;    0.854;    0.000;-46.48375
 843.29;  -46.720;    2.419;    0.000;-49.13875
 843.54;  -49.940;    4.284;    0.000;-54.22375
 843.79;  -50.000;    1.813;    0.000;-51.81250
 844.04;  -47.840;    4.705;    0.000;-52.54500
 844.29;  -48.180;    2.770;    0.000;-50.95000
 844.54;  -57.120;    1.173;    0.000;-58.29250
 844.79;  -36.990;    3.172;    0.000;-40.16250
 845.04;  -50.430;   -1.031;    0.000;-49.39875
 845.28;  -54.500;    3.310;    0.000;-57.81000
 845.53;  -51.690;    1.750;    0.000;-53.44000
 845.78;  -35.140;    1.957;    0.000;-37.09750
 846.03;  -55.560;    1.346;    0.000;-56.90625
 846.28;  -41.630;    2.110;    0.000;-43.74000
 846.53;  -40.040;    0.154;    0.000;-40.19375
 846.78;  -30.650;    4.660;    0.000;-35.31000
 847.02;  -50.670;    2.714;    0.000;-53.38375
 847.27;  -51.880;    1.837;    0.000;-53.71750
 847.52;  -52.850;    3.047;    0.000;-55.89750
 847.77;  -53.370;    3.314;    0.000;-56.68375
 848.02;  -55.610;   -0.440;    0.000;-55.17000
 848.27;  -47.200;    3.787;    0.000;-50.98750
 848.52;  -60.760;    2.264;    0.000;-63.02375
 848.76;  -46.440;    0.844;    0.000;-47.28375
 849.01;  -55.280;    2.570;    0.000;-57.85000
 849.26;  -53.850;    0.859;    0.000;-54.70875
 849.51;  -51.940;    3.328;    0.000;-55.26750
 849.76;  -49.380;    1.469;    0.000;-50.84875
 850.01;  -67.460;    0.701;    0.000;-68.16125
 850.25;  -58.410;    0.585;    0.000;-58.99500
 850.50;  -59.630;    0.848;    0.000;-60.47750
 850.75;  -41.520;    1.875;    0.000;-43.39500
 851.00;  -61.880;   -0.499;    0.000;-61.38125
 851.25;  -50.870;    3.796;    0.000;-54.66625
 851.49;  -53.580;    3.533;    0.000;-57.11250
 851.74;  -64.100;   -0.102;    0.000;-63.99750
 851.99;  -51.140;    2.578;    0.000;-53.71750
 852.24;  -53.770;    0.231;    0.000;-54.00125
 852.49;  -68.500;    0.465;    0.000;-68.96500
 852.73;  -67.220;    2.121;    0.000;-69.34125
 852.98;  -60.480;    0.601;    0.000;-61.08125
 853.23;  -55.880;    4.595;    0.000;-60.47500
 853.48;  -62.170;   -0.339;    0.000;-61.83125
 853.73;  -52.330;    1.725;    0.000;-54.05500
 853.97;  -57.810;    1.999;    0.000;-59.80875
 854.22;  -59.710;    2.446;    0.000;-62.15625
 854.47;  -69.680;    2.151;    0.000;-71.83125
 854.72;  -57.090;    1.765;    0.000;-58.85500
 854.96;  -56.100;    2.703;    0.000;-58.80250
 855.21;  -49.200;    1.244;    0.000;-50.44375
 855.46;  -51.350;    0.944;    0.000;-52.29375
 855.71;  -63.370;    0.262;    0.000;-63.63250
 855.95;  -63.770;    2.922;    0.000;-66.69250
 856.20;  -50.460;    2.591;    0.000;-53.05125
 856.45;  -64.250;    1.355;    0.000;-65.60500
 856.70;  -55.900;    4.641;    0.000;-60.54125
 856.94;  -58.000;    1.589;    0.000;-59.58875
 857.19;  -59.640;    2.404;    0.000;-62.04375
 857.44;  -61.530;    1.933;    0.000;-63.46250
 857.69;  -55.550;    5.104;    0.000;-60.65375
 857.93;  -62.540;    3.511;    0.000;-66.05125
 858.18;  -58.000;    1.986;    0.000;-59.98625
 858.43;  -59.470;   -0.159;    0.000;-59.31125
 858.67;  -42.940;    5.415;    0.000;-48.35500
 858.92;  -68.690;    1.999;    0.000;-70.68875
 859.17;  -37.630;    4.201;    0.000;-41.83125
 859.42;  -66.550;    0.545;    0.000;-67.09500
 859.66;  -65.480;    3.158;    0.000;-68.63750
 859.91;  -58.650;   -0.270;    0.000;-58.38000
 860.16;  -61.840;    1.684;    0.000;-63.52375
 860.40;  -55.430;    1.197;    0.000;-56.62750
 860.65;  -54.480;    1.515;    0.000;-55.99500
 860.90;  -69.540;   -0.985;    0.000;-68.55500
 861.14;  -52.730;    0.160;    0.000;-52.89000
 861.39;  -66.850;    0.465;    0.000;-67.31500
 861.64;  -51.770;    3.563;    0.000;-55.33250
 861.88;  -78.760;    3.859;    0.000;-82.61875
 862.13;  -49.150;    2.254;    0.000;-51.40375
 862.38;  -63.500;    0.489;    0.000;-63.98875
 862.62;  -57.170;    1.619;    0.000;-58.78875
 862.87;  -56.550;    0.080;    0.000;-56.63000
 863.12;  -68.930;    0.527;    0.000;-69.45750
 863.36;  -65.700;    3.011;    0.000;-68.71125
 863.61;  -61.730;    2.111;    0.000;-63.84125
 863.86;  -72.700;    0.804;    0.000;-73.50375
 864.10;  -57.820;    2.416;    0.000;-60.23625
 864.35;  -63.390;    1.164;    0.000;-64.55375
 864.60;  -61.120;    0.605;    0.000;-61.72500
 864.84;  -64.810;    1.896;    0.000;-66.70625
 865.09;  -54.950;    2.196;    0.000;-57.14625
 865.33;  -72.340;    3.348;    0.000;-75.68750
 865.58;  -48.250;    3.236;    0.000;-51.48625
 865.83;  -67.770;    2.321;    0.000;-70.09125
 866.07;  -70.170;    2.855;    0.000;-73.02500
 866.32;  -37.520;    2.915;    0.000;-40.43500
 866.57;  -54.420;   -1.800;    0.000;-52.62000
 866.81;  -65.690;    1.764;    0.000;-67.45375
 867.06;  -56.570;   -0.352;    0.000;-56.21750
 867.30;  -69.310;   -0.220;    0.000;-69.09000
 867.55;  -63.720;    1.786;    0.000;-65.50625
 867.80;  -50.310;    2.810;    0.000;-53.12000
 868.04;  -58.150;    4.080;    0.000;-62.23000
 868.29;  -60.520;    3.003;    0.000;-63.52250
 868.53;  -56.690;    3.311;    0.000;-60.00125
 868.78;  -73.710;   -0.996;    0.000;-72.71375
 869.03;  -56.340;    2.876;    0.000;-59.21625
 869.27;  -63.810;    2.398;    0.000;-66.20750
 869.52;  -59.200;    3.370;    0.000;-62.57000
 869.76;  -59.880;    2.531;    0.000;-62.41125
 870.01;  -59.140;    3.679;    0.000;-62.81875
 870.25;  -53.610;    3.981;    0.000;-57.59125
 870.50;  -52.040;    2.935;    0.000;-54.97500
 870.75;  -57.640;    0.636;    0.000;-58.27625
 870.99;  -53.460;    0.940;    0.000;-54.40000
 871.24;  -63.580;    0.904;    0.000;-64.48375
 871.48;  -46.510;    5.313;    0.000;-51.82250
 871.73;  -64.650;    2.930;    0.000;-67.58000
 871.97;  -62.930;    2.589;    0.000;-65.51875
 872.22;  -57.500;    3.342;    0.000;-60.84250
 872.46;  -58.490;    2.088;    0.000;-60.57750
 872.71;  -76.970;    0.244;    0.000;-77.21375
 872.95;  -55.910;    2.320;    0.000;-58.23000
 873.20;  -49.340;    2.894;    0.000;-52.23375
 873.44;  -51.840;    4.470;    0.000;-56.31000
 873.69;  -61.240;    2.315;    0.000;-63.55500
 873.94;  -57.180;    3.934;    0.000;-61.11375
 874.18;  -64.760;    1.847;    0.000;-66.60750
 874.43;  -52.200;    2.386;    0.000;-54.58625
 874.67;  -58.060;   -0.515;    0.000;-57.54500
 874.92;  -53.410;    1.961;    0.000;-55.37125
 875.16;  -64.640;    4.129;    0.000;-68.76875
 875.41;  -62.790;    0.016;    0.000;-62.80625
 875.65;  -69.530;   -0.228;    0.000;-69.30250
 875.90;  -42.900;    5.189;    0.000;-48.08875
 876.14;  -74.660;    2.056;    0.000;-76.71625
 876.39;  -63.090;    3.029;    0.000;-66.11875
 876.63;  -72.120;    2.815;    0.000;-74.93500
 876.88;  -61.230;    1.354;    0.000;-62.58375
 877.12;  -57.730;    1.954;    0.000;-59.68375
 877.36;  -66.470;    1.592;    0.000;-68.06250
 877.61;  -61.490;    1.324;    0.000;-62.81375
 877.85;  -54.760;    3.668;    0.000;-58.42750
 878.10;  -58.000;    1.811;    0.000;-59.81125
 878.34;  -51.650;    4.662;    0.000;-56.31250
 878.59;  -53.950;    3.560;    0.000;-57.51000
 878.83;  -68.290;    3.334;    0.000;-71.62375
 879.08;  -58.970;    4.274;    0.000;-63.24375
 879.32;  -60.780;    3.205;    0.000;-63.98500
 879.57;  -53.420;    3.221;    0.000;-56.64125
 879.81;  -64.360;    0.571;    0.000;-64.93125
 880.05;  -54.960;    2.775;    0.000;-57.73500
 880.30;  -64.070;    1.899;    0.000;-65.96875
 880.54;  -71.680;    2.659;    0.000;-74.33875
 880.79;  -60.830;    1.919;    0.000;-62.74875
 881.03;  -60.420;    1.780;    0.000;-62.20000
 881.28;  -48.740;    4.125;    0.000;-52.86500
 881.52;  -69.710;    4.539;    0.000;-74.24875
 881.76;  -59.920;    2.729;    0.000;-62.64875
 882.01;  -60.540;    1.770;    0.000;-62.31000
 882.25;  -64.510;    5.285;    0.000;-69.79500
 882.50;  -65.620;    1.586;    0.000;-67.20625
 882.74;  -53.870;    1.505;    0.000;-55.37500
 882.98;  -64.780;    2.839;    0.000;-67.61875
 883.23;  -61.350;    1.059;    0.000;-62.40875
 883.47;  -59.210;    4.950;    0.000;-64.16000
 883.72;  -52.980;    4.606;    0.000;-57.58625
 883.96;  -55.170;    4.194;    0.000;-59.36375
 884.20;  -54.890;    1.607;    0.000;-56.49750
 884.45;  -61.400;    3.172;    0.000;-64.57250
 884.69;  -52.470;    5.045;    0.000;-57.51500
 884.94;  -46.510;    3.589;    0.000;-50.09875
 885.18;  -55.250;    2.435;    0.000;-57.68500
 885.42;  -56.760;    2.079;    0.000;-58.83875
 885.67;  -47.750;    3.995;    0.000;-51.74500
 885.91;  -69.280;    1.904;    0.000;-71.18375
 886.15;  -55.110;    1.859;    0.000;-56.96875
 886.40;  -54.030;    1.438;    0.000;-55.46750
 886.64;  -57.520;    3.661;    0.000;-61.18125
 886.88;  -62.980;    2.609;    0.000;-65.58875
 887.13;  -41.480;    3.316;    0.000;-44.79625
 887.37;  -61.100;    2.561;    0.000;-63.66125
 887.62;  -49.780;    4.399;    0.000;-54.17875
 887.86;  -51.960;    3.491;    0.000;-55.45125
 888.10;  -44.970;    5.320;    0.000;-50.29000
 888.35;  -47.090;    4.015;    0.000;-51.10500
 888.59;  -51.370;    5.435;    0.000;-56.80500
 888.83;  -57.300;    3.104;    0.000;-60.40375
 889.07;  -44.100;    3.310;    0.000;-47.41000
 889.32;  -55.840;    5.429;    0.000;-61.26875
 889.56;  -56.920;    3.888;    0.000;-60.80750
 889.80;  -55.380;    2.438;    0.000;-57.81750
 890.05;  -46.120;    2.096;    0.000;-48.21625
 890.29;  -63.240;    3.392;    0.000;-66.63250
 890.53;  -55.930;    4.108;    0.000;-60.03750
 890.78;  -58.670;    3.010;    0.000;-61.68000
 891.02;  -41.600;    3.884;    0.000;-45.48375
 891.26;  -59.210;    4.090;    0.000;-63.30000
 891.51;  -45.530;    3.727;    0.000;-49.25750
 891.75;  -43.460;    1.636;    0.000;-45.09625
 891.99;  -53.780;    4.133;    0.000;-57.91250
 892.23;  -58.390;    1.094;    0.000;-59.48375
 892.48;  -48.670;    6.174;    0.000;-54.84375
 892.72;  -46.360;    4.309;    0.000;-50.66875
 892.96;  -48.800;    6.463;    0.000;-55.26250
 893.20;  -49.120;    3.534;    0.000;-52.65375
 893.45;  -58.150;    4.674;    0.000;-62.82375
 893.69;  -54.670;    4.350;    0.000;-59.02000
 893.93;  -45.710;    3.811;    0.000;-49.52125
 894.17;  -46.170;    3.632;    0.000;-49.80250
 894.42;  -41.330;    3.563;    0.000;-44.89250
 894.66;  -43.390;    3.575;    0.000;-46.96500
 894.90;  -40.740;    4.434;    0.000;-45.17375
 895.14;  -44.120;    5.156;    0.000;-49.27625
 895.39;  -43.520;    2.453;    0.000;-45.97250
 895.63;  -42.280;    3.581;    0.000;-45.86125
 895.87;  -46.790;    2.703;    0.000;-49.49250
 896.11;  -39.970;    3.902;    0.000;-43.87250
 896.36;  -24.920;    4.361;    0.000;-29.28125
 896.60;  -50.440;    4.684;    0.000;-55.12375
 896.84;  -23.340;    7.503;    0.000;-30.84250
 897.08;  -32.900;    7.704;    0.000;-40.60375
 897.32;  -25.430;    6.090;    0.000;-31.52000
 897.57;  -32.640;    5.235;    0.000;-37.87500
 897.81;  -36.710;    6.305;    0.000;-43.01500
 898.05;  -33.940;    6.220;    0.000;-40.16000
 898.29;  -22.270;    6.834;    0.000;-29.10375
 898.53;  -33.010;    5.426;    0.000;-38.43625
 898.78;  -28.150;    7.475;    0.000;-35.62500
 899.02;  -25.870;    5.856;    0.000;-31.72625
 899.26;  -20.850;    8.570;    0.000;-29.42000
 899.50;   -9.380;    7.455;    0.000;-16.83500
 899.74;  -23.140;    5.930;    0.000;-29.07000
 899.99;  -16.160;    9.002;    0.000;-25.16250
 900.23;   -4.690;    9.759;    0.000;-14.44875
 900.47;  -10.770;    9.193;    0.000;-19.96250
 900.71;    2.690;    9.520;    0.000;-6.83000
 900.95;    2.020;    9.591;    0.000;-7.57125
 901.19;   18.290;    9.936;    0.000; 8.35375
 901.44;   21.650;   11.654;    0.000; 9.99625
 901.68;   31.280;   11.363;    0.000;19.91750
 901.92;   38.450;   12.930;    0.000;25.52000
 902.16;   51.670;   12.275;    0.000;39.39500
 902.40;   61.780;   15.089;    0.000;46.69125
 902.64;   76.490;   18.999;    0.000;57.49125
 902.88;   86.740;   18.346;    0.000;68.39375
 903.13;  115.170;   19.689;    0.000;95.48125

