p2
Integration time [ms]:  10.000
Averaging Nr. [scans]: 100
Smoothing Nr. [pixels]: 0
Data measured with spectrometer [name]: 1307078U2
Wave   ;Sample   ;Dark     ;Reference;Scope Corrected for Dark
[nm]   ;[counts] ;[counts] ;[counts] 

 351.07;   29.570;    0.420;    0.000;29.15000
 351.37;   14.950;    2.109;    0.000;12.84125
 351.66;   16.820;    2.484;    0.000;14.33625
 351.95;    7.980;    0.324;    0.000; 7.65625
 352.24;   16.310;    1.910;    0.000;14.40000
 352.54;    5.670;    1.401;    0.000; 4.26875
 352.83;   14.050;   -0.629;    0.000;14.67875
 353.12;   20.110;    1.364;    0.000;18.74625
 353.42;    7.660;   -0.535;    0.000; 8.19500
 353.71;    6.240;    2.263;    0.000; 3.97750
 354.00;   24.650;    3.929;    0.000;20.72125
 354.30;   16.050;    1.025;    0.000;15.02500
 354.59;   14.400;   -0.266;    0.000;14.66625
 354.88;   10.550;    5.190;    0.000; 5.36000
 355.17;    4.140;   -0.014;    0.000; 4.15375
 355.47;   10.470;    2.134;    0.000; 8.33625
 355.76;   16.850;    0.416;    0.000;16.43375
 356.05;   14.730;    1.192;    0.000;13.53750
 356.35;    4.410;    1.587;    0.000; 2.82250
 356.64;   22.960;    1.753;    0.000;21.20750
 356.93;   12.390;    1.768;    0.000;10.62250
 357.22;   28.680;    1.366;    0.000;27.31375
 357.52;   13.050;    3.320;    0.000; 9.73000
 357.81;   10.190;    1.643;    0.000; 8.54750
 358.10;   13.530;   -0.600;    0.000;14.13000
 358.39;   18.620;    1.461;    0.000;17.15875
 358.69;   16.270;    1.997;    0.000;14.27250
 358.98;    1.260;    0.317;    0.000; 0.94250
 359.27;   15.320;    1.446;    0.000;13.87375
 359.57;   14.110;    2.324;    0.000;11.78625
 359.86;    7.500;   -0.700;    0.000; 8.20000
 360.15;   17.200;    1.474;    0.000;15.72625
 360.44;    8.890;   -0.946;    0.000; 9.83625
 360.74;   16.500;    1.480;    0.000;15.02000
 361.03;   12.410;   -0.345;    0.000;12.75500
 361.32;   13.330;    2.919;    0.000;10.41125
 361.61;    1.220;    2.338;    0.000;-1.11750
 361.91;   17.500;    2.645;    0.000;14.85500
 362.20;   -1.810;    1.590;    0.000;-3.40000
 362.49;    9.520;    1.854;    0.000; 7.66625
 362.78;   19.370;    0.435;    0.000;18.93500
 363.08;    3.240;    1.149;    0.000; 2.09125
 363.37;   15.370;    0.004;    0.000;15.36625
 363.66;   14.580;    3.439;    0.000;11.14125
 363.95;    6.180;    2.359;    0.000; 3.82125
 364.24;    6.410;    2.213;    0.000; 4.19750
 364.54;    8.940;   -0.068;    0.000; 9.00750
 364.83;   11.860;    2.066;    0.000; 9.79375
 365.12;    7.550;   -0.624;    0.000; 8.17375
 365.41;   25.740;    3.152;    0.000;22.58750
 365.71;   14.930;    0.161;    0.000;14.76875
 366.00;    1.150;    1.484;    0.000;-0.33375
 366.29;    3.510;    0.876;    0.000; 2.63375
 366.58;    4.730;    2.200;    0.000; 2.53000
 366.87;   19.610;    3.334;    0.000;16.27625
 367.17;   17.530;    4.057;    0.000;13.47250
 367.46;    8.020;    1.112;    0.000; 6.90750
 367.75;   16.830;    0.207;    0.000;16.62250
 368.04;   12.150;    2.296;    0.000; 9.85375
 368.34;    6.860;    3.155;    0.000; 3.70500
 368.63;   18.850;    1.982;    0.000;16.86750
 368.92;   25.790;    4.579;    0.000;21.21125
 369.21;   15.960;    0.301;    0.000;15.65875
 369.50;   19.460;    4.056;    0.000;15.40375
 369.80;    7.880;    3.011;    0.000; 4.86875
 370.09;   15.020;    2.666;    0.000;12.35375
 370.38;    2.650;    1.489;    0.000; 1.16125
 370.67;    7.610;    2.949;    0.000; 4.66125
 370.96;   11.430;    1.915;    0.000; 9.51500
 371.26;   14.530;    3.515;    0.000;11.01500
 371.55;    9.190;   -0.750;    0.000; 9.94000
 371.84;    9.170;    1.237;    0.000; 7.93250
 372.13;    0.280;    0.486;    0.000;-0.20625
 372.42;   13.230;    4.290;    0.000; 8.94000
 372.71;   12.840;    2.305;    0.000;10.53500
 373.01;   14.890;    2.734;    0.000;12.15625
 373.30;   -4.350;    0.909;    0.000;-5.25875
 373.59;   15.970;    4.401;    0.000;11.56875
 373.88;   16.140;    0.729;    0.000;15.41125
 374.17;   11.410;    5.426;    0.000; 5.98375
 374.46;    9.110;    2.037;    0.000; 7.07250
 374.76;   22.490;    3.602;    0.000;18.88750
 375.05;   26.290;    4.131;    0.000;22.15875
 375.34;    5.570;    4.778;    0.000; 0.79250
 375.63;   -1.150;   -1.367;    0.000; 0.21750
 375.92;   10.120;    1.354;    0.000; 8.76625
 376.21;    5.400;    0.181;    0.000; 5.21875
 376.51;   -3.290;    0.475;    0.000;-3.76500
 376.80;    9.080;    3.346;    0.000; 5.73375
 377.09;   11.760;    1.947;    0.000; 9.81250
 377.38;   15.900;    1.015;    0.000;14.88500
 377.67;   20.730;    2.574;    0.000;18.15625
 377.96;    5.870;    0.863;    0.000; 5.00750
 378.25;   11.550;    3.033;    0.000; 8.51750
 378.55;    5.000;    1.080;    0.000; 3.92000
 378.84;    8.850;    4.383;    0.000; 4.46750
 379.13;   18.740;    1.696;    0.000;17.04375
 379.42;    9.420;    4.142;    0.000; 5.27750
 379.71;    9.470;    1.695;    0.000; 7.77500
 380.00;   17.980;    4.409;    0.000;13.57125
 380.29;    3.740;    0.924;    0.000; 2.81625
 380.59;    5.970;    2.340;    0.000; 3.63000
 380.88;    2.250;    1.253;    0.000; 0.99750
 381.17;    3.000;    2.536;    0.000; 0.46375
 381.46;   14.670;    2.259;    0.000;12.41125
 381.75;    9.930;    3.750;    0.000; 6.18000
 382.04;   10.370;    3.304;    0.000; 7.06625
 382.33;    4.980;    1.438;    0.000; 3.54250
 382.62;   -1.960;    2.980;    0.000;-4.94000
 382.91;   15.450;    3.025;    0.000;12.42500
 383.21;   11.930;   -1.186;    0.000;13.11625
 383.50;    5.070;    1.279;    0.000; 3.79125
 383.79;   12.380;    3.581;    0.000; 8.79875
 384.08;    2.700;    1.620;    0.000; 1.08000
 384.37;    9.060;    2.861;    0.000; 6.19875
 384.66;   10.960;    0.262;    0.000;10.69750
 384.95;    8.840;    1.033;    0.000; 7.80750
 385.24;    9.550;    0.772;    0.000; 8.77750
 385.53;   -2.460;   -1.732;    0.000;-0.72750
 385.83;   -3.210;    0.712;    0.000;-3.92250
 386.12;   15.510;    1.009;    0.000;14.50125
 386.41;   -0.350;    2.080;    0.000;-2.43000
 386.70;    2.770;    0.155;    0.000; 2.61500
 386.99;    3.550;    0.820;    0.000; 2.73000
 387.28;   17.740;    3.057;    0.000;14.68250
 387.57;    6.990;    2.020;    0.000; 4.97000
 387.86;   14.450;    1.317;    0.000;13.13250
 388.15;    5.770;    2.237;    0.000; 3.53250
 388.44;   13.700;    1.854;    0.000;11.84625
 388.73;   11.800;    1.639;    0.000;10.16125
 389.02;    9.240;    1.174;    0.000; 8.06625
 389.31;    7.210;    3.336;    0.000; 3.87375
 389.61;   10.380;    1.742;    0.000; 8.63750
 389.90;    7.140;    2.181;    0.000; 4.95875
 390.19;    9.740;    0.252;    0.000; 9.48750
 390.48;   14.300;    3.714;    0.000;10.58625
 390.77;   12.580;    2.156;    0.000;10.42375
 391.06;    2.190;    0.019;    0.000; 2.17125
 391.35;    3.010;    0.766;    0.000; 2.24375
 391.64;   26.020;    4.639;    0.000;21.38125
 391.93;   -1.670;    0.449;    0.000;-2.11875
 392.22;    9.120;    2.592;    0.000; 6.52750
 392.51;   23.030;    1.247;    0.000;21.78250
 392.80;   13.300;    2.735;    0.000;10.56500
 393.09;    6.670;    1.086;    0.000; 5.58375
 393.38;    6.730;    0.229;    0.000; 6.50125
 393.67;    6.980;    1.561;    0.000; 5.41875
 393.96;   12.570;    1.930;    0.000;10.64000
 394.25;    8.530;    0.956;    0.000; 7.57375
 394.54;    8.280;    1.622;    0.000; 6.65750
 394.83;    9.980;    0.440;    0.000; 9.54000
 395.13;    5.020;    2.201;    0.000; 2.81875
 395.42;   13.040;    2.457;    0.000;10.58250
 395.71;   12.220;    4.305;    0.000; 7.91500
 396.00;   13.710;    1.222;    0.000;12.48750
 396.29;   13.510;    1.178;    0.000;12.33250
 396.58;    8.120;    0.967;    0.000; 7.15250
 396.87;   10.610;    1.986;    0.000; 8.62375
 397.16;   11.010;    1.911;    0.000; 9.09875
 397.45;   15.080;    3.014;    0.000;12.06625
 397.74;   13.360;    2.689;    0.000;10.67125
 398.03;   11.890;    2.170;    0.000; 9.72000
 398.32;    7.510;    1.844;    0.000; 5.66625
 398.61;    9.360;    3.154;    0.000; 6.20625
 398.90;   16.300;    1.420;    0.000;14.88000
 399.19;   12.940;    3.316;    0.000; 9.62375
 399.48;    0.860;    0.412;    0.000; 0.44750
 399.77;   11.510;    1.786;    0.000; 9.72375
 400.06;   16.390;    2.120;    0.000;14.27000
 400.35;   11.830;    3.961;    0.000; 7.86875
 400.64;    0.730;    2.411;    0.000;-1.68125
 400.93;   13.910;    3.304;    0.000;10.60625
 401.22;   14.020;    1.479;    0.000;12.54125
 401.51;    9.380;    3.400;    0.000; 5.98000
 401.80;    5.730;    1.049;    0.000; 4.68125
 402.09;    6.850;    1.710;    0.000; 5.14000
 402.38;    4.100;    1.655;    0.000; 2.44500
 402.67;    3.260;    2.055;    0.000; 1.20500
 402.96;    9.150;    1.381;    0.000; 7.76875
 403.25;   19.510;    4.099;    0.000;15.41125
 403.54;   17.310;    2.920;    0.000;14.39000
 403.83;    8.910;    1.701;    0.000; 7.20875
 404.12;   12.140;    4.244;    0.000; 7.89625
 404.41;   11.870;    7.259;    0.000; 4.61125
 404.70;    8.100;    1.739;    0.000; 6.36125
 404.98;   17.250;    3.635;    0.000;13.61500
 405.27;   13.720;    2.116;    0.000;11.60375
 405.56;   25.780;    5.247;    0.000;20.53250
 405.85;   15.550;    1.905;    0.000;13.64500
 406.14;    5.740;    2.216;    0.000; 3.52375
 406.43;   -2.720;    0.695;    0.000;-3.41500
 406.72;   17.780;    1.689;    0.000;16.09125
 407.01;    5.190;    2.034;    0.000; 3.15625
 407.30;   12.050;    2.056;    0.000; 9.99375
 407.59;   12.780;   -0.241;    0.000;13.02125
 407.88;   12.100;    1.026;    0.000;11.07375
 408.17;    4.730;    1.819;    0.000; 2.91125
 408.46;    9.200;    2.744;    0.000; 6.45625
 408.75;   20.990;    2.339;    0.000;18.65125
 409.04;    7.660;    1.809;    0.000; 5.85125
 409.33;    3.330;    1.810;    0.000; 1.52000
 409.62;   15.140;    3.089;    0.000;12.05125
 409.91;    6.640;    0.704;    0.000; 5.93625
 410.20;   12.290;    1.890;    0.000;10.40000
 410.48;   14.420;    1.309;    0.000;13.11125
 410.77;    6.150;    2.919;    0.000; 3.23125
 411.06;   11.100;   -0.224;    0.000;11.32375
 411.35;   20.460;    2.226;    0.000;18.23375
 411.64;   12.500;    2.741;    0.000; 9.75875
 411.93;    5.130;   -0.534;    0.000; 5.66375
 412.22;    8.390;    0.561;    0.000; 7.82875
 412.51;    7.310;    2.220;    0.000; 5.09000
 412.80;   15.110;    1.974;    0.000;13.13625
 413.09;    4.840;    0.749;    0.000; 4.09125
 413.38;   11.300;    3.604;    0.000; 7.69625
 413.67;    3.740;    0.146;    0.000; 3.59375
 413.96;    0.070;   -0.986;    0.000; 1.05625
 414.24;   12.780;    2.872;    0.000; 9.90750
 414.53;   15.430;    3.146;    0.000;12.28375
 414.82;   13.090;    2.290;    0.000;10.80000
 415.11;   19.260;    2.401;    0.000;16.85875
 415.40;   14.460;    0.995;    0.000;13.46500
 415.69;    8.480;    2.255;    0.000; 6.22500
 415.98;   10.180;    3.622;    0.000; 6.55750
 416.27;   -1.290;    2.026;    0.000;-3.31625
 416.56;    5.950;    2.160;    0.000; 3.79000
 416.84;    8.830;    1.849;    0.000; 6.98125
 417.13;    7.020;    1.085;    0.000; 5.93500
 417.42;   19.760;    2.255;    0.000;17.50500
 417.71;    5.170;    0.942;    0.000; 4.22750
 418.00;   17.980;   -0.894;    0.000;18.87375
 418.29;   12.840;    2.760;    0.000;10.08000
 418.58;   11.300;    1.184;    0.000;10.11625
 418.87;   11.220;    1.616;    0.000; 9.60375
 419.15;   15.950;    1.469;    0.000;14.48125
 419.44;   13.140;    1.505;    0.000;11.63500
 419.73;    4.460;   -0.203;    0.000; 4.66250
 420.02;    4.060;    3.578;    0.000; 0.48250
 420.31;    7.580;    0.189;    0.000; 7.39125
 420.60;   15.890;    0.344;    0.000;15.54625
 420.89;   11.280;    1.889;    0.000; 9.39125
 421.18;   12.770;    0.249;    0.000;12.52125
 421.46;   19.130;    1.220;    0.000;17.91000
 421.75;    8.180;    1.529;    0.000; 6.65125
 422.04;    3.860;    1.446;    0.000; 2.41375
 422.33;   27.210;    1.941;    0.000;25.26875
 422.62;   13.600;    4.503;    0.000; 9.09750
 422.91;   13.660;    4.043;    0.000; 9.61750
 423.19;   -2.360;    3.485;    0.000;-5.84500
 423.48;   18.800;    1.274;    0.000;17.52625
 423.77;    9.680;    2.696;    0.000; 6.98375
 424.06;    4.450;    3.234;    0.000; 1.21625
 424.35;    3.930;    0.522;    0.000; 3.40750
 424.64;   30.390;    3.535;    0.000;26.85500
 424.93;   -0.280;   -0.317;    0.000; 0.03750
 425.21;    8.770;    2.582;    0.000; 6.18750
 425.50;   14.520;    3.263;    0.000;11.25750
 425.79;    3.770;    2.591;    0.000; 1.17875
 426.08;   10.430;    1.785;    0.000; 8.64500
 426.37;   16.500;    1.579;    0.000;14.92125
 426.65;    2.350;    2.955;    0.000;-0.60500
 426.94;    6.120;    2.134;    0.000; 3.98625
 427.23;   18.850;    2.475;    0.000;16.37500
 427.52;   12.260;    0.715;    0.000;11.54500
 427.81;    4.290;   -0.177;    0.000; 4.46750
 428.10;   19.970;    2.043;    0.000;17.92750
 428.38;   -3.160;    0.154;    0.000;-3.31375
 428.67;   12.550;    2.436;    0.000;10.11375
 428.96;   -0.470;    1.938;    0.000;-2.40750
 429.25;    9.190;    2.326;    0.000; 6.86375
 429.54;   20.100;    2.418;    0.000;17.68250
 429.82;   11.790;    2.749;    0.000; 9.04125
 430.11;   15.730;    0.755;    0.000;14.97500
 430.40;   21.660;    2.376;    0.000;19.28375
 430.69;    8.980;    2.435;    0.000; 6.54500
 430.98;    5.200;    3.626;    0.000; 1.57375
 431.26;   14.360;    4.383;    0.000; 9.97750
 431.55;    4.910;    3.697;    0.000; 1.21250
 431.84;    7.000;   -0.666;    0.000; 7.66625
 432.13;   17.940;    0.749;    0.000;17.19125
 432.41;    7.670;    2.846;    0.000; 4.82375
 432.70;   12.590;    2.501;    0.000;10.08875
 432.99;   18.570;    2.007;    0.000;16.56250
 433.28;    4.100;    4.089;    0.000; 0.01125
 433.57;   18.100;    0.668;    0.000;17.43250
 433.85;   15.140;    0.570;    0.000;14.57000
 434.14;    8.880;    1.510;    0.000; 7.37000
 434.43;   22.090;    4.943;    0.000;17.14750
 434.72;    6.130;    1.523;    0.000; 4.60750
 435.00;    4.870;    4.381;    0.000; 0.48875
 435.29;   12.710;    3.159;    0.000; 9.55125
 435.58;    5.600;    3.307;    0.000; 2.29250
 435.87;   16.280;    0.380;    0.000;15.90000
 436.15;   10.230;    2.906;    0.000; 7.32375
 436.44;   12.990;    2.568;    0.000;10.42250
 436.73;   15.150;    4.294;    0.000;10.85625
 437.02;    2.960;    2.537;    0.000; 0.42250
 437.30;   13.600;    2.334;    0.000;11.26625
 437.59;   14.450;    2.810;    0.000;11.64000
 437.88;   10.500;    5.700;    0.000; 4.80000
 438.17;    4.030;   -0.534;    0.000; 4.56375
 438.45;    5.630;    3.159;    0.000; 2.47125
 438.74;   10.130;    0.505;    0.000; 9.62500
 439.03;   14.940;    2.618;    0.000;12.32250
 439.32;    7.100;    3.250;    0.000; 3.85000
 439.60;    9.360;    0.890;    0.000; 8.47000
 439.89;   10.620;    2.642;    0.000; 7.97750
 440.18;   10.720;    2.490;    0.000; 8.23000
 440.46;    4.230;    0.183;    0.000; 4.04750
 440.75;   17.080;    2.443;    0.000;14.63750
 441.04;   16.020;    0.079;    0.000;15.94125
 441.33;   16.040;    3.149;    0.000;12.89125
 441.61;    3.750;    2.630;    0.000; 1.12000
 441.90;   23.080;    3.733;    0.000;19.34750
 442.19;    4.080;   -0.200;    0.000; 4.28000
 442.47;   10.450;    3.862;    0.000; 6.58750
 442.76;   13.500;    2.916;    0.000;10.58375
 443.05;   12.740;    2.666;    0.000;10.07375
 443.34;   10.120;    2.057;    0.000; 8.06250
 443.62;   10.340;    1.426;    0.000; 8.91375
 443.91;    2.270;    0.027;    0.000; 2.24250
 444.20;   28.750;    6.335;    0.000;22.41500
 444.48;    2.840;    1.109;    0.000; 1.73125
 444.77;   32.810;    4.639;    0.000;28.17125
 445.06;    1.100;    1.806;    0.000;-0.70625
 445.34;    4.840;    0.406;    0.000; 4.43375
 445.63;    2.480;    0.630;    0.000; 1.85000
 445.92;   34.280;    1.935;    0.000;32.34500
 446.21;   17.230;    3.364;    0.000;13.86625
 446.49;   19.470;    2.110;    0.000;17.36000
 446.78;   16.160;    2.021;    0.000;14.13875
 447.07;    6.030;    0.465;    0.000; 5.56500
 447.35;   -3.650;    0.983;    0.000;-4.63250
 447.64;   10.620;    3.451;    0.000; 7.16875
 447.93;    5.860;    1.934;    0.000; 3.92625
 448.21;    7.550;    1.536;    0.000; 6.01375
 448.50;    3.570;    1.910;    0.000; 1.66000
 448.79;   14.530;    1.992;    0.000;12.53750
 449.07;   14.850;    3.325;    0.000;11.52500
 449.36;   -5.310;    1.426;    0.000;-6.73625
 449.65;    4.200;    0.134;    0.000; 4.06625
 449.93;    9.890;    3.255;    0.000; 6.63500
 450.22;   16.200;    1.070;    0.000;15.13000
 450.51;    9.400;    3.435;    0.000; 5.96500
 450.79;   12.710;    2.901;    0.000; 9.80875
 451.08;    1.170;    2.376;    0.000;-1.20625
 451.36;   11.440;   -0.282;    0.000;11.72250
 451.65;    7.550;    4.582;    0.000; 2.96750
 451.94;    6.620;    2.245;    0.000; 4.37500
 452.22;    8.530;    1.971;    0.000; 6.55875
 452.51;    5.540;    2.864;    0.000; 2.67625
 452.80;    3.740;    0.808;    0.000; 2.93250
 453.08;   12.070;    3.300;    0.000; 8.77000
 453.37;   14.890;    5.216;    0.000; 9.67375
 453.66;    4.290;    1.974;    0.000; 2.31625
 453.94;   12.070;    2.578;    0.000; 9.49250
 454.23;    9.100;    0.707;    0.000; 8.39250
 454.51;   13.350;    5.106;    0.000; 8.24375
 454.80;   -2.740;    1.065;    0.000;-3.80500
 455.09;   13.660;    3.789;    0.000; 9.87125
 455.37;   26.850;    2.000;    0.000;24.85000
 455.66;   15.310;    0.929;    0.000;14.38125
 455.95;   12.620;    2.487;    0.000;10.13250
 456.23;   13.530;    1.810;    0.000;11.72000
 456.52;   11.940;   -1.785;    0.000;13.72500
 456.80;   11.210;    1.676;    0.000; 9.53375
 457.09;   10.970;    0.610;    0.000;10.36000
 457.38;   28.120;    2.624;    0.000;25.49625
 457.66;   12.750;    2.954;    0.000; 9.79625
 457.95;    9.730;    2.106;    0.000; 7.62375
 458.23;   11.060;   -0.848;    0.000;11.90750
 458.52;   20.000;    3.451;    0.000;16.54875
 458.81;    3.980;    4.972;    0.000;-0.99250
 459.09;    7.730;    4.175;    0.000; 3.55500
 459.38;    8.830;    0.647;    0.000; 8.18250
 459.66;    7.860;    2.150;    0.000; 5.71000
 459.95;   10.520;    3.480;    0.000; 7.04000
 460.23;   17.370;    1.835;    0.000;15.53500
 460.52;   14.100;   -0.050;    0.000;14.15000
 460.81;    4.690;    3.735;    0.000; 0.95500
 461.09;    5.360;    2.649;    0.000; 2.71125
 461.38;   18.330;    0.196;    0.000;18.13375
 461.66;    8.030;    2.040;    0.000; 5.99000
 461.95;    8.340;    2.691;    0.000; 5.64875
 462.23;    9.730;    2.905;    0.000; 6.82500
 462.52;    4.290;    1.970;    0.000; 2.32000
 462.81;    3.440;    1.775;    0.000; 1.66500
 463.09;   15.120;    2.996;    0.000;12.12375
 463.38;    2.570;    3.536;    0.000;-0.96625
 463.66;    3.870;    2.416;    0.000; 1.45375
 463.95;   18.190;    0.976;    0.000;17.21375
 464.23;   16.990;    3.136;    0.000;13.85375
 464.52;   11.630;    0.415;    0.000;11.21500
 464.80;   10.160;    2.267;    0.000; 7.89250
 465.09;   15.700;    4.450;    0.000;11.25000
 465.38;    2.460;    2.135;    0.000; 0.32500
 465.66;    4.020;    3.092;    0.000; 0.92750
 465.95;   16.190;    3.005;    0.000;13.18500
 466.23;    3.040;    1.654;    0.000; 1.38625
 466.52;    1.230;    2.730;    0.000;-1.50000
 466.80;   33.230;    4.429;    0.000;28.80125
 467.09;   13.700;    2.030;    0.000;11.67000
 467.37;   14.160;    2.378;    0.000;11.78250
 467.66;   17.560;    4.521;    0.000;13.03875
 467.94;    6.070;    1.929;    0.000; 4.14125
 468.23;    3.710;    1.577;    0.000; 2.13250
 468.51;   14.670;    3.882;    0.000;10.78750
 468.80;    9.670;    3.013;    0.000; 6.65750
 469.08;   14.830;    2.563;    0.000;12.26750
 469.37;   15.520;    3.146;    0.000;12.37375
 469.66;   17.750;    1.077;    0.000;16.67250
 469.94;    9.200;    0.594;    0.000; 8.60625
 470.23;    9.940;    0.586;    0.000; 9.35375
 470.51;    7.390;    2.723;    0.000; 4.66750
 470.80;   20.070;    2.582;    0.000;17.48750
 471.08;   13.620;    3.061;    0.000;10.55875
 471.37;   13.020;    2.378;    0.000;10.64250
 471.65;   21.100;    3.132;    0.000;17.96750
 471.94;    3.210;    0.899;    0.000; 2.31125
 472.22;   12.660;    1.457;    0.000;11.20250
 472.51;   12.310;    1.730;    0.000;10.58000
 472.79;   18.460;    3.695;    0.000;14.76500
 473.08;   22.550;    0.592;    0.000;21.95750
 473.36;   20.410;    3.221;    0.000;17.18875
 473.64;   10.340;    1.619;    0.000; 8.72125
 473.93;    6.560;    3.253;    0.000; 3.30750
 474.21;   16.540;    2.713;    0.000;13.82750
 474.50;   11.960;    4.048;    0.000; 7.91250
 474.78;   28.080;    2.095;    0.000;25.98500
 475.07;    9.250;    0.941;    0.000; 8.30875
 475.35;   22.250;    3.199;    0.000;19.05125
 475.64;   15.240;    2.451;    0.000;12.78875
 475.92;   13.790;    1.299;    0.000;12.49125
 476.21;   12.560;    0.804;    0.000;11.75625
 476.49;   22.010;    2.276;    0.000;19.73375
 476.78;   16.430;    2.287;    0.000;14.14250
 477.06;   22.760;    2.473;    0.000;20.28750
 477.35;   19.050;    3.790;    0.000;15.26000
 477.63;   16.940;    1.086;    0.000;15.85375
 477.91;    9.720;    1.760;    0.000; 7.96000
 478.20;   12.200;    1.059;    0.000;11.14125
 478.48;   15.290;    0.538;    0.000;14.75250
 478.77;   19.000;    3.499;    0.000;15.50125
 479.05;   13.740;    3.216;    0.000;10.52375
 479.34;   27.260;    0.761;    0.000;26.49875
 479.62;   23.630;    3.401;    0.000;20.22875
 479.91;   22.810;   -0.785;    0.000;23.59500
 480.19;   25.000;    2.868;    0.000;22.13250
 480.47;   13.880;    0.215;    0.000;13.66500
 480.76;   20.490;    5.134;    0.000;15.35625
 481.04;   18.850;    2.594;    0.000;16.25625
 481.33;   23.620;    5.226;    0.000;18.39375
 481.61;   18.840;    0.775;    0.000;18.06500
 481.90;   22.330;    3.454;    0.000;18.87625
 482.18;   18.770;    1.354;    0.000;17.41625
 482.46;   21.560;    2.395;    0.000;19.16500
 482.75;   12.240;    3.819;    0.000; 8.42125
 483.03;   13.930;    1.339;    0.000;12.59125
 483.32;   16.590;   -0.608;    0.000;17.19750
 483.60;   31.810;    2.681;    0.000;29.12875
 483.88;   22.700;    3.960;    0.000;18.74000
 484.17;   32.530;    1.490;    0.000;31.04000
 484.45;   32.340;    0.410;    0.000;31.93000
 484.74;   27.020;    2.251;    0.000;24.76875
 485.02;   39.610;    2.283;    0.000;37.32750
 485.30;   36.850;    1.720;    0.000;35.13000
 485.59;   37.680;    0.525;    0.000;37.15500
 485.87;   57.500;    1.050;    0.000;56.45000
 486.16;   39.640;    1.403;    0.000;38.23750
 486.44;   38.970;    2.604;    0.000;36.36625
 486.72;   44.100;    1.150;    0.000;42.95000
 487.01;   46.630;    3.671;    0.000;42.95875
 487.29;   52.660;    0.510;    0.000;52.15000
 487.58;   63.990;    5.654;    0.000;58.33625
 487.86;   63.720;    3.342;    0.000;60.37750
 488.14;   64.370;    3.932;    0.000;60.43750
 488.43;   71.800;    0.979;    0.000;70.82125
 488.71;   81.190;    0.730;    0.000;80.46000
 488.99;   86.600;    1.616;    0.000;84.98375
 489.28;   95.750;    0.715;    0.000;95.03500
 489.56;  105.580;    1.239;    0.000;104.34125
 489.85;  117.480;    2.350;    0.000;115.13000
 490.13;  121.040;    2.057;    0.000;118.98250
 490.41;  145.010;    4.855;    0.000;140.15499
 490.70;  160.080;    2.358;    0.000;157.72250
 490.98;  167.070;    1.931;    0.000;165.13876
 491.26;  194.350;   -0.796;    0.000;195.14626
 491.55;  217.040;    2.747;    0.000;214.29249
 491.83;  249.230;    2.797;    0.000;246.43250
 492.11;  265.480;    0.218;    0.000;265.26251
 492.40;  280.800;    1.774;    0.000;279.02624
 492.68;  328.180;    3.876;    0.000;324.30374
 492.96;  358.690;    2.506;    0.000;356.18375
 493.25;  397.240;    3.009;    0.000;394.23124
 493.53;  426.380;    1.435;    0.000;424.94500
 493.81;  451.280;    3.051;    0.000;448.22875
 494.10;  521.440;    2.372;    0.000;519.06750
 494.38;  570.440;    0.340;    0.000;570.10000
 494.66;  601.420;   -0.239;    0.000;601.65873
 494.95;  672.460;    2.470;    0.000;669.99002
 495.23;  725.480;    3.210;    0.000;722.26998
 495.51;  792.380;    4.576;    0.000;787.80375
 495.80;  858.140;    2.500;    0.000;855.64001
 496.08;  927.990;    4.334;    0.000;923.65624
 496.36; 1013.020;    2.381;    0.000;1010.63877
 496.65; 1079.940;    0.871;    0.000;1079.06869
 496.93; 1166.170;    2.741;    0.000;1163.42879
 497.21; 1247.800;    0.571;    0.000;1247.22880
 497.50; 1345.070;    3.068;    0.000;1342.00245
 497.78; 1437.590;    1.405;    0.000;1436.18497
 498.06; 1533.710;    0.853;    0.000;1532.85746
 498.34; 1650.740;    2.364;    0.000;1648.37624
 498.63; 1751.650;    3.320;    0.000;1748.33002
 498.91; 1876.340;    4.931;    0.000;1871.40872
 499.19; 2006.200;    1.158;    0.000;2005.04245
 499.48; 2117.530;    2.360;    0.000;2115.17003
 499.76; 2280.350;    3.057;    0.000;2277.29260
 500.04; 2425.700;    4.120;    0.000;2421.57995
 500.32; 2547.870;    3.015;    0.000;2544.85512
 500.61; 2680.030;    2.210;    0.000;2677.82003
 500.89; 2834.150;    2.584;    0.000;2831.56615
 501.17; 2996.610;    1.663;    0.000;2994.94761
 501.46; 3186.750;    3.491;    0.000;3183.25875
 501.74; 3333.930;    4.365;    0.000;3329.56493
 502.02; 3526.450;    3.974;    0.000;3522.47620
 502.30; 3693.420;    3.686;    0.000;3689.73367
 502.59; 3876.610;    3.149;    0.000;3873.46136
 502.87; 4075.910;    2.419;    0.000;4073.49116
 503.15; 4255.410;    3.114;    0.000;4252.29641
 503.43; 4460.670;    1.428;    0.000;4459.24242
 503.72; 4701.260;    1.790;    0.000;4699.46977
 504.00; 4905.350;    1.394;    0.000;4903.95635
 504.28; 5139.960;    2.723;    0.000;5137.23746
 504.56; 5309.140;    3.711;    0.000;5305.42889
 504.85; 5564.110;    1.084;    0.000;5563.02611
 505.13; 5811.260;    3.199;    0.000;5808.06102
 505.41; 6059.390;    1.260;    0.000;6058.13014
 505.69; 6288.670;    4.202;    0.000;6284.46742
 505.98; 6530.140;    2.303;    0.000;6527.83764
 506.26; 6792.070;    2.465;    0.000;6789.60482
 506.54; 7036.030;    1.691;    0.000;7034.33854
 506.82; 7313.110;    1.630;    0.000;7311.47986
 507.11; 7583.600;    2.685;    0.000;7580.91510
 507.39; 7842.630;    2.963;    0.000;7839.66738
 507.67; 8135.070;    2.545;    0.000;8132.52482
 507.95; 8374.590;    4.004;    0.000;8370.58609
 508.23; 8685.810;    1.665;    0.000;8684.14457
 508.52; 8954.760;    4.427;    0.000;8950.33227
 508.80; 9226.370;    2.648;    0.000;9223.72262
 509.08; 9544.530;    3.473;    0.000;9541.05777
 509.36; 9847.740;    0.114;    0.000;9847.62648
 509.65;10155.430;    2.144;    0.000;10153.28594
 509.93;10467.240;    1.548;    0.000;10465.69273
 510.21;10703.130;    1.577;    0.000;10701.55238
 510.49;11024.160;    2.626;    0.000;11021.53391
 510.77;11325.630;    2.529;    0.000;11323.10113
 511.06;11640.230;    1.059;    0.000;11639.17172
 511.34;11929.330;    1.541;    0.000;11927.78883
 511.62;12247.760;   -1.497;    0.000;12249.25727
 511.90;12569.030;    3.204;    0.000;12565.82652
 512.18;12858.970;    1.067;    0.000;12857.90223
 512.47;13199.170;    5.470;    0.000;13193.69992
 512.75;13470.450;    1.100;    0.000;13469.35020
 513.03;13803.200;    4.050;    0.000;13799.15020
 513.31;14083.640;    1.416;    0.000;14082.22340
 513.59;14387.170;    3.094;    0.000;14384.07617
 513.87;14722.670;    1.499;    0.000;14721.17117
 514.16;15048.020;    3.134;    0.000;15044.88578
 514.44;15334.710;    1.394;    0.000;15333.31621
 514.72;15625.140;    3.402;    0.000;15621.73715
 515.00;15903.270;    2.842;    0.000;15900.42703
 515.28;16256.210;    3.527;    0.000;16252.68246
 515.56;16568.510;    2.730;    0.000;16565.77977
 515.85;16864.150;    0.644;    0.000;16863.50664
 516.13;17196.539;    2.204;    0.000;17194.33531
 516.41;17479.320;    1.971;    0.000;17477.34906
 516.69;17782.400;    3.354;    0.000;17779.04664
 516.97;18109.760;    4.766;    0.000;18104.99352
 517.25;18368.949;    2.075;    0.000;18366.87422
 517.54;18624.680;    4.198;    0.000;18620.48219
 517.82;18947.480;    2.642;    0.000;18944.83797
 518.10;19248.250;    1.928;    0.000;19246.32250
 518.38;19545.490;    3.320;    0.000;19542.17023
 518.66;19823.779;    3.017;    0.000;19820.76180
 518.94;20116.369;   -0.038;    0.000;20116.40664
 519.22;20354.641;    3.063;    0.000;20351.57813
 519.51;20621.881;    0.155;    0.000;20621.72586
 519.79;20912.250;   -0.216;    0.000;20912.46625
 520.07;21164.400;    3.670;    0.000;21160.73039
 520.35;21437.750;    3.328;    0.000;21434.42250
 520.63;21678.211;    2.414;    0.000;21675.79719
 520.91;21933.340;    0.201;    0.000;21933.13859
 521.19;22237.900;    3.025;    0.000;22234.87539
 521.47;22477.330;    1.909;    0.000;22475.42133
 521.75;22749.340;    2.081;    0.000;22747.25859
 522.04;22985.010;    2.229;    0.000;22982.78102
 522.32;23202.939;    0.170;    0.000;23202.76945
 522.60;23501.461;    3.899;    0.000;23497.56219
 522.88;23593.439;    3.216;    0.000;23590.22320
 523.16;23883.211;    2.065;    0.000;23881.14594
 523.44;24175.641;    2.495;    0.000;24173.14563
 523.72;24405.430;    3.304;    0.000;24402.12594
 524.00;24627.670;    2.655;    0.000;24625.01492
 524.28;24833.670;    2.943;    0.000;24830.72742
 524.57;25109.500;    2.586;    0.000;25106.91375
 524.85;25251.570;    4.845;    0.000;25246.72531
 525.13;25429.670;    4.231;    0.000;25425.43867
 525.41;25676.699;    1.692;    0.000;25675.00672
 525.69;25871.670;    1.334;    0.000;25870.33617
 525.97;26143.689;    4.061;    0.000;26139.62820
 526.25;26298.070;    0.954;    0.000;26297.11656
 526.53;26500.320;    4.273;    0.000;26496.04781
 526.81;26721.830;    0.319;    0.000;26721.51133
 527.09;26813.711;    1.679;    0.000;26812.03219
 527.37;27042.141;    0.134;    0.000;27042.00687
 527.65;27244.510;    3.938;    0.000;27240.57227
 527.93;27390.270;    1.886;    0.000;27388.38328
 528.22;27582.279;    3.976;    0.000;27578.30305
 528.50;27809.439;    1.497;    0.000;27807.94195
 528.78;27981.350;    4.605;    0.000;27976.74461
 529.06;28120.820;    3.001;    0.000;28117.81906
 529.34;28310.340;    3.697;    0.000;28306.64234
 529.62;28502.650;    2.995;    0.000;28499.65539
 529.90;28631.740;    2.693;    0.000;28629.04773
 530.18;28812.010;    0.646;    0.000;28811.36352
 530.46;28969.301;    3.618;    0.000;28965.68328
 530.74;29125.660;    4.294;    0.000;29121.36641
 531.02;29392.211;    2.640;    0.000;29389.57094
 531.30;29531.570;    0.880;    0.000;29530.69031
 531.58;29577.471;    3.714;    0.000;29573.75695
 531.86;29711.029;    2.035;    0.000;29708.99430
 532.14;29963.289;    4.215;    0.000;29959.07406
 532.42;30029.000;    2.910;    0.000;30026.09000
 532.70;30209.359;    3.036;    0.000;30206.32312
 532.98;30328.670;    0.534;    0.000;30328.13617
 533.26;30482.131;    2.263;    0.000;30479.86836
 533.54;30600.811;    1.962;    0.000;30598.84805
 533.82;30754.609;    4.854;    0.000;30749.75562
 534.10;30874.410;    3.501;    0.000;30870.90891
 534.38;30938.330;    0.683;    0.000;30937.64758
 534.66;31162.500;    4.026;    0.000;31158.47375
 534.94;31246.590;    2.694;    0.000;31243.89609
 535.22;31365.350;    2.501;    0.000;31362.84836
 535.50;31463.289;    1.347;    0.000;31461.94156
 535.78;31593.971;    4.506;    0.000;31589.46445
 536.06;31749.250;    5.009;    0.000;31744.24125
 536.34;31845.080;    2.092;    0.000;31842.98758
 536.62;31972.600;    3.473;    0.000;31969.12711
 536.90;32106.830;    4.017;    0.000;32102.81258
 537.18;32161.289;    2.636;    0.000;32158.65281
 537.46;32269.500;    0.501;    0.000;32268.99875
 537.74;32386.221;    3.977;    0.000;32382.24320
 538.02;32558.391;    5.509;    0.000;32552.88188
 538.30;32625.631;    5.718;    0.000;32619.91336
 538.58;32709.279;    2.925;    0.000;32706.35430
 538.86;32799.762;    4.149;    0.000;32795.61297
 539.14;32916.469;    3.205;    0.000;32913.26375
 539.42;33064.961;    5.500;    0.000;33059.46094
 539.70;33109.441;    1.393;    0.000;33108.04891
 539.98;33234.230;    2.892;    0.000;33231.33797
 540.26;33358.051;    1.592;    0.000;33356.45828
 540.54;33403.691;    4.443;    0.000;33399.24891
 540.82;33530.762;    1.806;    0.000;33528.95547
 541.10;33657.191;    4.010;    0.000;33653.18141
 541.38;33679.711;    2.525;    0.000;33677.18594
 541.66;33801.762;    4.036;    0.000;33797.72547
 541.94;33819.988;    5.741;    0.000;33814.24703
 542.22;33992.711;    6.370;    0.000;33986.34094
 542.50;34082.719;    2.181;    0.000;34080.53750
 542.78;34090.379;    3.706;    0.000;34086.67266
 543.06;34180.031;    1.092;    0.000;34178.93875
 543.34;34195.500;    4.554;    0.000;34190.94625
 543.62;34363.891;    1.795;    0.000;34362.09563
 543.90;34450.059;    2.027;    0.000;34448.03109
 544.17;34500.211;    2.539;    0.000;34497.67219
 544.45;34531.980;    5.716;    0.000;34526.26422
 544.73;34633.871;    3.084;    0.000;34630.78734
 545.01;34630.059;    3.473;    0.000;34626.58609
 545.29;34708.309;    4.139;    0.000;34704.16984
 545.57;34903.352;    5.057;    0.000;34898.29406
 545.85;34904.172;    3.080;    0.000;34901.09188
 546.13;34940.469;    3.045;    0.000;34937.42375
 546.41;35031.359;    5.004;    0.000;35026.35563
 546.69;35053.961;    5.885;    0.000;35048.07594
 546.97;35147.121;    3.510;    0.000;35143.61109
 547.25;35135.910;    5.443;    0.000;35130.46766
 547.52;35227.449;    6.606;    0.000;35220.84297
 547.80;35304.828;    4.670;    0.000;35300.15812
 548.08;35290.730;    2.263;    0.000;35288.46797
 548.36;35360.309;    4.355;    0.000;35355.95359
 548.64;35447.309;    4.756;    0.000;35442.55234
 548.92;35495.199;    3.705;    0.000;35491.49422
 549.20;35478.090;    3.259;    0.000;35474.83109
 549.48;35474.648;    4.170;    0.000;35470.47844
 549.76;35546.422;    4.735;    0.000;35541.68687
 550.04;35599.461;    5.597;    0.000;35593.86344
 550.31;35648.500;    1.956;    0.000;35646.54375
 550.59;35726.660;    3.471;    0.000;35723.18891
 550.87;35725.078;    2.305;    0.000;35722.77312
 551.15;35703.020;    5.196;    0.000;35697.82328
 551.43;35762.520;    2.901;    0.000;35759.61828
 551.71;35787.410;    4.271;    0.000;35783.13891
 551.99;35759.020;    2.554;    0.000;35756.46578
 552.27;35810.711;    4.544;    0.000;35806.16719
 552.54;35797.320;    3.098;    0.000;35794.22281
 552.82;35848.461;    2.580;    0.000;35845.88094
 553.10;35880.602;    3.609;    0.000;35876.99281
 553.38;35908.320;    5.986;    0.000;35902.33406
 553.66;35854.141;    4.290;    0.000;35849.85063
 553.94;35913.680;    0.865;    0.000;35912.81469
 554.22;35939.070;    4.026;    0.000;35935.04406
 554.49;35932.570;    1.909;    0.000;35930.66156
 554.77;35960.289;    3.175;    0.000;35957.11406
 555.05;35936.480;    4.770;    0.000;35931.71047
 555.33;35904.191;    3.230;    0.000;35900.96141
 555.61;35903.352;    3.481;    0.000;35899.87031
 555.89;35950.191;    0.751;    0.000;35949.44016
 556.16;35916.980;    1.086;    0.000;35915.89422
 556.44;35890.539;    1.997;    0.000;35888.54156
 556.72;35964.012;    5.874;    0.000;35958.13797
 557.00;35952.172;    2.216;    0.000;35949.95563
 557.28;35957.129;    2.520;    0.000;35954.60891
 557.56;35978.270;    1.341;    0.000;35976.92828
 557.83;35906.180;    6.726;    0.000;35899.45344
 558.11;35932.070;    6.404;    0.000;35925.66656
 558.39;35910.039;    2.997;    0.000;35907.04156
 558.67;35863.820;    1.645;    0.000;35862.17531
 558.95;35903.590;    1.871;    0.000;35901.71859
 559.23;35822.039;    3.966;    0.000;35818.07281
 559.50;35869.629;    3.114;    0.000;35866.51516
 559.78;35835.148;    2.484;    0.000;35832.66469
 560.06;35719.449;    3.674;    0.000;35715.77547
 560.34;35772.078;    4.381;    0.000;35767.69688
 560.62;35808.500;    5.099;    0.000;35803.40125
 560.89;35707.840;    3.236;    0.000;35704.60359
 561.17;35672.641;    3.039;    0.000;35669.60188
 561.45;35586.371;    6.720;    0.000;35579.65109
 561.73;35536.109;    3.614;    0.000;35532.49563
 562.00;35602.660;    1.837;    0.000;35600.82266
 562.28;35466.699;    4.736;    0.000;35461.96297
 562.56;35443.219;    3.688;    0.000;35439.53125
 562.84;35364.410;    5.670;    0.000;35358.74016
 563.12;35477.602;    1.199;    0.000;35476.40281
 563.39;35329.078;    2.850;    0.000;35326.22813
 563.67;35325.672;    4.331;    0.000;35321.34062
 563.95;35256.719;    3.725;    0.000;35252.99375
 564.23;35242.449;    0.817;    0.000;35241.63172
 564.50;35166.320;    3.756;    0.000;35162.56406
 564.78;35112.770;    4.778;    0.000;35107.99203
 565.06;35037.410;    4.095;    0.000;35033.31516
 565.34;35008.070;    3.490;    0.000;35004.58031
 565.61;34890.559;    3.579;    0.000;34886.97984
 565.89;34828.570;    4.356;    0.000;34824.21406
 566.17;34835.461;    1.107;    0.000;34834.35344
 566.45;34815.039;    3.446;    0.000;34811.59281
 566.73;34703.578;    4.733;    0.000;34698.84562
 567.00;34643.820;    2.011;    0.000;34641.80906
 567.28;34583.270;    4.403;    0.000;34578.86703
 567.56;34513.680;    4.230;    0.000;34509.44969
 567.83;34511.199;    4.820;    0.000;34506.37922
 568.11;34302.648;    4.360;    0.000;34298.28844
 568.39;34328.539;    3.311;    0.000;34325.22781
 568.67;34232.621;    4.975;    0.000;34227.64609
 568.94;34133.219;    4.472;    0.000;34128.74625
 569.22;34150.629;    2.889;    0.000;34147.74016
 569.50;33980.371;    2.293;    0.000;33978.07859
 569.78;33936.449;    0.215;    0.000;33936.23422
 570.05;33868.172;    2.606;    0.000;33865.56562
 570.33;33812.859;    2.001;    0.000;33810.85812
 570.61;33685.340;    5.050;    0.000;33680.28984
 570.88;33592.781;    1.764;    0.000;33591.01750
 571.16;33526.270;    2.787;    0.000;33523.48203
 571.44;33370.398;    0.548;    0.000;33369.85094
 571.72;33332.641;    2.101;    0.000;33330.53938
 571.99;33210.711;    2.487;    0.000;33208.22344
 572.27;33170.199;    2.940;    0.000;33167.25922
 572.55;33086.352;    2.769;    0.000;33083.58281
 572.82;32952.141;    3.071;    0.000;32949.06938
 573.10;32864.590;    4.463;    0.000;32860.12734
 573.38;32772.480;    4.084;    0.000;32768.39672
 573.65;32646.150;    4.691;    0.000;32641.45914
 573.93;32566.869;    2.601;    0.000;32564.26789
 574.21;32448.150;    2.024;    0.000;32446.12664
 574.48;32358.971;    4.831;    0.000;32354.13945
 574.76;32233.490;    4.536;    0.000;32228.95398
 575.04;32088.020;    5.972;    0.000;32082.04703
 575.32;32063.480;    0.036;    0.000;32063.44422
 575.59;31883.320;    5.807;    0.000;31877.51281
 575.87;31832.920;    3.089;    0.000;31829.83117
 576.15;31756.029;    4.832;    0.000;31751.19680
 576.42;31621.119;    1.260;    0.000;31619.85914
 576.70;31433.740;    2.868;    0.000;31430.87273
 576.98;31396.439;    4.479;    0.000;31391.96070
 577.25;31191.080;    3.994;    0.000;31187.08633
 577.53;31166.811;    2.311;    0.000;31164.49930
 577.80;30936.830;    4.555;    0.000;30932.27508
 578.08;30878.830;    1.016;    0.000;30877.81383
 578.36;30843.430;    3.935;    0.000;30839.49469
 578.63;30707.119;    2.959;    0.000;30704.16039
 578.91;30522.461;    3.149;    0.000;30519.31219
 579.19;30417.619;    3.899;    0.000;30413.72039
 579.46;30338.801;    3.882;    0.000;30334.91828
 579.74;30198.080;    0.826;    0.000;30197.25383
 580.02;30053.850;    0.681;    0.000;30053.16836
 580.29;29924.301;    3.734;    0.000;29920.56703
 580.57;29826.410;    2.340;    0.000;29824.07016
 580.84;29675.990;    1.306;    0.000;29674.68398
 581.12;29592.939;    4.154;    0.000;29588.78570
 581.40;29437.859;    2.944;    0.000;29434.91563
 581.67;29253.740;    4.294;    0.000;29249.44648
 581.95;29160.529;    1.742;    0.000;29158.78680
 582.23;29038.920;    2.881;    0.000;29036.03867
 582.50;28806.869;    4.459;    0.000;28802.41039
 582.78;28665.189;    2.859;    0.000;28662.33070
 583.05;28515.900;    3.785;    0.000;28512.11539
 583.33;28431.609;    2.399;    0.000;28429.21062
 583.61;28175.619;    6.227;    0.000;28169.39164
 583.88;28129.801;    3.654;    0.000;28126.14703
 584.16;28000.461;    1.746;    0.000;27998.71469
 584.43;27898.029;    3.211;    0.000;27894.81805
 584.71;27750.000;    2.947;    0.000;27747.05250
 584.99;27686.000;    3.717;    0.000;27682.28250
 585.26;27445.580;    2.017;    0.000;27443.56258
 585.54;27358.311;    1.204;    0.000;27357.10680
 585.81;27172.730;    4.169;    0.000;27168.56172
 586.09;27110.801;    3.445;    0.000;27107.35578
 586.37;26956.131;    1.883;    0.000;26954.24836
 586.64;26798.199;    4.314;    0.000;26793.88547
 586.92;26695.930;    1.679;    0.000;26694.25094
 587.19;26518.830;    3.080;    0.000;26515.75008
 587.47;26378.840;    2.747;    0.000;26376.09234
 587.74;26245.100;    4.613;    0.000;26240.48711
 588.02;26122.740;    4.313;    0.000;26118.42773
 588.30;26001.510;    3.340;    0.000;25998.16977
 588.57;25820.740;    3.376;    0.000;25817.36398
 588.85;25689.109;    4.094;    0.000;25685.01563
 589.12;25504.150;    4.117;    0.000;25500.03289
 589.40;25393.311;    2.787;    0.000;25390.52305
 589.67;25289.461;    2.685;    0.000;25286.77594
 589.95;25188.070;    7.534;    0.000;25180.53656
 590.22;25022.881;    2.001;    0.000;25020.87961
 590.50;24847.000;    3.696;    0.000;24843.30375
 590.77;24757.930;    1.840;    0.000;24756.08969
 591.05;24646.369;    4.359;    0.000;24642.01039
 591.33;24427.920;    1.175;    0.000;24426.74492
 591.60;24294.740;    1.119;    0.000;24293.62148
 591.88;24140.039;    4.168;    0.000;24135.87156
 592.15;24076.510;    3.402;    0.000;24073.10727
 592.43;23828.330;    2.320;    0.000;23826.01008
 592.70;23706.221;    3.095;    0.000;23703.12570
 592.98;23569.160;    3.245;    0.000;23565.91516
 593.25;23434.230;    3.697;    0.000;23430.53297
 593.53;23218.869;    2.335;    0.000;23216.53414
 593.80;23081.500;    3.291;    0.000;23078.20875
 594.08;23001.961;    1.874;    0.000;23000.08719
 594.35;22798.340;    4.060;    0.000;22794.27984
 594.63;22663.869;    2.872;    0.000;22660.99664
 594.90;22499.381;    2.609;    0.000;22496.77211
 595.18;22379.350;    3.821;    0.000;22375.52836
 595.45;22212.779;    4.101;    0.000;22208.67805
 595.73;22078.660;    3.088;    0.000;22075.57266
 596.00;21859.770;    5.176;    0.000;21854.59328
 596.28;21731.160;    2.150;    0.000;21729.01016
 596.55;21608.711;    4.939;    0.000;21603.77219
 596.83;21465.689;    1.852;    0.000;21463.83695
 597.10;21301.939;    4.657;    0.000;21297.28195
 597.38;21147.211;    3.055;    0.000;21144.15594
 597.65;20985.279;    2.369;    0.000;20982.91055
 597.93;20850.160;    0.613;    0.000;20849.54766
 598.20;20710.699;    3.918;    0.000;20706.78172
 598.48;20482.721;    1.860;    0.000;20480.86070
 598.75;20404.590;    3.500;    0.000;20401.08984
 599.03;20211.100;    4.341;    0.000;20206.75836
 599.30;20102.750;    1.952;    0.000;20100.79750
 599.58;19936.801;    3.211;    0.000;19933.58953
 599.85;19803.270;    5.479;    0.000;19797.79078
 600.12;19688.439;    2.605;    0.000;19685.83445
 600.40;19496.980;    4.610;    0.000;19492.37047
 600.67;19305.881;    3.875;    0.000;19302.00586
 600.95;19264.910;    3.932;    0.000;19260.97766
 601.22;19120.359;    4.343;    0.000;19116.01687
 601.50;18920.699;    3.861;    0.000;18916.83797
 601.77;18847.490;    2.813;    0.000;18844.67773
 602.05;18656.430;    3.898;    0.000;18652.53219
 602.32;18580.811;    2.983;    0.000;18577.82805
 602.59;18420.160;    2.529;    0.000;18417.63141
 602.87;18269.789;    4.855;    0.000;18264.93406
 603.14;18162.109;    3.612;    0.000;18158.49688
 603.42;17987.770;    2.557;    0.000;17985.21203
 603.69;17919.680;    1.731;    0.000;17917.94844
 603.97;17788.830;    4.331;    0.000;17784.49883
 604.24;17639.199;    3.800;    0.000;17635.39922
 604.51;17531.971;    3.688;    0.000;17528.28320
 604.79;17360.160;    3.882;    0.000;17356.27766
 605.06;17229.711;    3.945;    0.000;17225.76594
 605.34;17142.740;    4.537;    0.000;17138.20273
 605.61;17043.561;    2.057;    0.000;17041.50305
 605.89;16922.600;    3.287;    0.000;16919.31211
 606.16;16821.561;    4.349;    0.000;16817.21180
 606.43;16719.010;    5.481;    0.000;16713.52852
 606.71;16523.480;    2.475;    0.000;16521.00547
 606.98;16481.939;    2.328;    0.000;16479.61195
 607.26;16313.730;    3.761;    0.000;16309.96922
 607.53;16289.730;    2.716;    0.000;16287.01422
 607.80;16155.990;    2.881;    0.000;16153.10898
 608.08;16028.740;    3.045;    0.000;16025.69523
 608.35;15883.620;    3.132;    0.000;15880.48762
 608.62;15767.920;    2.546;    0.000;15765.37367
 608.90;15756.090;    1.881;    0.000;15754.20859
 609.17;15596.950;    1.808;    0.000;15595.14270
 609.45;15517.280;    3.072;    0.000;15514.20777
 609.72;15388.820;    4.076;    0.000;15384.74406
 609.99;15321.650;    1.740;    0.000;15319.91039
 610.27;15187.960;    3.930;    0.000;15184.02996
 610.54;15101.540;   -0.248;    0.000;15101.78754
 610.81;15013.160;    3.979;    0.000;15009.18141
 611.09;14912.440;    2.641;    0.000;14909.79918
 611.36;14835.600;    0.728;    0.000;14834.87211
 611.64;14721.570;    3.644;    0.000;14717.92656
 611.91;14612.540;    2.205;    0.000;14610.33504
 612.18;14574.530;    3.130;    0.000;14571.40027
 612.46;14474.280;    4.631;    0.000;14469.64902
 612.73;14317.050;    1.941;    0.000;14315.10855
 613.00;14191.930;    3.451;    0.000;14188.47844
 613.28;14111.210;    2.829;    0.000;14108.38121
 613.55;13997.580;    5.354;    0.000;13992.22633
 613.82;13913.340;    2.598;    0.000;13910.74234
 614.10;13768.880;    2.566;    0.000;13766.31363
 614.37;13603.760;    0.998;    0.000;13602.76227
 614.64;13496.440;    1.727;    0.000;13494.71293
 614.92;13287.860;    1.755;    0.000;13286.10535
 615.19;13174.860;    3.310;    0.000;13171.55035
 615.46;12988.930;    3.815;    0.000;12985.11469
 615.74;12811.120;    3.493;    0.000;12807.62762
 616.01;12624.930;   -0.661;    0.000;12625.59094
 616.28;12445.070;    3.483;    0.000;12441.58781
 616.56;12209.730;    1.890;    0.000;12207.84047
 616.83;12015.260;    2.476;    0.000;12012.78352
 617.10;11918.190;    4.282;    0.000;11913.90793
 617.37;11899.270;    2.747;    0.000;11896.52203
 617.65;12040.820;    1.979;    0.000;12038.84156
 617.92;12063.070;    3.259;    0.000;12059.81156
 618.19;12000.680;    3.304;    0.000;11997.37594
 618.47;11882.800;    2.418;    0.000;11880.38230
 618.74;11862.880;    2.545;    0.000;11860.33488
 619.01;11751.550;    5.466;    0.000;11746.08355
 619.28;11723.340;    6.039;    0.000;11717.30109
 619.56;11684.700;    4.155;    0.000;11680.54520
 619.83;11603.040;    3.957;    0.000;11599.08254
 620.10;11547.600;    3.467;    0.000;11544.13211
 620.38;11468.870;    2.330;    0.000;11466.54012
 620.65;11398.470;    3.352;    0.000;11395.11723
 620.92;11358.210;    2.168;    0.000;11356.04246
 621.19;11340.510;    4.168;    0.000;11336.34227
 621.47;11356.680;    0.951;    0.000;11355.72844
 621.74;11362.250;    4.323;    0.000;11357.92750
 622.01;11390.260;    1.462;    0.000;11388.79727
 622.28;11364.350;    4.025;    0.000;11360.32461
 622.56;11342.480;    2.351;    0.000;11340.12922
 622.83;11290.040;    1.730;    0.000;11288.31004
 623.10;11223.370;    2.729;    0.000;11220.64137
 623.38;11249.010;    2.005;    0.000;11247.00477
 623.65;11153.530;    4.239;    0.000;11149.29152
 623.92;11126.130;    1.536;    0.000;11124.59363
 624.19;11059.900;   -0.880;    0.000;11060.78039
 624.46;10993.970;    3.061;    0.000;10990.90848
 624.74;10977.500;    3.045;    0.000;10974.45500
 625.01;10901.480;    5.025;    0.000;10896.45547
 625.28;10872.830;    1.938;    0.000;10870.89258
 625.55;10820.050;    1.933;    0.000;10818.11730
 625.83;10783.780;    3.122;    0.000;10780.65777
 626.10;10714.830;    3.759;    0.000;10711.07133
 626.37;10696.580;    1.891;    0.000;10694.68883
 626.64;10617.120;    2.188;    0.000;10614.93262
 626.92;10574.840;    1.146;    0.000;10573.69359
 627.19;10556.150;    3.395;    0.000;10552.75539
 627.46;10501.840;    1.855;    0.000;10499.98484
 627.73;10465.310;   -0.625;    0.000;10465.93457
 628.00;10387.580;    4.034;    0.000;10383.54633
 628.28;10361.200;    2.981;    0.000;10358.21895
 628.55;10283.640;    0.068;    0.000;10283.57215
 628.82;10275.110;    1.947;    0.000;10273.16285
 629.09;10222.330;    4.360;    0.000;10217.97008
 629.36;10191.980;    5.664;    0.000;10186.31672
 629.64;10149.140;    0.757;    0.000;10148.38215
 629.91;10085.210;    6.573;    0.000;10078.63746
 630.18;10067.360;    3.014;    0.000;10064.34660
 630.45; 9983.470;    0.545;    0.000;9982.92473
 630.72; 9944.100;   -1.060;    0.000;9945.15961
 631.00; 9897.130;    1.430;    0.000;9895.69988
 631.27; 9887.910;    2.735;    0.000;9885.17516
 631.54; 9787.700;    1.822;    0.000;9785.87770
 631.81; 9775.150;    3.679;    0.000;9771.47164
 632.08; 9731.110;    3.724;    0.000;9727.38660
 632.35; 9680.960;    2.265;    0.000;9678.69496
 632.63; 9646.010;    4.170;    0.000;9641.83977
 632.90; 9639.800;    2.181;    0.000;9637.61855
 633.17; 9584.880;    1.319;    0.000;9583.56113
 633.44; 9535.270;    3.421;    0.000;9531.84828
 633.71; 9543.220;    3.719;    0.000;9539.50098
 633.98; 9466.900;    0.863;    0.000;9466.03789
 634.25; 9490.410;    4.139;    0.000;9486.27141
 634.53; 9422.480;    3.731;    0.000;9418.74922
 634.80; 9412.700;    2.301;    0.000;9410.39895
 635.07; 9432.440;    2.280;    0.000;9430.16043
 635.34; 9413.090;    4.559;    0.000;9408.53109
 635.61; 9411.060;    4.886;    0.000;9406.17332
 635.88; 9423.070;    2.765;    0.000;9420.30531
 636.15; 9446.150;    3.779;    0.000;9442.37164
 636.43; 9428.960;    3.138;    0.000;9425.82246
 636.70; 9415.120;    0.309;    0.000;9414.81137
 636.97; 9404.000;    0.026;    0.000;9403.97375
 637.24; 9292.810;    2.896;    0.000;9289.91332
 637.51; 9140.430;    4.227;    0.000;9136.20219
 637.78; 8964.910;    1.205;    0.000;8963.70516
 638.05; 8910.090;   -0.521;    0.000;8910.61109
 638.32; 8915.090;    4.594;    0.000;8910.49609
 638.60; 8834.110;    1.989;    0.000;8832.12160
 638.87; 8794.520;    0.371;    0.000;8794.14828
 639.14; 8765.850;    4.139;    0.000;8761.71086
 639.41; 8668.690;    0.873;    0.000;8667.81793
 639.68; 8582.590;    3.072;    0.000;8579.51734
 639.95; 8525.950;    1.040;    0.000;8524.91020
 640.22; 8485.030;    3.735;    0.000;8481.29527
 640.49; 8433.350;    2.639;    0.000;8430.71086
 640.76; 8405.030;    5.461;    0.000;8399.56902
 641.03; 8247.800;    0.767;    0.000;8247.03230
 641.30; 8189.660;    4.760;    0.000;8184.90016
 641.58; 8064.690;    0.679;    0.000;8064.01119
 641.85; 7982.600;    3.010;    0.000;7979.59010
 642.12; 7915.830;    1.204;    0.000;7914.62633
 642.39; 7884.070;    4.154;    0.000;7879.91607
 642.66; 7798.860;    1.847;    0.000;7797.01236
 642.93; 7759.560;    1.470;    0.000;7758.09006
 643.20; 7690.120;    1.317;    0.000;7688.80262
 643.47; 7637.920;    3.454;    0.000;7634.46617
 643.74; 7580.320;    0.748;    0.000;7579.57232
 644.01; 7546.970;    3.763;    0.000;7543.20771
 644.28; 7479.970;    0.605;    0.000;7479.36521
 644.55; 7419.990;    2.486;    0.000;7417.50398
 644.82; 7404.580;    2.384;    0.000;7402.19633
 645.09; 7348.590;    0.360;    0.000;7348.22984
 645.36; 7298.610;    3.155;    0.000;7295.45486
 645.63; 7247.880;    2.894;    0.000;7244.98613
 645.91; 7185.910;    3.947;    0.000;7181.96266
 646.18; 7189.410;    3.690;    0.000;7185.72016
 646.45; 7145.050;    0.995;    0.000;7144.05480
 646.72; 7044.690;    1.101;    0.000;7043.58869
 646.99; 6997.920;    1.396;    0.000;6996.52367
 647.26; 6965.500;    1.024;    0.000;6964.47625
 647.53; 6920.970;    1.119;    0.000;6919.85146
 647.80; 6934.850;    1.765;    0.000;6933.08510
 648.07; 6849.460;    0.945;    0.000;6848.51496
 648.34; 6816.110;    1.820;    0.000;6814.28986
 648.61; 6752.430;    1.154;    0.000;6751.27643
 648.88; 6733.280;    2.699;    0.000;6730.58104
 649.15; 6659.720;    1.045;    0.000;6658.67521
 649.42; 6584.790;    2.971;    0.000;6581.81879
 649.69; 6575.830;   -1.864;    0.000;6577.69383
 649.96; 6536.180;    0.123;    0.000;6536.05768
 650.23; 6507.200;   -1.247;    0.000;6508.44770
 650.50; 6467.060;    2.479;    0.000;6464.58131
 650.77; 6414.080;   -0.845;    0.000;6414.92508
 651.04; 6366.090;    4.423;    0.000;6361.66734
 651.31; 6377.650;    1.202;    0.000;6376.44740
 651.58; 6311.050;    1.992;    0.000;6309.05730
 651.85; 6258.310;    0.651;    0.000;6257.65881
 652.12; 6252.750;    1.250;    0.000;6251.50000
 652.39; 6198.100;    2.362;    0.000;6195.73760
 652.66; 6122.790;    3.281;    0.000;6119.50879
 652.93; 6103.800;    2.255;    0.000;6101.54480
 653.20; 6071.900;    2.949;    0.000;6068.95115
 653.47; 6027.850;    0.469;    0.000;6027.38135
 653.74; 6000.880;    4.386;    0.000;5996.49363
 654.01; 5948.010;    2.973;    0.000;5945.03727
 654.28; 5906.070;    1.301;    0.000;5904.76857
 654.55; 5862.950;   -1.832;    0.000;5864.78270
 654.81; 5800.250;    3.639;    0.000;5796.61125
 655.08; 5801.640;    0.624;    0.000;5801.01639
 655.35; 5754.490;    4.320;    0.000;5750.17023
 655.62; 5702.180;   -1.529;    0.000;5703.70893
 655.89; 5681.850;    2.852;    0.000;5678.99760
 656.16; 5631.220;    0.510;    0.000;5630.71021
 656.43; 5597.240;    3.440;    0.000;5593.80023
 656.70; 5559.750;    1.716;    0.000;5558.03375
 656.97; 5534.040;    2.947;    0.000;5531.09254
 657.24; 5484.360;    2.443;    0.000;5481.91736
 657.51; 5438.740;    5.190;    0.000;5433.55023
 657.78; 5410.430;    2.088;    0.000;5408.34268
 658.05; 5374.890;    2.378;    0.000;5372.51264
 658.32; 5351.820;    2.024;    0.000;5349.79607
 658.59; 5315.130;    2.130;    0.000;5312.99988
 658.86; 5228.860;    1.824;    0.000;5227.03611
 659.12; 5241.030;    2.666;    0.000;5238.36354
 659.39; 5180.190;    1.124;    0.000;5179.06619
 659.66; 5192.970;    3.401;    0.000;5189.56896
 659.93; 5130.580;    1.985;    0.000;5128.59508
 660.20; 5098.590;    3.110;    0.000;5095.47984
 660.47; 5053.680;    2.070;    0.000;5051.61018
 660.74; 5005.150;    1.519;    0.000;5003.63115
 661.01; 4975.500;    5.176;    0.000;4970.32375
 661.28; 4954.950;    1.305;    0.000;4953.64520
 661.55; 4940.640;    3.871;    0.000;4936.76889
 661.81; 4883.180;    0.349;    0.000;4882.83143
 662.08; 4863.260;   -1.056;    0.000;4864.31602
 662.35; 4828.030;    0.981;    0.000;4827.04854
 662.62; 4775.750;    0.535;    0.000;4775.21500
 662.89; 4750.430;    3.275;    0.000;4747.15518
 663.16; 4703.070;   -0.139;    0.000;4703.20857
 663.43; 4667.060;    1.344;    0.000;4665.71631
 663.70; 4633.820;    3.266;    0.000;4630.55357
 663.96; 4584.080;    1.253;    0.000;4582.82758
 664.23; 4563.510;    0.530;    0.000;4562.97977
 664.50; 4543.710;    2.487;    0.000;4541.22246
 664.77; 4525.780;   -0.877;    0.000;4526.65729
 665.04; 4482.680;    3.953;    0.000;4478.72768
 665.31; 4435.670;    0.842;    0.000;4434.82742
 665.58; 4396.820;    2.457;    0.000;4394.36232
 665.84; 4389.340;    0.780;    0.000;4388.55984
 666.11; 4336.670;    4.791;    0.000;4331.87867
 666.38; 4318.060;   -0.827;    0.000;4318.88756
 666.65; 4256.400;    2.049;    0.000;4254.35115
 666.92; 4246.580;   -1.602;    0.000;4248.18258
 667.19; 4224.560;    2.217;    0.000;4222.34256
 667.46; 4186.160;    0.044;    0.000;4186.11641
 667.72; 4158.050;    2.615;    0.000;4155.43480
 667.99; 4122.200;    1.617;    0.000;4120.58270
 668.26; 4096.580;    4.448;    0.000;4092.13258
 668.53; 4074.860;    1.530;    0.000;4073.33011
 668.80; 4032.040;    1.789;    0.000;4030.25129
 669.06; 3993.030;    3.941;    0.000;3989.08878
 669.33; 3975.140;    4.309;    0.000;3970.83114
 669.60; 3942.720;    0.438;    0.000;3942.28247
 669.87; 3930.520;    1.599;    0.000;3928.92127
 670.14; 3893.880;   -0.375;    0.000;3894.25488
 670.41; 3894.140;    1.401;    0.000;3892.73864
 670.67; 3830.730;    2.004;    0.000;3828.72623
 670.94; 3787.900;    0.808;    0.000;3787.09240
 671.21; 3779.770;    2.151;    0.000;3777.61877
 671.48; 3735.190;   -0.835;    0.000;3736.02494
 671.75; 3697.930;    2.424;    0.000;3695.50618
 672.01; 3664.210;    3.504;    0.000;3660.70621
 672.28; 3659.950;    1.559;    0.000;3658.39120
 672.55; 3628.590;    3.671;    0.000;3624.91884
 672.82; 3597.080;    1.102;    0.000;3595.97758
 673.08; 3573.130;    2.175;    0.000;3570.95488
 673.35; 3526.470;   -0.296;    0.000;3526.76622
 673.62; 3523.740;    0.715;    0.000;3523.02499
 673.89; 3475.690;   -1.376;    0.000;3477.06619
 674.16; 3431.870;    2.699;    0.000;3429.17137
 674.42; 3413.440;    3.569;    0.000;3409.87119
 674.69; 3414.150;    0.779;    0.000;3413.37115
 674.96; 3381.280;    1.980;    0.000;3379.30003
 675.23; 3343.830;    2.409;    0.000;3341.42133
 675.49; 3320.810;    1.455;    0.000;3319.35506
 675.76; 3302.960;    3.918;    0.000;3299.04246
 676.03; 3281.290;    2.640;    0.000;3278.65004
 676.30; 3229.630;    3.191;    0.000;3226.43863
 676.56; 3229.020;    1.544;    0.000;3227.47627
 676.83; 3198.730;    2.005;    0.000;3196.72498
 677.10; 3155.140;    0.876;    0.000;3154.26364
 677.37; 3156.090;    5.404;    0.000;3150.68634
 677.63; 3126.280;   -0.745;    0.000;3127.02503
 677.90; 3100.330;    4.010;    0.000;3096.32008
 678.17; 3057.590;    1.760;    0.000;3055.83009
 678.44; 3066.910;    2.400;    0.000;3064.50991
 678.70; 3024.600;    1.548;    0.000;3023.05260
 678.97; 3000.190;    1.459;    0.000;2998.73119
 679.24; 2964.630;    0.824;    0.000;2963.80613
 679.50; 2936.470;    2.297;    0.000;2934.17247
 679.77; 2946.230;    0.320;    0.000;2945.90998
 680.04; 2896.110;    0.405;    0.000;2895.70511
 680.31; 2883.350;   -0.887;    0.000;2884.23760
 680.57; 2840.810;    2.870;    0.000;2837.94006
 680.84; 2814.660;    1.740;    0.000;2812.91991
 681.11; 2819.540;    1.115;    0.000;2818.42504
 681.37; 2794.050;   -1.815;    0.000;2795.86505
 681.64; 2766.130;   -0.892;    0.000;2767.02238
 681.91; 2729.270;    4.430;    0.000;2724.84002
 682.17; 2714.850;    3.001;    0.000;2711.84885
 682.44; 2687.750;   -1.503;    0.000;2689.25250
 682.71; 2675.970;    3.140;    0.000;2672.82997
 682.98; 2648.760;    1.636;    0.000;2647.12376
 683.24; 2634.380;   -0.827;    0.000;2635.20738
 683.51; 2597.480;    0.954;    0.000;2596.52623
 683.78; 2590.620;    1.344;    0.000;2589.27637
 684.04; 2574.610;    1.450;    0.000;2573.16011
 684.31; 2548.500;    0.043;    0.000;2548.45750
 684.58; 2524.040;    1.136;    0.000;2522.90379
 684.84; 2507.350;    2.069;    0.000;2505.28135
 685.11; 2477.150;    3.858;    0.000;2473.29240
 685.38; 2458.840;    4.713;    0.000;2454.12759
 685.64; 2446.790;    0.870;    0.000;2445.92004
 685.91; 2435.150;   -0.069;    0.000;2435.21865
 686.17; 2411.950;    2.316;    0.000;2409.63370
 686.44; 2410.950;   -0.858;    0.000;2411.80745
 686.71; 2366.400;    1.816;    0.000;2364.58365
 686.97; 2365.920;   -1.670;    0.000;2367.58992
 687.24; 2346.210;    0.944;    0.000;2345.26621
 687.51; 2310.160;    0.550;    0.000;2309.60991
 687.77; 2293.300;    1.104;    0.000;2292.19630
 688.04; 2268.510;    1.634;    0.000;2266.87626
 688.31; 2255.510;    2.836;    0.000;2252.67376
 688.57; 2240.930;    1.955;    0.000;2238.97493
 688.84; 2232.340;    1.581;    0.000;2230.75884
 689.10; 2200.060;    3.057;    0.000;2197.00256
 689.37; 2190.000;    1.930;    0.000;2188.07000
 689.64; 2170.070;    0.310;    0.000;2169.76007
 689.90; 2154.360;    1.576;    0.000;2152.78386
 690.17; 2106.570;    3.089;    0.000;2103.48132
 690.44; 2108.730;   -0.029;    0.000;2108.75873
 690.70; 2100.110;    2.069;    0.000;2098.04136
 690.97; 2066.240;    0.464;    0.000;2065.77624
 691.23; 2051.110;    2.264;    0.000;2048.84636
 691.50; 2034.450;    0.368;    0.000;2034.08245
 691.77; 2041.410;    3.309;    0.000;2038.10128
 692.03; 1980.180;   -0.905;    0.000;1981.08505
 692.30; 1982.770;    1.190;    0.000;1981.58002
 692.56; 1953.360;    0.126;    0.000;1953.23374
 692.83; 1954.560;    0.384;    0.000;1954.17631
 693.10; 1926.810;    3.125;    0.000;1923.68506
 693.36; 1901.670;    2.911;    0.000;1898.75879
 693.63; 1891.170;    0.608;    0.000;1890.56254
 693.89; 1855.870;   -0.538;    0.000;1856.40750
 694.16; 1867.680;    0.642;    0.000;1867.03755
 694.42; 1825.480;    0.609;    0.000;1824.87123
 694.69; 1832.200;    3.661;    0.000;1828.53870
 694.96; 1805.040;    3.156;    0.000;1801.88379
 695.22; 1761.800;    2.274;    0.000;1759.52630
 695.49; 1775.600;    3.946;    0.000;1771.65373
 695.75; 1748.110;    2.188;    0.000;1745.92249
 696.02; 1715.880;    2.641;    0.000;1713.23875
 696.28; 1700.510;    2.575;    0.000;1697.93501
 696.55; 1685.900;    1.420;    0.000;1684.48002
 696.81; 1651.100;    1.639;    0.000;1649.46123
 697.08; 1651.190;    0.668;    0.000;1650.52244
 697.34; 1626.510;    0.815;    0.000;1625.69501
 697.61; 1625.540;    1.273;    0.000;1624.26754
 697.88; 1592.320;    0.400;    0.000;1591.91995
 698.14; 1560.970;    0.565;    0.000;1560.40497
 698.41; 1554.460;    2.316;    0.000;1552.14371
 698.67; 1514.190;    0.394;    0.000;1513.79619
 698.94; 1515.350;   -0.249;    0.000;1515.59873
 699.20; 1495.120;   -1.043;    0.000;1496.16250
 699.47; 1478.020;    3.237;    0.000;1474.78252
 699.73; 1454.830;    2.318;    0.000;1452.51246
 700.00; 1442.760;   -2.205;    0.000;1444.96501
 700.26; 1412.780;    1.921;    0.000;1410.85878
 700.53; 1411.020;   -0.345;    0.000;1411.36502
 700.79; 1382.270;    2.044;    0.000;1380.22627
 701.06; 1369.390;    1.224;    0.000;1368.16626
 701.32; 1351.490;    3.382;    0.000;1348.10749
 701.59; 1337.940;    0.240;    0.000;1337.69994
 701.85; 1311.910;   -1.337;    0.000;1313.24753
 702.12; 1290.600;   -0.553;    0.000;1291.15248
 702.38; 1267.980;    0.720;    0.000;1267.25998
 702.65; 1265.690;    2.704;    0.000;1262.98619
 702.91; 1253.730;    3.130;    0.000;1250.59998
 703.18; 1207.800;    0.159;    0.000;1207.64130
 703.44; 1197.050;    2.589;    0.000;1194.46130
 703.71; 1209.860;    0.451;    0.000;1209.40874
 703.97; 1165.530;    1.933;    0.000;1163.59753
 704.24; 1160.810;    2.733;    0.000;1158.07756
 704.50; 1127.200;   -1.066;    0.000;1128.26620
 704.76; 1123.410;    0.973;    0.000;1122.43753
 705.03; 1103.830;    3.154;    0.000;1100.67621
 705.29; 1064.340;   -1.855;    0.000;1066.19497
 705.56; 1063.050;    0.824;    0.000;1062.22630
 705.82; 1050.790;    1.599;    0.000;1049.19129
 706.09; 1057.230;    3.196;    0.000;1054.03373
 706.35; 1022.260;   -0.994;    0.000;1023.25376
 706.62; 1014.260;    3.101;    0.000;1011.15876
 706.88;  985.840;    0.259;    0.000;985.58128
 707.15;  966.480;    2.235;    0.000;964.24498
 707.41;  955.320;    1.023;    0.000;954.29751
 707.67;  935.350;    2.314;    0.000;933.03623
 707.94;  940.080;    0.341;    0.000;939.73877
 708.20;  896.810;    2.445;    0.000;894.36500
 708.47;  898.690;    0.235;    0.000;898.45500
 708.73;  881.680;    1.543;    0.000;880.13749
 709.00;  872.890;    1.543;    0.000;871.34751
 709.26;  862.410;    3.355;    0.000;859.05497
 709.52;  853.420;    1.150;    0.000;852.26998
 709.79;  827.820;    2.364;    0.000;825.45626
 710.05;  814.390;    1.482;    0.000;812.90751
 710.32;  817.550;    2.600;    0.000;814.94999
 710.58;  784.630;   -0.961;    0.000;785.59125
 710.84;  788.430;    3.686;    0.000;784.74374
 711.11;  783.270;    0.292;    0.000;782.97752
 711.37;  768.230;    3.571;    0.000;764.65873
 711.64;  760.710;    1.284;    0.000;759.42627
 711.90;  753.200;    3.639;    0.000;749.56126
 712.16;  730.060;    3.284;    0.000;726.77625
 712.43;  731.300;    1.572;    0.000;729.72749
 712.69;  704.580;    3.364;    0.000;701.21627
 712.96;  712.510;    2.591;    0.000;709.91876
 713.22;  697.550;    1.612;    0.000;695.93749
 713.48;  684.260;    0.123;    0.000;684.13751
 713.75;  686.450;   -1.460;    0.000;687.91001
 714.01;  674.440;    5.713;    0.000;668.72750
 714.27;  675.050;    1.730;    0.000;673.31999
 714.54;  671.650;    2.946;    0.000;668.70377
 714.80;  660.430;    1.184;    0.000;659.24624
 715.06;  656.190;    2.250;    0.000;653.94000
 715.33;  656.690;    1.124;    0.000;655.56625
 715.59;  629.400;    1.466;    0.000;627.93377
 715.86;  632.250;    3.069;    0.000;629.18125
 716.12;  620.700;    1.867;    0.000;618.83251
 716.38;  624.320;    2.986;    0.000;621.33376
 716.65;  605.410;    3.819;    0.000;601.59122
 716.91;  594.850;    0.629;    0.000;594.22123
 717.17;  613.230;    3.425;    0.000;609.80498
 717.44;  603.170;    2.554;    0.000;600.61623
 717.70;  604.420;    3.246;    0.000;601.17373
 717.96;  578.660;    0.561;    0.000;578.09872
 718.23;  581.920;   -0.406;    0.000;582.32623
 718.49;  575.450;    1.106;    0.000;574.34376
 718.75;  572.380;    4.903;    0.000;567.47750
 719.02;  580.960;    0.034;    0.000;580.92627
 719.28;  568.630;    0.564;    0.000;568.06625
 719.54;  566.070;    0.788;    0.000;565.28251
 719.80;  569.920;    2.293;    0.000;567.62748
 720.07;  560.320;   -0.094;    0.000;560.41376
 720.33;  545.190;    1.286;    0.000;543.90375
 720.59;  551.440;    1.628;    0.000;549.81250
 720.86;  540.370;   -1.405;    0.000;541.77500
 721.12;  554.650;    1.731;    0.000;552.91877
 721.38;  548.760;    4.088;    0.000;544.67251
 721.65;  544.290;   -0.108;    0.000;544.39748
 721.91;  543.620;   -0.026;    0.000;543.64625
 722.17;  530.170;   -0.304;    0.000;530.47373
 722.43;  540.110;    3.338;    0.000;536.77249
 722.70;  534.780;    0.495;    0.000;534.28503
 722.96;  533.860;    4.814;    0.000;529.04624
 723.22;  521.850;    2.186;    0.000;519.66373
 723.48;  547.240;    3.430;    0.000;543.80999
 723.75;  521.900;    2.215;    0.000;519.68502
 724.01;  530.520;    1.500;    0.000;529.02002
 724.27;  528.040;   -0.826;    0.000;528.86623
 724.54;  526.870;    2.814;    0.000;524.05625
 724.80;  526.570;   -1.109;    0.000;527.67876
 725.06;  521.250;    3.160;    0.000;518.09000
 725.32;  536.140;    2.344;    0.000;533.79626
 725.59;  525.410;    1.226;    0.000;524.18372
 725.85;  506.260;    2.034;    0.000;504.22626
 726.11;  504.090;    2.994;    0.000;501.09625
 726.37;  511.230;    3.204;    0.000;508.02626
 726.64;  533.780;    2.474;    0.000;531.30628
 726.90;  528.970;    3.596;    0.000;525.37372
 727.16;  519.170;    0.375;    0.000;518.79498
 727.42;  514.930;    0.449;    0.000;514.48124
 727.68;  503.420;    0.172;    0.000;503.24751
 727.95;  493.220;    2.132;    0.000;491.08750
 728.21;  503.630;    3.517;    0.000;500.11250
 728.47;  494.610;   -0.545;    0.000;495.15499
 728.73;  505.380;    3.100;    0.000;502.28000
 729.00;  495.010;    0.755;    0.000;494.25501
 729.26;  503.890;    0.587;    0.000;503.30251
 729.52;  481.610;   -0.405;    0.000;482.01499
 729.78;  484.260;   -2.089;    0.000;486.34876
 730.04;  490.950;    4.343;    0.000;486.60751
 730.31;  478.640;    3.566;    0.000;475.07376
 730.57;  479.920;    4.318;    0.000;475.60251
 730.83;  491.660;    2.994;    0.000;488.66625
 731.09;  491.100;   -0.604;    0.000;491.70376
 731.35;  475.130;    2.505;    0.000;472.62500
 731.62;  478.360;    0.100;    0.000;478.25999
 731.88;  481.500;    1.690;    0.000;479.81000
 732.14;  462.970;   -1.254;    0.000;464.22375
 732.40;  461.510;    3.940;    0.000;457.57001
 732.66;  467.170;    1.069;    0.000;466.10126
 732.92;  470.850;    2.316;    0.000;468.53376
 733.19;  458.500;    1.539;    0.000;456.96125
 733.45;  462.340;    5.839;    0.000;456.50125
 733.71;  452.340;    1.001;    0.000;451.33875
 733.97;  483.090;    3.849;    0.000;479.24125
 734.23;  452.460;   -2.451;    0.000;454.91124
 734.49;  446.170;    3.328;    0.000;442.84251
 734.76;  449.570;    1.984;    0.000;447.58626
 735.02;  440.070;    1.000;    0.000;439.07001
 735.28;  450.900;    1.494;    0.000;449.40624
 735.54;  435.140;    2.599;    0.000;432.54126
 735.80;  415.750;    3.059;    0.000;412.69125
 736.06;  434.500;    1.774;    0.000;432.72625
 736.32;  419.470;   -0.745;    0.000;420.21500
 736.59;  419.500;    1.776;    0.000;417.72375
 736.85;  424.910;    2.046;    0.000;422.86375
 737.11;  409.680;    1.040;    0.000;408.63999
 737.37;  410.350;   -0.538;    0.000;410.88751
 737.63;  408.550;    2.409;    0.000;406.14124
 737.89;  409.410;   -0.147;    0.000;409.55750
 738.15;  398.980;    2.342;    0.000;396.63751
 738.41;  403.200;   -1.143;    0.000;404.34251
 738.67;  394.790;    0.023;    0.000;394.76751
 738.94;  388.220;   -1.278;    0.000;389.49750
 739.20;  393.500;   -0.135;    0.000;393.63500
 739.46;  390.360;    1.821;    0.000;388.53874
 739.72;  369.920;    2.342;    0.000;367.57751
 739.98;  366.290;   -0.039;    0.000;366.32876
 740.24;  375.340;    1.996;    0.000;373.34375
 740.50;  362.650;    2.144;    0.000;360.50624
 740.76;  361.060;    4.496;    0.000;356.56375
 741.02;  358.500;    2.037;    0.000;356.46250
 741.28;  368.880;    4.015;    0.000;364.86501
 741.54;  357.510;    2.483;    0.000;355.02751
 741.81;  352.210;    3.010;    0.000;349.19999
 742.07;  334.660;    1.163;    0.000;333.49750
 742.33;  343.880;    2.645;    0.000;341.23500
 742.59;  344.020;    1.821;    0.000;342.19874
 742.85;  341.540;    0.298;    0.000;341.24251
 743.11;  329.140;    1.705;    0.000;327.43501
 743.37;  329.270;    0.685;    0.000;328.58499
 743.63;  323.440;    4.071;    0.000;319.36875
 743.89;  322.960;    4.113;    0.000;318.84749
 744.15;  315.740;    0.405;    0.000;315.33499
 744.41;  302.070;   -1.540;    0.000;303.61001
 744.67;  310.130;    1.661;    0.000;308.46875
 744.93;  304.990;    0.085;    0.000;304.90499
 745.19;  296.120;    2.245;    0.000;293.87500
 745.45;  301.230;    0.485;    0.000;300.74501
 745.71;  286.080;    1.388;    0.000;284.69249
 745.97;  292.230;    1.060;    0.000;291.17001
 746.23;  279.360;    1.283;    0.000;278.07749
 746.49;  272.780;    3.820;    0.000;268.96000
 746.75;  280.130;    3.335;    0.000;276.79500
 747.02;  273.560;    1.569;    0.000;271.99125
 747.28;  262.000;   -0.540;    0.000;262.54000
 747.54;  283.380;    2.818;    0.000;280.56250
 747.80;  259.550;   -1.074;    0.000;260.62374
 748.06;  261.280;   -5.407;    0.000;266.68750
 748.32;  250.000;    3.335;    0.000;246.66500
 748.58;  252.210;    4.275;    0.000;247.93501
 748.84;  247.230;    1.499;    0.000;245.73125
 749.10;  321.780;    9.339;    0.000;312.44125
 749.36;  250.070;    2.190;    0.000;247.88001
 749.62;  238.070;    2.432;    0.000;235.63751
 749.88;  233.760;    1.871;    0.000;231.88874
 750.14;  230.700;    3.449;    0.000;227.25125
 750.40;  239.680;   -1.523;    0.000;241.20249
 750.66;  229.720;    5.100;    0.000;224.62000
 750.91;  222.780;    1.121;    0.000;221.65875
 751.17;  218.870;    4.999;    0.000;213.87124
 751.43;  206.400;   -1.806;    0.000;208.20624
 751.69;  219.880;    4.175;    0.000;215.70500
 751.95;  214.260;    1.244;    0.000;213.01624
 752.21;  203.230;    2.675;    0.000;200.55500
 752.47;  204.050;    1.139;    0.000;202.91125
 752.73;  201.050;    3.609;    0.000;197.44125
 752.99;  195.090;   -0.211;    0.000;195.30125
 753.25;  185.100;    2.358;    0.000;182.74251
 753.51;  194.620;    1.201;    0.000;193.41875
 753.77;  193.270;    1.548;    0.000;191.72250
 754.03;  180.990;    0.859;    0.000;180.13126
 754.29;  180.530;    1.796;    0.000;178.73375
 754.55;  189.720;    3.635;    0.000;186.08500
 754.81;  176.990;    2.146;    0.000;174.84376
 755.07;  169.990;    0.389;    0.000;169.60126
 755.33;  167.930;    2.674;    0.000;165.25624
 755.59;  169.970;    1.291;    0.000;168.67875
 755.85;  166.340;    1.286;    0.000;165.05375
 756.10;  162.860;    2.474;    0.000;160.38625
 756.36;  165.010;    1.336;    0.000;163.67374
 756.62;  151.970;    1.236;    0.000;150.73375
 756.88;  165.320;    1.444;    0.000;163.87626
 757.14;  166.810;    1.900;    0.000;164.91000
 757.40;  162.490;    3.004;    0.000;159.48626
 757.66;  151.120;    2.839;    0.000;148.28125
 757.92;  148.640;    2.434;    0.000;146.20625
 758.18;  142.040;    1.880;    0.000;140.15999
 758.44;  148.180;    1.215;    0.000;146.96499
 758.70;  141.510;    1.508;    0.000;140.00249
 758.95;  142.200;   -0.256;    0.000;142.45625
 759.21;  131.900;    0.169;    0.000;131.73124
 759.47;  147.290;    4.939;    0.000;142.35124
 759.73;  128.300;    0.292;    0.000;128.00750
 759.99;  131.800;    3.420;    0.000;128.38000
 760.25;  120.900;    0.416;    0.000;120.48375
 760.51;  125.270;   -0.933;    0.000;126.20250
 760.77;  121.950;    3.746;    0.000;118.20375
 761.02;  130.900;    3.771;    0.000;127.12874
 761.28;  115.710;    1.756;    0.000;113.95375
 761.54;  124.400;    3.152;    0.000;121.24750
 761.80;  114.340;    2.394;    0.000;111.94625
 762.06;  122.110;    2.415;    0.000;119.69500
 762.32;  105.240;   -0.226;    0.000;105.46625
 762.58;  108.990;    0.177;    0.000;108.81250
 762.83;  119.430;    2.280;    0.000;117.15000
 763.09;  107.530;    4.425;    0.000;103.10500
 763.35;  117.090;    2.086;    0.000;115.00375
 763.61;  110.760;    3.421;    0.000;107.33875
 763.87;  113.980;    2.898;    0.000;111.08250
 764.13;  107.050;    2.771;    0.000;104.27875
 764.38;   98.100;    0.603;    0.000;97.49750
 764.64;   95.650;    0.809;    0.000;94.84125
 764.90;  102.550;    2.140;    0.000;100.41000
 765.16;   93.590;    2.909;    0.000;90.68125
 765.42;   95.430;    1.378;    0.000;94.05250
 765.68;   95.450;    1.506;    0.000;93.94375
 765.93;   89.540;    0.826;    0.000;88.71375
 766.19;   97.480;    1.595;    0.000;95.88500
 766.45;   82.440;    3.033;    0.000;79.40750
 766.71;   93.090;    1.970;    0.000;91.12000
 766.97;   86.070;    1.930;    0.000;84.14000
 767.22;   85.680;    0.001;    0.000;85.67875
 767.48;   78.990;    2.169;    0.000;76.82125
 767.74;   84.110;    3.239;    0.000;80.87125
 768.00;   90.550;    0.127;    0.000;90.42250
 768.26;   81.140;    2.041;    0.000;79.09875
 768.51;   80.430;    1.921;    0.000;78.50875
 768.77;   94.260;    2.866;    0.000;91.39375
 769.03;   84.570;    1.215;    0.000;83.35500
 769.29;   71.820;    3.609;    0.000;68.21125
 769.54;   74.820;   -1.861;    0.000;76.68125
 769.80;   71.470;    1.023;    0.000;70.44750
 770.06;   72.050;   -2.848;    0.000;74.89750
 770.32;   77.120;    3.336;    0.000;73.78375
 770.57;   65.690;    3.290;    0.000;62.40000
 770.83;   76.040;    2.001;    0.000;74.03875
 771.09;   69.710;    0.305;    0.000;69.40500
 771.35;   66.170;   -0.986;    0.000;67.15625
 771.61;   64.260;    3.224;    0.000;61.03625
 771.86;   73.100;    2.035;    0.000;71.06500
 772.12;   61.340;    2.678;    0.000;58.66250
 772.38;   69.780;    2.819;    0.000;66.96125
 772.63;   68.680;    2.169;    0.000;66.51125
 772.89;   64.050;    1.089;    0.000;62.96125
 773.15;   58.690;    3.095;    0.000;55.59500
 773.41;   68.930;    2.499;    0.000;66.43125
 773.66;   71.780;    2.453;    0.000;69.32750
 773.92;   66.820;    2.392;    0.000;64.42750
 774.18;   78.990;    0.616;    0.000;78.37375
 774.44;   55.500;    2.901;    0.000;52.59875
 774.69;   63.880;    2.365;    0.000;61.51500
 774.95;   56.480;    1.592;    0.000;54.88750
 775.21;   69.010;    3.401;    0.000;65.60875
 775.46;   46.370;    2.118;    0.000;44.25250
 775.72;   55.400;   -0.757;    0.000;56.15750
 775.98;   64.590;    2.870;    0.000;61.72000
 776.24;   53.290;    0.654;    0.000;52.63625
 776.49;   50.260;    0.461;    0.000;49.79875
 776.75;   58.760;   -0.097;    0.000;58.85750
 777.01;   47.930;    2.346;    0.000;45.58375
 777.26;   56.710;   -0.501;    0.000;57.21125
 777.52;   47.800;    3.513;    0.000;44.28750
 777.78;   43.560;    2.825;    0.000;40.73500
 778.03;   53.030;    4.813;    0.000;48.21750
 778.29;   47.310;   -1.135;    0.000;48.44500
 778.55;   48.320;    4.461;    0.000;43.85875
 778.80;   31.020;    4.707;    0.000;26.31250
 779.06;   41.940;    1.582;    0.000;40.35750
 779.32;   32.240;   -1.487;    0.000;33.72750
 779.57;   33.880;    5.735;    0.000;28.14500
 779.83;   40.970;    0.904;    0.000;40.06625
 780.09;   40.570;    4.139;    0.000;36.43125
 780.34;   39.510;    2.516;    0.000;36.99375
 780.60;   50.980;    5.276;    0.000;45.70375
 780.86;   44.560;    1.526;    0.000;43.03375
 781.11;   34.340;    2.318;    0.000;32.02250
 781.37;   34.950;    0.714;    0.000;34.23625
 781.63;   49.870;    0.601;    0.000;49.26875
 781.88;   21.510;    0.507;    0.000;21.00250
 782.14;   31.230;    2.296;    0.000;28.93375
 782.39;   36.940;    1.691;    0.000;35.24875
 782.65;   31.670;    0.065;    0.000;31.60500
 782.91;   36.120;    2.026;    0.000;34.09375
 783.16;   33.350;    1.395;    0.000;31.95500
 783.42;   21.340;    0.733;    0.000;20.60750
 783.67;   33.350;    2.081;    0.000;31.26875
 783.93;   15.000;    0.939;    0.000;14.06125
 784.19;   27.010;    1.356;    0.000;25.65375
 784.44;   31.980;    2.641;    0.000;29.33875
 784.70;   32.000;    3.922;    0.000;28.07750
 784.96;   18.670;   -0.010;    0.000;18.68000
 785.21;   18.610;    0.863;    0.000;17.74750
 785.47;   36.140;    1.643;    0.000;34.49750
 785.72;   24.020;    0.114;    0.000;23.90625
 785.98;   13.960;   -0.705;    0.000;14.66500
 786.23;   19.700;    1.793;    0.000;17.90750
 786.49;    9.660;    0.989;    0.000; 8.67125
 786.75;   17.160;    3.019;    0.000;14.14125
 787.00;   10.460;    0.529;    0.000; 9.93125
 787.26;   15.760;    1.590;    0.000;14.17000
 787.51;   24.640;    0.141;    0.000;24.49875
 787.77;   21.710;    1.200;    0.000;20.51000
 788.02;   26.760;    1.789;    0.000;24.97125
 788.28;   11.870;    0.800;    0.000;11.07000
 788.54;   13.200;   -0.199;    0.000;13.39875
 788.79;   28.940;    0.516;    0.000;28.42375
 789.05;   10.340;    3.386;    0.000; 6.95375
 789.30;   15.060;    5.298;    0.000; 9.76250
 789.56;    2.840;    1.327;    0.000; 1.51250
 789.81;    4.960;    2.234;    0.000; 2.72625
 790.07;    4.700;   -0.301;    0.000; 5.00125
 790.32;   11.190;    1.149;    0.000;10.04125
 790.58;    0.370;    1.655;    0.000;-1.28500
 790.83;   11.920;    5.036;    0.000; 6.88375
 791.09;   -7.350;    0.239;    0.000;-7.58875
 791.35;    2.240;    0.884;    0.000; 1.35625
 791.60;    0.960;    1.294;    0.000;-0.33375
 791.86;    5.590;    3.580;    0.000; 2.01000
 792.11;    6.790;    0.661;    0.000; 6.12875
 792.37;   -4.050;    2.549;    0.000;-6.59875
 792.62;   -0.090;    2.610;    0.000;-2.70000
 792.88;    3.870;    2.671;    0.000; 1.19875
 793.13;   -2.910;    1.554;    0.000;-4.46375
 793.39;   -5.160;    2.964;    0.000;-8.12375
 793.64;    4.230;    1.725;    0.000; 2.50500
 793.90;    9.000;    0.824;    0.000; 8.17625
 794.15;   -2.960;    4.068;    0.000;-7.02750
 794.41;    6.590;    2.352;    0.000; 4.23750
 794.66;    3.920;    1.508;    0.000; 2.41250
 794.92;    1.310;    4.101;    0.000;-2.79125
 795.17;   -8.510;   -0.748;    0.000;-7.76250
 795.43;  -13.270;    2.310;    0.000;-15.58000
 795.68;   -2.310;    1.050;    0.000;-3.36000
 795.94;    5.620;    2.206;    0.000; 3.41375
 796.19;   -1.060;    2.890;    0.000;-3.95000
 796.44;   -5.610;    2.810;    0.000;-8.42000
 796.70;   -6.030;   -0.166;    0.000;-5.86375
 796.95;    7.740;    4.159;    0.000; 3.58125
 797.21;  -10.450;    0.479;    0.000;-10.92875
 797.46;  -19.030;   -2.271;    0.000;-16.75875
 797.72;  -11.140;   -0.439;    0.000;-10.70125
 797.97;  -23.220;    0.895;    0.000;-24.11500
 798.23;   -9.890;    5.259;    0.000;-15.14875
 798.48;    0.030;    0.045;    0.000;-0.01500
 798.74;   -6.870;    0.639;    0.000;-7.50875
 798.99;   -6.460;    2.686;    0.000;-9.14625
 799.24;  -10.070;    3.122;    0.000;-13.19250
 799.50;  -10.060;    1.000;    0.000;-11.06000
 799.75;   -7.650;   -0.770;    0.000;-6.88000
 800.01;  -10.250;   -0.245;    0.000;-10.00500
 800.26;  -21.790;   -0.215;    0.000;-21.57500
 800.52;  -12.060;    2.511;    0.000;-14.57125
 800.77;  -11.810;    2.716;    0.000;-14.52625
 801.02;  -23.820;    1.580;    0.000;-25.40000
 801.28;  -14.930;   -0.673;    0.000;-14.25750
 801.53;  -12.600;    0.356;    0.000;-12.95625
 801.79;   -5.160;    3.321;    0.000;-8.48125
 802.04;  -17.850;    1.775;    0.000;-19.62500
 802.29;  -16.680;    1.541;    0.000;-18.22125
 802.55;  -13.870;   -0.161;    0.000;-13.70875
 802.80;  -19.070;    1.750;    0.000;-20.82000
 803.06;   -0.130;    1.202;    0.000;-1.33250
 803.31;  -14.670;    2.051;    0.000;-16.72125
 803.56;  -13.080;    1.589;    0.000;-14.66875
 803.82;  -20.190;    1.819;    0.000;-22.00875
 804.07;  -17.460;    1.121;    0.000;-18.58125
 804.32;  -16.720;    2.470;    0.000;-19.19000
 804.58;  -22.540;    0.745;    0.000;-23.28500
 804.83;  -11.630;    2.861;    0.000;-14.49125
 805.09;  -26.260;    2.116;    0.000;-28.37625
 805.34;  -19.280;    2.130;    0.000;-21.41000
 805.59;   -8.390;    1.832;    0.000;-10.22250
 805.85;  -14.280;    2.691;    0.000;-16.97125
 806.10;  -17.580;    4.224;    0.000;-21.80375
 806.35;  -14.410;    1.335;    0.000;-15.74500
 806.61;  -17.000;    3.255;    0.000;-20.25500
 806.86;  -27.340;    2.753;    0.000;-30.09250
 807.11;  -14.000;    2.922;    0.000;-16.92250
 807.37;   -4.950;    2.905;    0.000;-7.85500
 807.62;  -31.370;    1.607;    0.000;-32.97750
 807.87;  -22.750;    6.104;    0.000;-28.85375
 808.13;  -23.960;    0.795;    0.000;-24.75500
 808.38;  -24.250;   -0.554;    0.000;-23.69625
 808.63;  -23.140;    4.699;    0.000;-27.83875
 808.89;  -26.110;   -1.511;    0.000;-24.59875
 809.14;  -32.160;    1.401;    0.000;-33.56125
 809.39;  -28.950;   -2.053;    0.000;-26.89750
 809.65;  -23.860;    1.450;    0.000;-25.31000
 809.90;  -28.190;    3.850;    0.000;-32.04000
 810.15;  -21.980;    2.366;    0.000;-24.34625
 810.41;  -29.000;    0.111;    0.000;-29.11125
 810.66;  -23.330;    1.721;    0.000;-25.05125
 810.91;  -23.230;    0.284;    0.000;-23.51375
 811.16;  -30.430;    3.254;    0.000;-33.68375
 811.42;  -27.510;    1.806;    0.000;-29.31625
 811.67;  -30.430;    5.146;    0.000;-35.57625
 811.92;  -30.290;    1.339;    0.000;-31.62875
 812.18;  -34.190;    3.764;    0.000;-37.95375
 812.43;  -34.330;    0.262;    0.000;-34.59250
 812.68;  -24.940;   -0.415;    0.000;-24.52500
 812.93;  -35.180;   -0.444;    0.000;-34.73625
 813.19;  -21.420;    3.415;    0.000;-24.83500
 813.44;  -32.120;   -0.468;    0.000;-31.65250
 813.69;  -25.300;    3.735;    0.000;-29.03500
 813.95;  -30.150;    0.120;    0.000;-30.27000
 814.20;  -27.520;    1.482;    0.000;-29.00250
 814.45;  -37.520;    1.362;    0.000;-38.88250
 814.70;  -31.980;    2.450;    0.000;-34.43000
 814.96;  -40.000;    1.610;    0.000;-41.61000
 815.21;  -30.340;    0.421;    0.000;-30.76125
 815.46;  -30.500;    3.360;    0.000;-33.86000
 815.71;  -30.460;    1.746;    0.000;-32.20625
 815.96;  -34.770;    1.210;    0.000;-35.98000
 816.22;  -33.490;    3.869;    0.000;-37.35875
 816.47;  -32.700;    1.704;    0.000;-34.40375
 816.72;  -33.920;    2.375;    0.000;-36.29500
 816.97;  -24.310;    0.006;    0.000;-24.31625
 817.23;  -34.430;    2.188;    0.000;-36.61750
 817.48;  -23.990;    0.579;    0.000;-24.56875
 817.73;  -29.230;    1.298;    0.000;-30.52750
 817.98;  -15.350;    4.060;    0.000;-19.41000
 818.23;  -35.740;    2.849;    0.000;-38.58875
 818.49;  -32.380;    2.114;    0.000;-34.49375
 818.74;  -18.480;    3.495;    0.000;-21.97500
 818.99;  -23.650;    3.039;    0.000;-26.68875
 819.24;  -27.310;    4.864;    0.000;-32.17375
 819.50;  -35.000;   -0.814;    0.000;-34.18625
 819.75;  -27.150;    1.827;    0.000;-28.97750
 820.00;  -15.190;    2.721;    0.000;-17.91125
 820.25;  -36.160;    2.957;    0.000;-39.11750
 820.50;  -40.410;    0.806;    0.000;-41.21625
 820.75;  -32.130;    2.321;    0.000;-34.45125
 821.01;  -34.190;   -0.526;    0.000;-33.66375
 821.26;  -33.610;    2.589;    0.000;-36.19875
 821.51;  -41.340;    1.920;    0.000;-43.26000
 821.76;  -32.040;    2.214;    0.000;-34.25375
 822.01;  -31.130;    2.021;    0.000;-33.15125
 822.26;  -37.200;    2.135;    0.000;-39.33500
 822.52;  -24.190;    0.341;    0.000;-24.53125
 822.77;  -44.640;    2.754;    0.000;-47.39375
 823.02;  -39.580;    3.078;    0.000;-42.65750
 823.27;  -38.070;    2.414;    0.000;-40.48375
 823.52;  -43.030;   -1.496;    0.000;-41.53375
 823.77;  -41.200;    2.965;    0.000;-44.16500
 824.03;  -35.060;   -1.638;    0.000;-33.42250
 824.28;  -40.320;    1.317;    0.000;-41.63750
 824.53;  -40.760;    1.336;    0.000;-42.09625
 824.78;  -36.020;    0.855;    0.000;-36.87500
 825.03;  -42.310;    2.570;    0.000;-44.88000
 825.28;  -42.290;    2.166;    0.000;-44.45625
 825.53;  -38.510;    2.836;    0.000;-41.34625
 825.78;  -39.210;    2.856;    0.000;-42.06625
 826.04;  -39.650;   -0.415;    0.000;-39.23500
 826.29;  -33.310;    0.965;    0.000;-34.27500
 826.54;  -42.160;    0.800;    0.000;-42.96000
 826.79;  -34.950;    0.228;    0.000;-35.17750
 827.04;  -45.260;    2.715;    0.000;-47.97500
 827.29;  -40.980;    2.820;    0.000;-43.80000
 827.54;  -39.750;    1.196;    0.000;-40.94625
 827.79;  -42.450;    0.577;    0.000;-43.02750
 828.04;  -34.200;    1.154;    0.000;-35.35375
 828.29;  -39.380;    2.582;    0.000;-41.96250
 828.55;  -41.390;    0.469;    0.000;-41.85875
 828.80;  -41.250;    3.072;    0.000;-44.32250
 829.05;  -40.700;    0.731;    0.000;-41.43125
 829.30;  -47.070;    2.580;    0.000;-49.65000
 829.55;  -40.920;    0.910;    0.000;-41.83000
 829.80;  -51.620;    4.061;    0.000;-55.68125
 830.05;  -48.150;   -0.123;    0.000;-48.02750
 830.30;  -43.170;    2.500;    0.000;-45.67000
 830.55;  -42.140;    1.209;    0.000;-43.34875
 830.80;  -44.920;    0.980;    0.000;-45.90000
 831.05;  -43.000;    1.500;    0.000;-44.50000
 831.30;  -40.810;    2.391;    0.000;-43.20125
 831.55;  -42.270;    2.223;    0.000;-44.49250
 831.80;  -44.090;    2.836;    0.000;-46.92625
 832.05;  -42.560;    1.240;    0.000;-43.80000
 832.30;  -31.910;    2.408;    0.000;-34.31750
 832.56;  -50.520;    2.081;    0.000;-52.60125
 832.81;  -42.130;    1.378;    0.000;-43.50750
 833.06;  -35.630;    4.117;    0.000;-39.74750
 833.31;  -52.200;    2.487;    0.000;-54.68750
 833.56;  -42.270;    0.243;    0.000;-42.51250
 833.81;  -43.260;    2.466;    0.000;-45.72625
 834.06;  -48.350;    1.622;    0.000;-49.97250
 834.31;  -43.660;    3.581;    0.000;-47.24125
 834.56;  -40.830;    4.500;    0.000;-45.33000
 834.81;  -59.370;    1.409;    0.000;-60.77875
 835.06;  -48.260;    0.406;    0.000;-48.66625
 835.31;  -38.490;    3.463;    0.000;-41.95250
 835.56;  -39.070;   -0.016;    0.000;-39.05375
 835.81;  -45.740;    2.260;    0.000;-48.00000
 836.06;  -31.810;    1.614;    0.000;-33.42375
 836.31;  -50.020;    2.148;    0.000;-52.16750
 836.56;  -45.860;    3.629;    0.000;-49.48875
 836.81;  -41.220;    2.047;    0.000;-43.26750
 837.06;  -31.100;    0.816;    0.000;-31.91625
 837.31;  -43.620;    1.456;    0.000;-45.07625
 837.56;  -51.320;    1.783;    0.000;-53.10250
 837.81;  -44.450;    2.975;    0.000;-47.42500
 838.06;  -40.160;    4.039;    0.000;-44.19875
 838.31;  -53.920;    0.147;    0.000;-54.06750
 838.56;  -56.250;    1.841;    0.000;-58.09125
 838.80;  -48.390;    2.314;    0.000;-50.70375
 839.05;  -48.730;    1.386;    0.000;-50.11625
 839.30;  -47.560;    0.001;    0.000;-47.56125
 839.55;  -47.460;    0.301;    0.000;-47.76125
 839.80;  -44.980;    3.539;    0.000;-48.51875
 840.05;  -52.660;    1.010;    0.000;-53.67000
 840.30;  -36.750;    4.226;    0.000;-40.97625
 840.55;  -41.970;    1.514;    0.000;-43.48375
 840.80;  -45.630;    4.875;    0.000;-50.50500
 841.05;  -52.150;    0.784;    0.000;-52.93375
 841.30;  -46.450;    3.494;    0.000;-49.94375
 841.55;  -60.450;   -0.995;    0.000;-59.45500
 841.80;  -47.140;    1.559;    0.000;-48.69875
 842.05;  -57.310;   -1.285;    0.000;-56.02500
 842.30;  -46.440;    2.414;    0.000;-48.85375
 842.55;  -42.950;    1.058;    0.000;-44.00750
 842.79;  -55.310;    1.925;    0.000;-57.23500
 843.04;  -36.950;    0.854;    0.000;-37.80375
 843.29;  -49.640;    2.419;    0.000;-52.05875
 843.54;  -48.990;    4.284;    0.000;-53.27375
 843.79;  -51.310;    1.813;    0.000;-53.12250
 844.04;  -51.910;    4.705;    0.000;-56.61500
 844.29;  -48.480;    2.770;    0.000;-51.25000
 844.54;  -49.600;    1.173;    0.000;-50.77250
 844.79;  -50.040;    3.172;    0.000;-53.21250
 845.04;  -49.820;   -1.031;    0.000;-48.78875
 845.28;  -60.500;    3.310;    0.000;-63.81000
 845.53;  -41.830;    1.750;    0.000;-43.58000
 845.78;  -36.900;    1.957;    0.000;-38.85750
 846.03;  -56.300;    1.346;    0.000;-57.64625
 846.28;  -51.020;    2.110;    0.000;-53.13000
 846.53;  -42.690;    0.154;    0.000;-42.84375
 846.78;  -45.970;    4.660;    0.000;-50.63000
 847.02;  -40.650;    2.714;    0.000;-43.36375
 847.27;  -48.680;    1.837;    0.000;-50.51750
 847.52;  -46.630;    3.047;    0.000;-49.67750
 847.77;  -58.160;    3.314;    0.000;-61.47375
 848.02;  -56.720;   -0.440;    0.000;-56.28000
 848.27;  -59.170;    3.787;    0.000;-62.95750
 848.52;  -51.580;    2.264;    0.000;-53.84375
 848.76;  -48.400;    0.844;    0.000;-49.24375
 849.01;  -50.750;    2.570;    0.000;-53.32000
 849.26;  -56.610;    0.859;    0.000;-57.46875
 849.51;  -45.820;    3.328;    0.000;-49.14750
 849.76;  -49.820;    1.469;    0.000;-51.28875
 850.01;  -59.440;    0.701;    0.000;-60.14125
 850.25;  -48.380;    0.585;    0.000;-48.96500
 850.50;  -54.650;    0.848;    0.000;-55.49750
 850.75;  -50.450;    1.875;    0.000;-52.32500
 851.00;  -57.760;   -0.499;    0.000;-57.26125
 851.25;  -53.830;    3.796;    0.000;-57.62625
 851.49;  -53.670;    3.533;    0.000;-57.20250
 851.74;  -60.740;   -0.102;    0.000;-60.63750
 851.99;  -54.260;    2.578;    0.000;-56.83750
 852.24;  -58.220;    0.231;    0.000;-58.45125
 852.49;  -63.280;    0.465;    0.000;-63.74500
 852.73;  -52.220;    2.121;    0.000;-54.34125
 852.98;  -54.910;    0.601;    0.000;-55.51125
 853.23;  -52.900;    4.595;    0.000;-57.49500
 853.48;  -61.450;   -0.339;    0.000;-61.11125
 853.73;  -56.570;    1.725;    0.000;-58.29500
 853.97;  -59.270;    1.999;    0.000;-61.26875
 854.22;  -63.470;    2.446;    0.000;-65.91625
 854.47;  -66.150;    2.151;    0.000;-68.30125
 854.72;  -55.460;    1.765;    0.000;-57.22500
 854.96;  -65.490;    2.703;    0.000;-68.19250
 855.21;  -47.260;    1.244;    0.000;-48.50375
 855.46;  -48.120;    0.944;    0.000;-49.06375
 855.71;  -63.170;    0.262;    0.000;-63.43250
 855.95;  -54.580;    2.922;    0.000;-57.50250
 856.20;  -58.140;    2.591;    0.000;-60.73125
 856.45;  -63.410;    1.355;    0.000;-64.76500
 856.70;  -58.650;    4.641;    0.000;-63.29125
 856.94;  -61.370;    1.589;    0.000;-62.95875
 857.19;  -51.110;    2.404;    0.000;-53.51375
 857.44;  -52.460;    1.933;    0.000;-54.39250
 857.69;  -53.740;    5.104;    0.000;-58.84375
 857.93;  -60.630;    3.511;    0.000;-64.14125
 858.18;  -58.150;    1.986;    0.000;-60.13625
 858.43;  -65.160;   -0.159;    0.000;-65.00125
 858.67;  -49.310;    5.415;    0.000;-54.72500
 858.92;  -60.600;    1.999;    0.000;-62.59875
 859.17;  -41.210;    4.201;    0.000;-45.41125
 859.42;  -66.700;    0.545;    0.000;-67.24500
 859.66;  -74.110;    3.158;    0.000;-77.26750
 859.91;  -59.530;   -0.270;    0.000;-59.26000
 860.16;  -71.220;    1.684;    0.000;-72.90375
 860.40;  -58.950;    1.197;    0.000;-60.14750
 860.65;  -74.760;    1.515;    0.000;-76.27500
 860.90;  -65.370;   -0.985;    0.000;-64.38500
 861.14;  -65.510;    0.160;    0.000;-65.67000
 861.39;  -66.810;    0.465;    0.000;-67.27500
 861.64;  -54.670;    3.563;    0.000;-58.23250
 861.88;  -68.810;    3.859;    0.000;-72.66875
 862.13;  -60.820;    2.254;    0.000;-63.07375
 862.38;  -72.640;    0.489;    0.000;-73.12875
 862.62;  -64.770;    1.619;    0.000;-66.38875
 862.87;  -65.000;    0.080;    0.000;-65.08000
 863.12;  -67.660;    0.527;    0.000;-68.18750
 863.36;  -64.950;    3.011;    0.000;-67.96125
 863.61;  -63.500;    2.111;    0.000;-65.61125
 863.86;  -69.370;    0.804;    0.000;-70.17375
 864.10;  -68.950;    2.416;    0.000;-71.36625
 864.35;  -60.620;    1.164;    0.000;-61.78375
 864.60;  -54.980;    0.605;    0.000;-55.58500
 864.84;  -60.300;    1.896;    0.000;-62.19625
 865.09;  -60.980;    2.196;    0.000;-63.17625
 865.33;  -63.350;    3.348;    0.000;-66.69750
 865.58;  -52.510;    3.236;    0.000;-55.74625
 865.83;  -67.290;    2.321;    0.000;-69.61125
 866.07;  -65.900;    2.855;    0.000;-68.75500
 866.32;  -42.580;    2.915;    0.000;-45.49500
 866.57;  -61.910;   -1.800;    0.000;-60.11000
 866.81;  -63.240;    1.764;    0.000;-65.00375
 867.06;  -65.670;   -0.352;    0.000;-65.31750
 867.30;  -75.290;   -0.220;    0.000;-75.07000
 867.55;  -64.720;    1.786;    0.000;-66.50625
 867.80;  -56.860;    2.810;    0.000;-59.67000
 868.04;  -64.250;    4.080;    0.000;-68.33000
 868.29;  -67.770;    3.003;    0.000;-70.77250
 868.53;  -64.050;    3.311;    0.000;-67.36125
 868.78;  -76.010;   -0.996;    0.000;-75.01375
 869.03;  -51.410;    2.876;    0.000;-54.28625
 869.27;  -65.840;    2.398;    0.000;-68.23750
 869.52;  -64.450;    3.370;    0.000;-67.82000
 869.76;  -63.470;    2.531;    0.000;-66.00125
 870.01;  -65.600;    3.679;    0.000;-69.27875
 870.25;  -59.580;    3.981;    0.000;-63.56125
 870.50;  -59.550;    2.935;    0.000;-62.48500
 870.75;  -66.840;    0.636;    0.000;-67.47625
 870.99;  -60.540;    0.940;    0.000;-61.48000
 871.24;  -60.980;    0.904;    0.000;-61.88375
 871.48;  -52.680;    5.313;    0.000;-57.99250
 871.73;  -56.060;    2.930;    0.000;-58.99000
 871.97;  -67.950;    2.589;    0.000;-70.53875
 872.22;  -64.810;    3.342;    0.000;-68.15250
 872.46;  -57.360;    2.088;    0.000;-59.44750
 872.71;  -71.450;    0.244;    0.000;-71.69375
 872.95;  -60.910;    2.320;    0.000;-63.23000
 873.20;  -58.540;    2.894;    0.000;-61.43375
 873.44;  -52.130;    4.470;    0.000;-56.60000
 873.69;  -71.000;    2.315;    0.000;-73.31500
 873.94;  -64.280;    3.934;    0.000;-68.21375
 874.18;  -70.850;    1.847;    0.000;-72.69750
 874.43;  -64.950;    2.386;    0.000;-67.33625
 874.67;  -60.760;   -0.515;    0.000;-60.24500
 874.92;  -58.570;    1.961;    0.000;-60.53125
 875.16;  -62.210;    4.129;    0.000;-66.33875
 875.41;  -59.550;    0.016;    0.000;-59.56625
 875.65;  -62.460;   -0.228;    0.000;-62.23250
 875.90;  -54.590;    5.189;    0.000;-59.77875
 876.14;  -67.410;    2.056;    0.000;-69.46625
 876.39;  -64.450;    3.029;    0.000;-67.47875
 876.63;  -72.640;    2.815;    0.000;-75.45500
 876.88;  -63.790;    1.354;    0.000;-65.14375
 877.12;  -54.530;    1.954;    0.000;-56.48375
 877.36;  -65.900;    1.592;    0.000;-67.49250
 877.61;  -67.620;    1.324;    0.000;-68.94375
 877.85;  -58.890;    3.668;    0.000;-62.55750
 878.10;  -61.050;    1.811;    0.000;-62.86125
 878.34;  -53.990;    4.662;    0.000;-58.65250
 878.59;  -66.190;    3.560;    0.000;-69.75000
 878.83;  -68.010;    3.334;    0.000;-71.34375
 879.08;  -56.940;    4.274;    0.000;-61.21375
 879.32;  -63.390;    3.205;    0.000;-66.59500
 879.57;  -54.310;    3.221;    0.000;-57.53125
 879.81;  -68.900;    0.571;    0.000;-69.47125
 880.05;  -62.170;    2.775;    0.000;-64.94500
 880.30;  -60.610;    1.899;    0.000;-62.50875
 880.54;  -73.950;    2.659;    0.000;-76.60875
 880.79;  -59.520;    1.919;    0.000;-61.43875
 881.03;  -61.900;    1.780;    0.000;-63.68000
 881.28;  -62.630;    4.125;    0.000;-66.75500
 881.52;  -62.830;    4.539;    0.000;-67.36875
 881.76;  -60.680;    2.729;    0.000;-63.40875
 882.01;  -49.600;    1.770;    0.000;-51.37000
 882.25;  -58.530;    5.285;    0.000;-63.81500
 882.50;  -64.110;    1.586;    0.000;-65.69625
 882.74;  -55.290;    1.505;    0.000;-56.79500
 882.98;  -65.060;    2.839;    0.000;-67.89875
 883.23;  -60.650;    1.059;    0.000;-61.70875
 883.47;  -56.520;    4.950;    0.000;-61.47000
 883.72;  -55.840;    4.606;    0.000;-60.44625
 883.96;  -47.610;    4.194;    0.000;-51.80375
 884.20;  -62.810;    1.607;    0.000;-64.41750
 884.45;  -59.340;    3.172;    0.000;-62.51250
 884.69;  -52.330;    5.045;    0.000;-57.37500
 884.94;  -50.490;    3.589;    0.000;-54.07875
 885.18;  -65.230;    2.435;    0.000;-67.66500
 885.42;  -54.350;    2.079;    0.000;-56.42875
 885.67;  -53.570;    3.995;    0.000;-57.56500
 885.91;  -66.120;    1.904;    0.000;-68.02375
 886.15;  -63.080;    1.859;    0.000;-64.93875
 886.40;  -55.880;    1.438;    0.000;-57.31750
 886.64;  -68.590;    3.661;    0.000;-72.25125
 886.88;  -63.200;    2.609;    0.000;-65.80875
 887.13;  -56.210;    3.316;    0.000;-59.52625
 887.37;  -62.000;    2.561;    0.000;-64.56125
 887.62;  -54.330;    4.399;    0.000;-58.72875
 887.86;  -51.540;    3.491;    0.000;-55.03125
 888.10;  -59.980;    5.320;    0.000;-65.30000
 888.35;  -58.400;    4.015;    0.000;-62.41500
 888.59;  -62.390;    5.435;    0.000;-67.82500
 888.83;  -53.780;    3.104;    0.000;-56.88375
 889.07;  -58.350;    3.310;    0.000;-61.66000
 889.32;  -51.750;    5.429;    0.000;-57.17875
 889.56;  -59.700;    3.888;    0.000;-63.58750
 889.80;  -50.410;    2.438;    0.000;-52.84750
 890.05;  -54.150;    2.096;    0.000;-56.24625
 890.29;  -48.530;    3.392;    0.000;-51.92250
 890.53;  -50.300;    4.108;    0.000;-54.40750
 890.78;  -59.730;    3.010;    0.000;-62.74000
 891.02;  -50.250;    3.884;    0.000;-54.13375
 891.26;  -60.700;    4.090;    0.000;-64.79000
 891.51;  -52.000;    3.727;    0.000;-55.72750
 891.75;  -49.500;    1.636;    0.000;-51.13625
 891.99;  -53.820;    4.133;    0.000;-57.95250
 892.23;  -53.970;    1.094;    0.000;-55.06375
 892.48;  -46.080;    6.174;    0.000;-52.25375
 892.72;  -54.140;    4.309;    0.000;-58.44875
 892.96;  -54.500;    6.463;    0.000;-60.96250
 893.20;  -53.340;    3.534;    0.000;-56.87375
 893.45;  -59.590;    4.674;    0.000;-64.26375
 893.69;  -52.540;    4.350;    0.000;-56.89000
 893.93;  -47.400;    3.811;    0.000;-51.21125
 894.17;  -49.910;    3.632;    0.000;-53.54250
 894.42;  -50.260;    3.563;    0.000;-53.82250
 894.66;  -43.590;    3.575;    0.000;-47.16500
 894.90;  -47.310;    4.434;    0.000;-51.74375
 895.14;  -43.470;    5.156;    0.000;-48.62625
 895.39;  -52.710;    2.453;    0.000;-55.16250
 895.63;  -40.320;    3.581;    0.000;-43.90125
 895.87;  -46.300;    2.703;    0.000;-49.00250
 896.11;  -39.870;    3.902;    0.000;-43.77250
 896.36;  -29.410;    4.361;    0.000;-33.77125
 896.60;  -46.950;    4.684;    0.000;-51.63375
 896.84;  -25.800;    7.503;    0.000;-33.30250
 897.08;  -33.340;    7.704;    0.000;-41.04375
 897.32;  -35.170;    6.090;    0.000;-41.26000
 897.57;  -29.640;    5.235;    0.000;-34.87500
 897.81;  -35.730;    6.305;    0.000;-42.03500
 898.05;  -30.090;    6.220;    0.000;-36.31000
 898.29;  -38.660;    6.834;    0.000;-45.49375
 898.53;  -19.210;    5.426;    0.000;-24.63625
 898.78;  -28.440;    7.475;    0.000;-35.91500
 899.02;  -28.150;    5.856;    0.000;-34.00625
 899.26;  -18.490;    8.570;    0.000;-27.06000
 899.50;    1.250;    7.455;    0.000;-6.20500
 899.74;  -26.030;    5.930;    0.000;-31.96000
 899.99;  -16.200;    9.002;    0.000;-25.20250
 900.23;  -11.350;    9.759;    0.000;-21.10875
 900.47;  -13.680;    9.193;    0.000;-22.87250
 900.71;   -4.010;    9.520;    0.000;-13.53000
 900.95;   13.800;    9.591;    0.000; 4.20875
 901.19;   11.820;    9.936;    0.000; 1.88375
 901.44;   21.150;   11.654;    0.000; 9.49625
 901.68;   30.880;   11.363;    0.000;19.51750
 901.92;   36.420;   12.930;    0.000;23.49000
 902.16;   34.620;   12.275;    0.000;22.34500
 902.40;   55.160;   15.089;    0.000;40.07125
 902.64;   71.390;   18.999;    0.000;52.39125
 902.88;   88.750;   18.346;    0.000;70.40375
 903.13;  115.980;   19.689;    0.000;96.29125

