p2
Integration time [ms]:  20.000
Averaging Nr. [scans]: 50
Smoothing Nr. [pixels]: 0
Data measured with spectrometer [name]: 1307077U2
Wave   ;Sample   ;Dark     ;Reference;Scope Corrected for Dark
[nm]   ;[counts] ;[counts] ;[counts] 

 350.80;   15.360;   -3.950;    0.000;19.31000
 351.10;    8.760;    2.790;    0.000; 5.97000
 351.39;    6.380;   -5.780;    0.000;12.16000
 351.69;    0.680;   -6.710;    0.000; 7.39000
 351.99;    4.420;  -10.760;    0.000;15.18000
 352.28;   -1.020;  -11.870;    0.000;10.85000
 352.58;    0.600;    2.640;    0.000;-2.04000
 352.88;    3.220;   -3.560;    0.000; 6.78000
 353.17;   18.800;   -1.460;    0.000;20.26000
 353.47;    2.800;   -7.300;    0.000;10.10000
 353.76;   26.820;    3.730;    0.000;23.09000
 354.06;   12.300;    1.480;    0.000;10.82000
 354.36;   21.280;    2.120;    0.000;19.16000
 354.65;   32.660;   12.260;    0.000;20.40000
 354.95;    7.440;    1.380;    0.000; 6.06000
 355.24;    8.080;   -7.520;    0.000;15.60000
 355.54;    5.320;   -6.140;    0.000;11.46000
 355.84;   11.580;    1.010;    0.000;10.57000
 356.13;   35.440;    1.060;    0.000;34.38000
 356.43;    4.100;   -3.280;    0.000; 7.38000
 356.72;   17.960;   -7.820;    0.000;25.78000
 357.02;   18.000;    1.340;    0.000;16.66000
 357.31;   27.900;    4.400;    0.000;23.50000
 357.61;   21.900;    0.390;    0.000;21.51000
 357.91;   -2.640;   -9.460;    0.000; 6.82000
 358.20;   -5.940;   -6.210;    0.000; 0.27000
 358.50;    6.220;   -0.320;    0.000; 6.54000
 358.79;    9.860;   -0.240;    0.000;10.10000
 359.09;   14.360;    4.600;    0.000; 9.76000
 359.38;    9.340;   -4.910;    0.000;14.25000
 359.68;  -10.060;   -6.920;    0.000;-3.14000
 359.98;   18.860;   -3.210;    0.000;22.07000
 360.27;   10.160;   -5.880;    0.000;16.04000
 360.57;   11.040;   -6.850;    0.000;17.89000
 360.86;   22.240;   -3.030;    0.000;25.27000
 361.16;    1.820;  -10.940;    0.000;12.76000
 361.45;    6.900;   -3.610;    0.000;10.51000
 361.75;   -2.820;   -6.330;    0.000; 3.51000
 362.04;   42.140;    7.330;    0.000;34.81000
 362.34;    2.760;   -8.080;    0.000;10.84000
 362.64;   17.160;   -4.150;    0.000;21.31000
 362.93;    4.720;  -11.650;    0.000;16.37000
 363.23;    2.380;   -3.380;    0.000; 5.76000
 363.52;   -3.380;   -7.930;    0.000; 4.55000
 363.82;   19.000;   -3.630;    0.000;22.63000
 364.11;    4.840;   -3.640;    0.000; 8.48000
 364.41;   -3.520;   -7.090;    0.000; 3.57000
 364.70;    3.660;   -9.000;    0.000;12.66000
 365.00;   17.360;    0.260;    0.000;17.10000
 365.29;   -1.000;   -7.370;    0.000; 6.37000
 365.59;    1.100;   -3.180;    0.000; 4.28000
 365.88;    4.860;  -15.140;    0.000;20.00000
 366.18;    0.120;   -3.430;    0.000; 3.55000
 366.47;   -3.360;   -8.280;    0.000; 4.92000
 366.77;   13.140;   -6.540;    0.000;19.68000
 367.06;    4.600;   -3.040;    0.000; 7.64000
 367.36;   20.540;   -6.830;    0.000;27.37000
 367.65;    9.480;   -1.150;    0.000;10.63000
 367.95;    1.660;   -6.850;    0.000; 8.51000
 368.24;    5.200;   -4.930;    0.000;10.13000
 368.54;    5.680;  -13.980;    0.000;19.66000
 368.83;   19.480;   -1.360;    0.000;20.84000
 369.13;   17.540;   -2.650;    0.000;20.19000
 369.42;    1.520;   -5.530;    0.000; 7.05000
 369.72;   12.140;   -9.410;    0.000;21.55000
 370.01;   -2.800;   -1.870;    0.000;-0.93000
 370.31;   18.400;    2.490;    0.000;15.91000
 370.60;   20.840;   -0.490;    0.000;21.33000
 370.90;   19.300;   -4.910;    0.000;24.21000
 371.19;   -4.840;   -8.640;    0.000; 3.80000
 371.49;   -5.040;  -15.270;    0.000;10.23000
 371.78;    8.100;  -12.190;    0.000;20.29000
 372.08;   11.840;   -4.150;    0.000;15.99000
 372.37;   -4.080;   -7.430;    0.000; 3.35000
 372.67;   20.160;   -1.910;    0.000;22.07000
 372.96;   -1.640;   -4.090;    0.000; 2.45000
 373.26;   -3.720;  -11.210;    0.000; 7.49000
 373.55;    0.580;   -3.340;    0.000; 3.92000
 373.85;   -7.260;  -14.000;    0.000; 6.74000
 374.14;    7.840;   -0.440;    0.000; 8.28000
 374.43;    3.980;   -4.860;    0.000; 8.84000
 374.73;   -7.720;   -5.870;    0.000;-1.85000
 375.02;   11.800;   -6.640;    0.000;18.44000
 375.32;    1.840;   -8.860;    0.000;10.70000
 375.61;    0.500;   -4.690;    0.000; 5.19000
 375.91;    4.780;   -6.400;    0.000;11.18000
 376.20;  -16.860;   -8.800;    0.000;-8.06000
 376.50;   -5.720;   -2.750;    0.000;-2.97000
 376.79;   -9.360;  -12.990;    0.000; 3.63000
 377.08;   -2.840;   -9.810;    0.000; 6.97000
 377.38;    2.380;   -9.410;    0.000;11.79000
 377.67;   -4.580;  -15.820;    0.000;11.24000
 377.97;  -12.600;  -12.430;    0.000;-0.17000
 378.26;    5.940;   -3.550;    0.000; 9.49000
 378.56;   -8.880;  -11.760;    0.000; 2.88000
 378.85;    5.900;   -6.770;    0.000;12.67000
 379.14;    3.660;  -10.870;    0.000;14.53000
 379.44;    1.020;   -7.950;    0.000; 8.97000
 379.73;    6.720;  -12.070;    0.000;18.79000
 380.03;    8.560;  -10.640;    0.000;19.20000
 380.32;  -11.300;  -10.740;    0.000;-0.56000
 380.62;   -4.660;  -11.160;    0.000; 6.50000
 380.91;   17.400;   -2.790;    0.000;20.19000
 381.20;  -10.160;   -6.380;    0.000;-3.78000
 381.50;   -6.840;   -6.110;    0.000;-0.73000
 381.79;    3.040;   -7.870;    0.000;10.91000
 382.09;    8.100;   -7.030;    0.000;15.13000
 382.38;    1.880;  -10.330;    0.000;12.21000
 382.67;   12.420;  -10.730;    0.000;23.15000
 382.97;   -1.080;   -5.370;    0.000; 4.29000
 383.26;    1.100;   -3.260;    0.000; 4.36000
 383.56;    6.400;   -3.260;    0.000; 9.66000
 383.85;   11.700;  -12.650;    0.000;24.35000
 384.14;   14.520;    0.820;    0.000;13.70000
 384.44;    5.480;   -6.530;    0.000;12.01000
 384.73;    6.220;   -5.430;    0.000;11.65000
 385.02;   -0.100;   -6.450;    0.000; 6.35000
 385.32;   -2.000;   -4.570;    0.000; 2.57000
 385.61;  -12.720;  -16.270;    0.000; 3.55000
 385.91;   10.720;   -9.440;    0.000;20.16000
 386.20;    4.260;  -10.110;    0.000;14.37000
 386.49;  -15.200;  -14.900;    0.000;-0.30000
 386.79;    0.680;   -7.340;    0.000; 8.02000
 387.08;    0.640;   -6.300;    0.000; 6.94000
 387.37;    5.720;   -8.420;    0.000;14.14000
 387.67;    2.280;   -6.130;    0.000; 8.41000
 387.96;   -2.380;   -9.280;    0.000; 6.90000
 388.25;  -11.300;   -1.410;    0.000;-9.89000
 388.55;    1.460;  -10.080;    0.000;11.54000
 388.84;    0.940;  -12.690;    0.000;13.63000
 389.14;    1.380;  -11.090;    0.000;12.47000
 389.43;   -2.720;   -9.030;    0.000; 6.31000
 389.72;   -6.540;  -13.300;    0.000; 6.76000
 390.02;  -16.800;   -9.420;    0.000;-7.38000
 390.31;    4.060;   -2.070;    0.000; 6.13000
 390.60;    1.760;   -4.250;    0.000; 6.01000
 390.90;   -1.240;  -15.000;    0.000;13.76000
 391.19;   -2.540;   -8.270;    0.000; 5.73000
 391.48;    4.460;  -13.200;    0.000;17.66000
 391.78;   -0.500;   -9.570;    0.000; 9.07000
 392.07;   75.100;   16.810;    0.000;58.29000
 392.36;   10.840;   -1.800;    0.000;12.64000
 392.66;    2.660;  -11.850;    0.000;14.51000
 392.95;   -7.100;  -10.380;    0.000; 3.28000
 393.24;   -6.360;  -20.110;    0.000;13.75000
 393.53;   -2.200;   -8.500;    0.000; 6.30000
 393.83;    1.880;  -10.870;    0.000;12.75000
 394.12;   -2.900;  -16.700;    0.000;13.80000
 394.41;    4.780;  -13.050;    0.000;17.83000
 394.71;    2.760;   -7.960;    0.000;10.72000
 395.00;   -1.060;  -12.500;    0.000;11.44000
 395.29;    6.820;   -8.400;    0.000;15.22000
 395.59;   -8.360;  -20.950;    0.000;12.59000
 395.88;   -1.400;  -16.060;    0.000;14.66000
 396.17;  -12.160;   -8.460;    0.000;-3.70000
 396.46;    5.880;   -3.560;    0.000; 9.44000
 396.76;   -7.220;  -13.050;    0.000; 5.83000
 397.05;   16.640;    2.180;    0.000;14.46000
 397.34;   -1.240;  -20.090;    0.000;18.85000
 397.64;   -9.420;   -9.050;    0.000;-0.37000
 397.93;    2.740;  -18.420;    0.000;21.16000
 398.22;  -11.880;  -12.920;    0.000; 1.04000
 398.51;    3.040;   -9.770;    0.000;12.81000
 398.81;  -10.520;  -12.510;    0.000; 1.99000
 399.10;    0.560;   -2.690;    0.000; 3.25000
 399.39;    0.500;  -11.900;    0.000;12.40000
 399.69;    8.440;  -13.740;    0.000;22.18000
 399.98;   -0.080;   -4.100;    0.000; 4.02000
 400.27;   -9.340;  -13.520;    0.000; 4.18000
 400.56;  -10.880;  -16.060;    0.000; 5.18000
 400.86;   -4.220;  -13.820;    0.000; 9.60000
 401.15;    6.420;   -4.180;    0.000;10.60000
 401.44;  -10.000;  -15.730;    0.000; 5.73000
 401.73;    7.420;   -2.540;    0.000; 9.96000
 402.03;    2.640;  -10.300;    0.000;12.94000
 402.32;   -7.080;  -17.030;    0.000; 9.95000
 402.61;    1.820;   -9.950;    0.000;11.77000
 402.90;   -7.620;  -11.420;    0.000; 3.80000
 403.20;   -2.340;   -6.220;    0.000; 3.88000
 403.49;   11.260;   -6.030;    0.000;17.29000
 403.78;    6.240;  -11.040;    0.000;17.28000
 404.07;  -16.340;  -18.650;    0.000; 2.31000
 404.37;   -2.020;  -10.470;    0.000; 8.45000
 404.66;    5.700;  -14.960;    0.000;20.66000
 404.95;    1.500;   -0.330;    0.000; 1.83000
 405.24;  -11.240;  -15.620;    0.000; 4.38000
 405.53;   -2.680;  -15.660;    0.000;12.98000
 405.83;   10.320;   -4.700;    0.000;15.02000
 406.12;   -3.080;  -10.900;    0.000; 7.82000
 406.41;   24.860;   -6.740;    0.000;31.60000
 406.70;   -2.480;  -12.650;    0.000;10.17000
 407.00;   15.260;   -5.150;    0.000;20.41000
 407.29;   -1.860;  -10.150;    0.000; 8.29000
 407.58;  -10.860;  -15.850;    0.000; 4.99000
 407.87;    2.520;  -15.280;    0.000;17.80000
 408.16;  -13.100;  -17.930;    0.000; 4.83000
 408.46;   -2.420;  -11.550;    0.000; 9.13000
 408.75;   -5.540;  -11.910;    0.000; 6.37000
 409.04;    8.560;   -9.380;    0.000;17.94000
 409.33;    9.040;   -5.530;    0.000;14.57000
 409.62;   18.420;   -9.060;    0.000;27.48000
 409.92;    4.700;   -7.890;    0.000;12.59000
 410.21;   -0.180;  -11.510;    0.000;11.33000
 410.50;  -14.340;  -15.240;    0.000; 0.90000
 410.79;   13.640;   -3.910;    0.000;17.55000
 411.08;    5.600;  -18.230;    0.000;23.83000
 411.37;   -6.200;  -12.950;    0.000; 6.75000
 411.67;   -0.400;  -15.120;    0.000;14.72000
 411.96;   -9.460;  -13.530;    0.000; 4.07000
 412.25;   -7.320;  -11.720;    0.000; 4.40000
 412.54;   -4.600;  -14.570;    0.000; 9.97000
 412.83;   -7.400;  -15.690;    0.000; 8.29000
 413.13;    8.200;  -12.520;    0.000;20.72000
 413.42;  -11.800;  -11.540;    0.000;-0.26000
 413.71;   11.320;  -16.160;    0.000;27.48000
 414.00;  -10.000;  -15.050;    0.000; 5.05000
 414.29;    9.340;  -10.400;    0.000;19.74000
 414.58;  -20.380;  -20.050;    0.000;-0.33000
 414.87;   -3.960;  -11.570;    0.000; 7.61000
 415.17;  -10.440;  -14.460;    0.000; 4.02000
 415.46;    4.820;  -14.740;    0.000;19.56000
 415.75;    2.440;  -15.050;    0.000;17.49000
 416.04;   11.320;  -19.580;    0.000;30.90000
 416.33;    6.480;  -10.240;    0.000;16.72000
 416.62;   -5.100;  -16.750;    0.000;11.65000
 416.91;   -3.580;   -9.630;    0.000; 6.05000
 417.21;  -10.660;   -9.770;    0.000;-0.89000
 417.50;  -10.600;  -22.390;    0.000;11.79000
 417.79;   -8.700;  -14.440;    0.000; 5.74000
 418.08;  -10.500;  -16.260;    0.000; 5.76000
 418.37;   -6.060;  -12.710;    0.000; 6.65000
 418.66;   -5.580;  -14.780;    0.000; 9.20000
 418.95;   12.760;  -12.220;    0.000;24.98000
 419.24;  -10.120;  -16.910;    0.000; 6.79000
 419.54;    1.600;  -14.290;    0.000;15.89000
 419.83;    1.940;   -7.000;    0.000; 8.94000
 420.12;    1.480;  -17.080;    0.000;18.56000
 420.41;   28.500;   -6.120;    0.000;34.62000
 420.70;  -12.900;  -15.970;    0.000; 3.07000
 420.99;   12.720;   -7.860;    0.000;20.58000
 421.28;    6.280;  -14.590;    0.000;20.87000
 421.57;    4.400;  -13.670;    0.000;18.07000
 421.86;    9.520;   -3.720;    0.000;13.24000
 422.16;    6.180;   -4.790;    0.000;10.97000
 422.45;   -1.120;   -7.870;    0.000; 6.75000
 422.74;  -11.640;  -11.510;    0.000;-0.13000
 423.03;    5.340;   -8.230;    0.000;13.57000
 423.32;   -2.600;  -16.280;    0.000;13.68000
 423.61;   11.780;  -10.700;    0.000;22.48000
 423.90;   -2.920;  -18.810;    0.000;15.89000
 424.19;   45.000;    3.040;    0.000;41.96000
 424.48;   -7.220;  -13.640;    0.000; 6.42000
 424.77;    7.060;  -15.110;    0.000;22.17000
 425.06;    7.020;   -8.550;    0.000;15.57000
 425.35;   14.220;  -12.070;    0.000;26.29000
 425.65;  -11.000;  -12.850;    0.000; 1.85000
 425.94;    7.700;  -13.500;    0.000;21.20000
 426.23;   -7.640;  -18.630;    0.000;10.99000
 426.52;   -8.600;  -18.760;    0.000;10.16000
 426.81;   28.240;   -4.960;    0.000;33.20000
 427.10;   -5.640;  -18.640;    0.000;13.00000
 427.39;    1.820;  -17.730;    0.000;19.55000
 427.68;   -1.700;   -6.060;    0.000; 4.36000
 427.97;   21.240;   -9.970;    0.000;31.21000
 428.26;   -9.640;  -21.550;    0.000;11.91000
 428.55;   10.000;   -7.010;    0.000;17.01000
 428.84;    9.760;  -15.510;    0.000;25.27000
 429.13;   -1.220;  -21.800;    0.000;20.58000
 429.42;    8.920;   -6.430;    0.000;15.35000
 429.71;   15.700;  -12.900;    0.000;28.60000
 430.00;   -1.180;  -27.260;    0.000;26.08000
 430.29;  -20.320;  -18.790;    0.000;-1.53000
 430.58;    0.240;  -19.950;    0.000;20.19000
 430.87;   -2.660;  -18.710;    0.000;16.05000
 431.16;  -12.260;  -27.130;    0.000;14.87000
 431.46;   12.440;  -12.580;    0.000;25.02000
 431.75;    0.440;  -16.460;    0.000;16.90000
 432.04;   -0.840;  -12.750;    0.000;11.91000
 432.33;   -9.160;  -15.960;    0.000; 6.80000
 432.62;    7.600;  -16.610;    0.000;24.21000
 432.91;   -7.960;  -15.280;    0.000; 7.32000
 433.20;   -2.200;  -14.090;    0.000;11.89000
 433.49;    1.480;  -21.180;    0.000;22.66000
 433.78;   -7.720;  -15.380;    0.000; 7.66000
 434.07;   -7.220;  -18.570;    0.000;11.35000
 434.36;   -5.380;  -18.360;    0.000;12.98000
 434.65;   -4.220;  -19.110;    0.000;14.89000
 434.94;   -4.960;  -16.660;    0.000;11.70000
 435.23;    7.440;  -14.870;    0.000;22.31000
 435.52;    9.280;  -15.280;    0.000;24.56000
 435.81;   -7.080;  -19.590;    0.000;12.51000
 436.10;  -10.160;   -8.920;    0.000;-1.24000
 436.39;    8.360;   -9.090;    0.000;17.45000
 436.68;   17.340;   -9.150;    0.000;26.49000
 436.97;  -12.620;  -17.940;    0.000; 5.32000
 437.26;   -6.140;  -11.060;    0.000; 4.92000
 437.55;    7.380;  -14.150;    0.000;21.53000
 437.83;  -11.460;  -20.360;    0.000; 8.90000
 438.12;  -13.500;  -19.980;    0.000; 6.48000
 438.41;   -9.000;  -18.690;    0.000; 9.69000
 438.70;   25.480;   -6.450;    0.000;31.93000
 438.99;   20.500;   -3.000;    0.000;23.50000
 439.28;    0.880;  -13.960;    0.000;14.84000
 439.57;   -5.420;   -8.660;    0.000; 3.24000
 439.86;   -9.560;  -20.460;    0.000;10.90000
 440.15;    5.980;  -10.490;    0.000;16.47000
 440.44;    3.780;  -14.790;    0.000;18.57000
 440.73;   -4.560;  -19.990;    0.000;15.43000
 441.02;  -23.780;  -18.940;    0.000;-4.84000
 441.31;    5.560;  -17.020;    0.000;22.58000
 441.60;    6.500;  -10.820;    0.000;17.32000
 441.89;  -10.400;  -18.180;    0.000; 7.78000
 442.18;    6.720;  -11.380;    0.000;18.10000
 442.47;   -9.820;  -20.660;    0.000;10.84000
 442.76;   -7.280;  -17.440;    0.000;10.16000
 443.05;    9.800;   -6.670;    0.000;16.47000
 443.34;    9.900;  -21.050;    0.000;30.95000
 443.63;   -5.920;  -21.060;    0.000;15.14000
 443.91;    2.600;  -24.010;    0.000;26.61000
 444.20;   -2.580;  -15.210;    0.000;12.63000
 444.49;   -9.680;  -17.150;    0.000; 7.47000
 444.78;   -3.240;  -10.890;    0.000; 7.65000
 445.07;   14.140;  -13.040;    0.000;27.18000
 445.36;   -6.980;  -25.850;    0.000;18.87000
 445.65;    2.800;  -13.460;    0.000;16.26000
 445.94;  -10.720;  -17.420;    0.000; 6.70000
 446.23;    8.740;  -14.150;    0.000;22.89000
 446.52;    6.840;  -19.520;    0.000;26.36000
 446.81;   12.440;  -16.560;    0.000;29.00000
 447.10;   -3.580;  -13.040;    0.000; 9.46000
 447.38;   -7.240;  -16.320;    0.000; 9.08000
 447.67;    8.360;  -14.960;    0.000;23.32000
 447.96;   -6.540;  -20.220;    0.000;13.68000
 448.25;   -1.880;  -17.610;    0.000;15.73000
 448.54;    5.760;  -20.490;    0.000;26.25000
 448.83;    5.220;  -21.650;    0.000;26.87000
 449.12;  -10.440;  -24.330;    0.000;13.89000
 449.41;    7.020;  -17.380;    0.000;24.40000
 449.70;   -0.480;  -19.200;    0.000;18.72000
 449.98;   -2.260;  -18.990;    0.000;16.73000
 450.27;    6.160;  -10.630;    0.000;16.79000
 450.56;  -23.020;  -19.350;    0.000;-3.67000
 450.85;   -1.440;  -18.980;    0.000;17.54000
 451.14;  -13.900;  -18.310;    0.000; 4.41000
 451.43;  -16.520;  -19.640;    0.000; 3.12000
 451.72;  -13.000;  -20.630;    0.000; 7.63000
 452.01;    7.640;  -12.200;    0.000;19.84000
 452.29;   -2.120;  -18.350;    0.000;16.23000
 452.58;    3.160;  -25.270;    0.000;28.43000
 452.87;   -3.460;  -19.090;    0.000;15.63000
 453.16;   -2.520;  -11.330;    0.000; 8.81000
 453.45;   13.460;  -14.720;    0.000;28.18000
 453.74;    9.200;  -10.690;    0.000;19.89000
 454.03;   -0.780;  -21.930;    0.000;21.15000
 454.31;   -2.760;  -22.490;    0.000;19.73000
 454.60;  -24.660;  -21.160;    0.000;-3.50000
 454.89;   14.400;  -12.560;    0.000;26.96000
 455.18;   -3.860;  -24.060;    0.000;20.20000
 455.47;  -11.720;  -26.150;    0.000;14.43000
 455.76;   -6.960;  -27.400;    0.000;20.44000
 456.04;    1.420;  -25.580;    0.000;27.00000
 456.33;    2.160;  -25.270;    0.000;27.43000
 456.62;   -9.260;  -18.480;    0.000; 9.22000
 456.91;   -6.440;  -23.960;    0.000;17.52000
 457.20;    7.620;  -15.140;    0.000;22.76000
 457.49;   -3.640;  -14.830;    0.000;11.19000
 457.77;   -5.020;  -20.000;    0.000;14.98000
 458.06;    9.820;  -12.460;    0.000;22.28000
 458.35;   -5.620;  -24.180;    0.000;18.56000
 458.64;    1.900;  -11.000;    0.000;12.90000
 458.93;    9.680;  -15.890;    0.000;25.57000
 459.21;   -7.040;  -21.440;    0.000;14.40000
 459.50;    0.040;  -22.030;    0.000;22.07000
 459.79;    0.120;  -19.740;    0.000;19.86000
 460.08;    0.460;  -20.210;    0.000;20.67000
 460.37;   -4.880;  -17.330;    0.000;12.45000
 460.65;    0.420;  -20.980;    0.000;21.40000
 460.94;   -2.560;  -24.100;    0.000;21.54000
 461.23;    5.140;  -16.720;    0.000;21.86000
 461.52;   29.280;  -10.800;    0.000;40.08000
 461.81;   -5.300;  -18.200;    0.000;12.90000
 462.09;   -7.500;  -16.530;    0.000; 9.03000
 462.38;  -15.160;  -21.390;    0.000; 6.23000
 462.67;   -3.260;  -25.110;    0.000;21.85000
 462.96;    6.460;  -24.230;    0.000;30.69000
 463.24;   -2.320;  -23.650;    0.000;21.33000
 463.53;    7.540;  -17.480;    0.000;25.02000
 463.82;    4.080;  -19.800;    0.000;23.88000
 464.11;   -7.260;  -21.730;    0.000;14.47000
 464.40;    6.500;  -22.130;    0.000;28.63000
 464.68;  -12.220;  -21.480;    0.000; 9.26000
 464.97;   -1.900;  -19.470;    0.000;17.57000
 465.26;   17.180;  -17.460;    0.000;34.64000
 465.55;    2.440;  -20.890;    0.000;23.33000
 465.83;   -6.820;  -20.920;    0.000;14.10000
 466.12;   -6.260;  -22.340;    0.000;16.08000
 466.41;    8.260;  -21.380;    0.000;29.64000
 466.70;    1.100;  -23.610;    0.000;24.71000
 466.98;  -15.260;  -20.090;    0.000; 4.83000
 467.27;    4.080;  -18.760;    0.000;22.84000
 467.56;   15.180;  -20.980;    0.000;36.16000
 467.85;    6.600;  -15.930;    0.000;22.53000
 468.13;   -0.620;  -14.330;    0.000;13.71000
 468.42;   -4.060;  -17.700;    0.000;13.64000
 468.71;   -1.560;  -20.100;    0.000;18.54000
 468.99;   -3.060;  -17.320;    0.000;14.26000
 469.28;   -3.960;  -22.330;    0.000;18.37000
 469.57;   -5.900;  -21.170;    0.000;15.27000
 469.86;   10.200;  -18.660;    0.000;28.86000
 470.14;   -6.160;  -24.400;    0.000;18.24000
 470.43;    9.780;  -16.250;    0.000;26.03000
 470.72;  -12.660;  -27.700;    0.000;15.04000
 471.00;   -6.300;  -21.470;    0.000;15.17000
 471.29;   31.060;  -12.190;    0.000;43.25000
 471.58;   26.280;  -14.440;    0.000;40.72000
 471.87;   -1.720;  -20.260;    0.000;18.54000
 472.15;   -3.160;  -27.280;    0.000;24.12000
 472.44;   16.420;  -13.550;    0.000;29.97000
 472.73;   -7.780;  -28.340;    0.000;20.56000
 473.01;   -6.940;  -26.320;    0.000;19.38000
 473.30;   14.520;  -23.100;    0.000;37.62000
 473.59;    4.200;  -19.590;    0.000;23.79000
 473.87;    6.120;  -19.240;    0.000;25.36000
 474.16;  -12.120;  -20.110;    0.000; 7.99000
 474.45;    5.660;  -30.440;    0.000;36.10000
 474.74;   -7.740;  -22.750;    0.000;15.01000
 475.02;   -1.320;  -15.460;    0.000;14.14000
 475.31;    7.820;  -20.200;    0.000;28.02000
 475.60;   11.380;  -27.200;    0.000;38.58000
 475.88;    9.400;  -25.920;    0.000;35.32000
 476.17;   30.100;  -16.890;    0.000;46.99000
 476.46;    0.020;  -20.900;    0.000;20.92000
 476.74;   -2.000;  -23.070;    0.000;21.07000
 477.03;   -4.880;  -22.890;    0.000;18.01000
 477.32;    2.060;  -21.040;    0.000;23.10000
 477.60;    7.900;  -24.890;    0.000;32.79000
 477.89;   25.500;  -14.910;    0.000;40.41000
 478.18;   15.840;  -15.900;    0.000;31.74000
 478.46;    7.900;  -19.520;    0.000;27.42000
 478.75;    1.680;  -18.520;    0.000;20.20000
 479.03;   10.340;  -17.330;    0.000;27.67000
 479.32;   20.040;  -26.670;    0.000;46.71000
 479.61;    5.620;  -32.440;    0.000;38.06000
 479.89;    3.480;  -24.740;    0.000;28.22000
 480.18;   16.580;  -21.450;    0.000;38.03000
 480.47;   17.780;  -18.220;    0.000;36.00000
 480.75;   12.060;  -29.820;    0.000;41.88000
 481.04;   20.400;  -20.400;    0.000;40.80000
 481.33;   35.760;  -16.240;    0.000;52.00000
 481.61;   26.060;  -20.830;    0.000;46.89000
 481.90;    9.920;  -33.240;    0.000;43.16000
 482.18;   42.860;  -23.490;    0.000;66.35000
 482.47;   38.000;  -18.580;    0.000;56.58000
 482.76;   36.820;  -24.650;    0.000;61.47000
 483.04;   49.840;  -22.560;    0.000;72.40000
 483.33;   43.880;  -27.450;    0.000;71.33000
 483.61;   60.200;  -18.390;    0.000;78.59000
 483.90;   62.600;  -22.630;    0.000;85.23000
 484.19;   44.700;  -31.890;    0.000;76.59000
 484.47;   77.200;  -27.650;    0.000;104.85000
 484.76;   77.120;  -22.480;    0.000;99.60000
 485.05;   94.800;  -15.900;    0.000;110.70000
 485.33;   99.780;  -20.520;    0.000;120.30000
 485.62;  103.960;  -23.220;    0.000;127.18000
 485.90;  124.100;  -19.330;    0.000;143.43000
 486.19;  132.880;  -21.960;    0.000;154.84000
 486.47;  177.820;  -17.750;    0.000;195.57001
 486.76;  161.300;  -32.110;    0.000;193.41000
 487.05;  202.340;  -21.590;    0.000;223.93000
 487.33;  204.040;  -24.120;    0.000;228.15999
 487.62;  213.860;  -27.370;    0.000;241.23000
 487.90;  234.740;  -24.640;    0.000;259.38000
 488.19;  267.520;  -17.250;    0.000;284.76999
 488.47;  288.240;  -20.280;    0.000;308.51999
 488.76;  309.260;  -22.200;    0.000;331.46001
 489.05;  355.680;  -13.720;    0.000;369.39999
 489.33;  368.660;  -24.060;    0.000;392.72000
 489.62;  405.140;  -27.760;    0.000;432.90001
 489.90;  409.740;  -29.230;    0.000;438.96999
 490.19;  463.460;  -20.080;    0.000;483.53999
 490.47;  505.420;  -27.170;    0.000;532.59001
 490.76;  529.340;  -30.390;    0.000;559.73003
 491.05;  578.440;  -18.700;    0.000;597.14000
 491.33;  604.520;  -19.160;    0.000;623.68002
 491.62;  653.100;  -30.080;    0.000;683.17998
 491.90;  712.820;  -24.970;    0.000;737.79001
 492.19;  739.860;  -29.880;    0.000;769.73998
 492.47;  779.280;  -26.010;    0.000;805.29003
 492.76;  831.100;  -25.800;    0.000;856.89997
 493.04;  904.180;  -23.090;    0.000;927.26999
 493.33;  934.860;  -29.680;    0.000;964.53999
 493.61; 1009.160;  -28.280;    0.000;1037.43997
 493.90; 1095.560;  -25.470;    0.000;1121.03006
 494.18; 1151.780;  -21.360;    0.000;1173.14003
 494.47; 1197.320;  -21.500;    0.000;1218.81995
 494.75; 1274.480;  -25.740;    0.000;1300.21998
 495.04; 1360.280;  -25.010;    0.000;1385.29003
 495.32; 1400.020;  -24.280;    0.000;1424.30002
 495.61; 1494.300;  -26.390;    0.000;1520.69005
 495.89; 1575.580;  -25.210;    0.000;1600.78996
 496.18; 1668.420;  -24.900;    0.000;1693.32004
 496.46; 1757.300;  -25.570;    0.000;1782.87005
 496.75; 1832.720;  -19.200;    0.000;1851.91997
 497.03; 1927.460;  -21.850;    0.000;1949.30996
 497.32; 2019.620;  -28.930;    0.000;2048.55000
 497.60; 2082.880;  -27.460;    0.000;2110.33988
 497.89; 2190.560;  -26.060;    0.000;2216.62006
 498.17; 2318.120;  -23.200;    0.000;2341.32012
 498.46; 2412.700;  -31.150;    0.000;2443.84995
 498.74; 2529.840;  -21.420;    0.000;2551.26009
 499.03; 2611.680;  -27.500;    0.000;2639.17993
 499.31; 2734.780;  -33.980;    0.000;2768.76003
 499.60; 2862.020;  -26.560;    0.000;2888.58002
 499.88; 2976.360;  -13.310;    0.000;2989.67011
 500.17; 3063.540;  -32.950;    0.000;3096.49004
 500.45; 3225.100;  -26.850;    0.000;3251.95010
 500.74; 3336.640;  -32.110;    0.000;3368.74989
 501.02; 3429.300;  -28.340;    0.000;3457.64005
 501.31; 3578.740;  -30.740;    0.000;3609.47999
 501.59; 3708.680;  -22.990;    0.000;3731.66993
 501.88; 3872.500;  -24.540;    0.000;3897.04000
 502.16; 3994.480;  -33.190;    0.000;4027.66998
 502.45; 4136.600;  -27.850;    0.000;4164.45010
 502.73; 4258.540;  -30.030;    0.000;4288.57004
 503.01; 4379.580;  -26.800;    0.000;4406.38008
 503.30; 4513.740;  -26.540;    0.000;4540.28024
 503.58; 4658.680;  -37.970;    0.000;4696.65018
 503.87; 4826.820;  -21.070;    0.000;4847.88982
 504.15; 4970.180;  -31.700;    0.000;5001.88018
 504.44; 5138.680;  -22.380;    0.000;5161.06017
 504.72; 5280.820;  -16.240;    0.000;5297.05982
 505.00; 5412.940;  -31.090;    0.000;5444.02994
 505.29; 5602.480;  -18.750;    0.000;5621.22998
 505.57; 5726.380;  -26.120;    0.000;5752.49988
 505.86; 5872.940;  -30.130;    0.000;5903.06994
 506.14; 6007.380;  -40.580;    0.000;6047.95988
 506.43; 6205.800;  -16.980;    0.000;6222.77980
 506.71; 6329.700;  -26.380;    0.000;6356.08019
 506.99; 6530.400;  -33.030;    0.000;6563.42990
 507.28; 6693.700;  -27.620;    0.000;6721.32020
 507.56; 6835.400;  -28.400;    0.000;6863.79990
 507.85; 6953.500;  -26.630;    0.000;6980.13000
 508.13; 7205.960;  -23.390;    0.000;7229.34996
 508.41; 7316.640;  -13.300;    0.000;7329.94014
 508.70; 7484.480;  -30.090;    0.000;7514.56998
 508.98; 7618.180;  -29.260;    0.000;7647.44018
 509.27; 7819.060;  -34.820;    0.000;7853.88006
 509.55; 7985.000;  -20.900;    0.000;8005.90000
 509.83; 8116.860;  -32.250;    0.000;8149.10986
 510.12; 8312.260;  -25.080;    0.000;8337.33977
 510.40; 8505.440;  -26.530;    0.000;8531.97043
 510.69; 8620.380;  -26.360;    0.000;8646.73988
 510.97; 8842.760;  -25.960;    0.000;8868.71976
 511.25; 8975.860;  -25.560;    0.000;9001.42035
 511.54; 9141.120;  -32.180;    0.000;9173.30012
 511.82; 9279.300;  -23.410;    0.000;9302.70980
 512.11; 9480.120;  -28.130;    0.000;9508.25012
 512.39; 9607.800;  -32.100;    0.000;9639.89980
 512.67; 9762.380;  -23.390;    0.000;9785.76988
 512.96; 9974.380;  -27.360;    0.000;10001.73988
 513.24;10122.860;  -25.540;    0.000;10148.40035
 513.52;10253.520;  -20.710;    0.000;10274.22953
 513.81;10419.660;  -27.450;    0.000;10447.11016
 514.09;10488.720;  -31.630;    0.000;10520.34973
 514.37;10699.980;  -28.900;    0.000;10728.88047
 514.66;10838.940;  -26.830;    0.000;10865.77043
 514.94;11012.220;  -30.930;    0.000;11043.14973
 515.22;11181.040;  -20.740;    0.000;11201.78004
 515.51;11261.300;  -28.110;    0.000;11289.40981
 515.79;11438.100;  -30.680;    0.000;11468.77961
 516.07;11643.520;  -21.420;    0.000;11664.93953
 516.36;11787.900;  -30.450;    0.000;11818.35039
 516.64;11968.600;  -27.560;    0.000;11996.15961
 516.92;12072.020;  -28.140;    0.000;12100.15953
 517.21;12315.300;  -33.670;    0.000;12348.96980
 517.49;12506.760;  -21.660;    0.000;12528.41977
 517.77;12713.060;  -23.850;    0.000;12736.90957
 518.06;12857.160;  -35.280;    0.000;12892.44016
 518.34;13025.220;  -22.260;    0.000;13047.47973
 518.62;13148.460;  -18.090;    0.000;13166.54996
 518.91;13244.880;  -25.090;    0.000;13269.96988
 519.19;13465.120;  -29.320;    0.000;13494.44012
 519.47;13604.340;  -25.890;    0.000;13630.22984
 519.76;13782.800;  -20.890;    0.000;13803.68980
 520.04;13937.400;  -27.100;    0.000;13964.50039
 520.32;14044.160;  -24.040;    0.000;14068.20016
 520.61;14203.700;  -17.280;    0.000;14220.98020
 520.89;14354.700;  -26.150;    0.000;14380.85019
 521.17;14461.140;  -27.250;    0.000;14488.38965
 521.45;14539.320;  -26.190;    0.000;14565.51031
 521.74;14770.520;  -27.770;    0.000;14798.28953
 522.02;14925.940;  -32.340;    0.000;14958.28043
 522.30;15052.160;  -30.190;    0.000;15082.35016
 522.59;15157.260;  -17.950;    0.000;15175.20977
 522.87;15327.940;  -35.830;    0.000;15363.77043
 523.15;15413.080;  -22.330;    0.000;15435.41008
 523.43;15542.240;  -36.850;    0.000;15579.09023
 523.72;15725.100;  -22.470;    0.000;15747.56961
 524.00;15882.800;  -26.840;    0.000;15909.63980
 524.28;15938.240;  -30.100;    0.000;15968.34023
 524.57;16130.900;  -28.250;    0.000;16159.15039
 524.85;16123.820;  -33.210;    0.000;16157.03031
 525.13;16325.360;  -28.900;    0.000;16354.26035
 525.41;16428.641;  -26.930;    0.000;16455.57063
 525.70;16555.961;  -39.770;    0.000;16595.73094
 525.98;16665.340;  -28.770;    0.000;16694.10984
 526.26;16810.359;  -28.530;    0.000;16838.88938
 526.54;16895.080;  -37.240;    0.000;16932.32008
 526.83;16952.939;  -31.260;    0.000;16984.19945
 527.11;17134.561;  -29.840;    0.000;17164.40055
 527.39;17287.939;  -27.920;    0.000;17315.85945
 527.67;17335.039;  -33.060;    0.000;17368.09906
 527.96;17446.779;  -33.590;    0.000;17480.36930
 528.24;17605.699;  -30.660;    0.000;17636.35922
 528.52;17767.000;  -24.870;    0.000;17791.87000
 528.80;17851.641;  -28.750;    0.000;17880.39063
 529.08;17951.961;  -34.880;    0.000;17986.84094
 529.37;18009.939;  -25.970;    0.000;18035.90945
 529.65;18108.301;  -21.850;    0.000;18130.15078
 529.93;18288.740;  -27.970;    0.000;18316.71023
 530.21;18348.039;  -33.080;    0.000;18381.11906
 530.50;18536.020;  -30.560;    0.000;18566.57953
 530.78;18517.439;  -27.290;    0.000;18544.72945
 531.06;18642.561;  -32.640;    0.000;18675.20055
 531.34;18721.480;  -31.410;    0.000;18752.89047
 531.62;18853.279;  -29.810;    0.000;18883.08930
 531.91;18888.500;  -33.270;    0.000;18921.77000
 532.19;18969.840;  -28.780;    0.000;18998.61984
 532.47;19153.119;  -30.330;    0.000;19183.44914
 532.75;19231.381;  -25.280;    0.000;19256.66086
 533.03;19361.840;  -26.860;    0.000;19388.69984
 533.32;19391.180;  -23.280;    0.000;19414.45969
 533.60;19466.020;  -34.090;    0.000;19500.10953
 533.88;19554.320;  -20.750;    0.000;19575.07031
 534.16;19657.980;  -30.960;    0.000;19688.94047
 534.44;19759.660;  -26.490;    0.000;19786.15016
 534.72;19778.680;  -32.560;    0.000;19811.23969
 535.01;19887.801;  -25.270;    0.000;19913.07078
 535.29;20015.939;  -23.350;    0.000;20039.28945
 535.57;19969.359;  -25.910;    0.000;19995.26937
 535.85;20050.180;  -23.170;    0.000;20073.34969
 536.13;20252.760;  -28.940;    0.000;20281.69977
 536.42;20311.260;  -27.660;    0.000;20338.91977
 536.70;20404.340;  -35.120;    0.000;20439.45984
 536.98;20492.740;  -22.910;    0.000;20515.65023
 537.26;20549.061;  -19.290;    0.000;20568.35055
 537.54;20676.539;  -26.340;    0.000;20702.87906
 537.82;20642.340;  -21.930;    0.000;20664.26984
 538.10;20818.660;  -27.700;    0.000;20846.36016
 538.39;20801.461;  -28.600;    0.000;20830.06094
 538.67;20907.199;  -27.310;    0.000;20934.50922
 538.95;21012.420;  -30.120;    0.000;21042.53992
 539.23;21000.840;  -22.970;    0.000;21023.80984
 539.51;21095.801;  -22.060;    0.000;21117.86078
 539.79;21166.600;  -26.640;    0.000;21193.23961
 540.07;21191.260;  -22.100;    0.000;21213.35977
 540.36;21217.039;  -30.750;    0.000;21247.78906
 540.64;21394.539;  -22.510;    0.000;21417.04906
 540.92;21394.680;  -30.820;    0.000;21425.49969
 541.20;21519.119;  -29.640;    0.000;21548.75914
 541.48;21627.760;  -12.470;    0.000;21640.22977
 541.76;21672.301;  -26.780;    0.000;21699.08078
 542.04;21727.141;  -23.270;    0.000;21750.41063
 542.32;21775.320;  -24.220;    0.000;21799.54031
 542.61;21836.340;  -33.520;    0.000;21869.85984
 542.89;21874.820;  -17.240;    0.000;21892.06031
 543.17;21908.539;  -25.240;    0.000;21933.77906
 543.45;22025.221;  -24.660;    0.000;22049.88070
 543.73;22076.439;  -28.070;    0.000;22104.50945
 544.01;22054.619;  -29.250;    0.000;22083.86914
 544.29;22213.520;  -19.640;    0.000;22233.15953
 544.57;22142.100;  -34.410;    0.000;22176.50961
 544.85;22279.699;  -23.490;    0.000;22303.18922
 545.13;22287.061;  -25.150;    0.000;22312.21055
 545.42;22317.740;  -24.120;    0.000;22341.86024
 545.70;22457.900;  -20.880;    0.000;22478.78039
 545.98;22432.301;  -22.690;    0.000;22454.99078
 546.26;22484.240;  -22.680;    0.000;22506.92023
 546.54;22572.119;  -26.680;    0.000;22598.79914
 546.82;22532.840;  -22.560;    0.000;22555.39984
 547.10;22510.180;  -25.490;    0.000;22535.66969
 547.38;22570.980;  -18.460;    0.000;22589.44047
 547.66;22616.500;  -24.450;    0.000;22640.95000
 547.94;22699.039;  -22.110;    0.000;22721.14906
 548.22;22652.381;  -28.020;    0.000;22680.40086
 548.50;22734.820;  -35.840;    0.000;22770.66031
 548.78;22756.039;  -28.210;    0.000;22784.24906
 549.06;22759.221;  -25.700;    0.000;22784.92070
 549.34;22779.221;  -30.930;    0.000;22810.15070
 549.63;22818.100;  -17.470;    0.000;22835.56961
 549.91;22858.539;  -26.020;    0.000;22884.55906
 550.19;22890.500;  -30.840;    0.000;22921.34000
 550.47;22871.381;  -33.570;    0.000;22904.95086
 550.75;22918.480;  -29.150;    0.000;22947.63047
 551.03;22955.160;  -31.230;    0.000;22986.39016
 551.31;23076.561;  -27.700;    0.000;23104.26055
 551.59;23078.801;  -27.320;    0.000;23106.12078
 551.87;22993.340;  -25.060;    0.000;23018.39984
 552.15;23052.119;  -29.650;    0.000;23081.76914
 552.43;23001.840;  -17.690;    0.000;23019.52984
 552.71;23065.500;  -26.730;    0.000;23092.23000
 552.99;23055.760;  -27.320;    0.000;23083.07977
 553.27;23089.260;  -33.900;    0.000;23123.15977
 553.55;23143.480;  -29.130;    0.000;23172.61047
 553.83;23207.619;  -34.100;    0.000;23241.71914
 554.11;23120.080;  -29.070;    0.000;23149.15008
 554.39;23186.561;  -17.350;    0.000;23203.91055
 554.67;23230.301;  -31.140;    0.000;23261.44078
 554.95;23207.000;  -15.790;    0.000;23222.79000
 555.23;23171.061;  -19.190;    0.000;23190.25055
 555.51;23092.680;  -23.860;    0.000;23116.53969
 555.79;23147.160;  -26.610;    0.000;23173.77016
 556.07;23106.801;  -33.750;    0.000;23140.55078
 556.35;23134.020;  -33.080;    0.000;23167.09953
 556.63;23169.561;  -23.190;    0.000;23192.75055
 556.91;23099.240;  -20.140;    0.000;23119.38023
 557.19;23120.221;  -33.420;    0.000;23153.64070
 557.47;23171.561;  -26.860;    0.000;23198.42055
 557.75;23087.600;  -27.600;    0.000;23115.19961
 558.03;23243.039;  -23.720;    0.000;23266.75906
 558.31;23155.480;  -32.820;    0.000;23188.30047
 558.59;23141.381;  -28.200;    0.000;23169.58086
 558.87;23160.119;  -31.300;    0.000;23191.41914
 559.15;23140.221;  -29.920;    0.000;23170.14070
 559.43;23195.221;  -31.700;    0.000;23226.92070
 559.71;23136.801;  -29.390;    0.000;23166.19078
 559.99;23137.420;  -29.950;    0.000;23167.36992
 560.27;23125.721;  -31.860;    0.000;23157.58070
 560.55;23057.760;  -27.330;    0.000;23085.08977
 560.82;23186.301;  -30.590;    0.000;23216.89078
 561.10;23127.561;  -35.810;    0.000;23163.37055
 561.38;23061.240;  -27.550;    0.000;23088.79023
 561.66;23000.340;  -27.770;    0.000;23028.10984
 561.94;23035.900;  -36.790;    0.000;23072.69039
 562.22;23027.340;  -29.270;    0.000;23056.60984
 562.50;22964.760;  -25.730;    0.000;22990.48977
 562.78;22964.881;  -28.210;    0.000;22993.09086
 563.06;23015.381;  -32.200;    0.000;23047.58086
 563.34;22920.760;  -32.310;    0.000;22953.06977
 563.62;22898.260;  -26.420;    0.000;22924.67977
 563.90;22881.680;  -33.310;    0.000;22914.98969
 564.18;22849.561;  -30.050;    0.000;22879.61055
 564.46;22793.240;  -33.070;    0.000;22826.31023
 564.74;22719.920;  -26.370;    0.000;22746.28992
 565.01;22773.721;  -34.630;    0.000;22808.35070
 565.29;22695.801;  -30.890;    0.000;22726.69078
 565.57;22571.000;  -27.770;    0.000;22598.77000
 565.85;22608.180;  -26.540;    0.000;22634.71969
 566.13;22497.160;  -35.020;    0.000;22532.18016
 566.41;22499.080;  -27.970;    0.000;22527.05008
 566.69;22496.439;  -26.850;    0.000;22523.28945
 566.97;22467.381;  -35.710;    0.000;22503.09086
 567.25;22472.520;  -26.920;    0.000;22499.43953
 567.53;22429.061;  -31.550;    0.000;22460.61055
 567.80;22376.961;  -29.830;    0.000;22406.79094
 568.08;22300.920;  -23.950;    0.000;22324.86992
 568.36;22212.420;  -39.610;    0.000;22252.02992
 568.64;22136.359;  -31.690;    0.000;22168.04938
 568.92;22203.900;  -24.250;    0.000;22228.15039
 569.20;22109.900;  -32.220;    0.000;22142.12039
 569.48;22067.680;  -33.550;    0.000;22101.22969
 569.76;22026.240;  -41.820;    0.000;22068.06023
 570.03;21970.900;  -26.520;    0.000;21997.42039
 570.31;21903.061;  -33.390;    0.000;21936.45055
 570.59;21946.580;  -29.380;    0.000;21975.96008
 570.87;21783.301;  -30.810;    0.000;21814.11078
 571.15;21761.439;  -35.650;    0.000;21797.08945
 571.43;21640.779;  -28.530;    0.000;21669.30930
 571.71;21611.400;  -40.130;    0.000;21651.53039
 571.98;21564.561;  -30.700;    0.000;21595.26055
 572.26;21510.641;  -33.520;    0.000;21544.16063
 572.54;21475.381;  -36.750;    0.000;21512.13086
 572.82;21427.461;  -35.020;    0.000;21462.48094
 573.10;21352.199;  -32.420;    0.000;21384.61922
 573.38;21293.439;  -33.880;    0.000;21327.31945
 573.66;21176.961;  -34.190;    0.000;21211.15094
 573.93;21167.580;  -33.870;    0.000;21201.45008
 574.21;21171.980;  -31.820;    0.000;21203.80047
 574.49;21021.641;  -31.910;    0.000;21053.55062
 574.77;20983.820;  -29.890;    0.000;21013.71031
 575.05;20965.260;  -22.870;    0.000;20988.12977
 575.33;20864.420;  -31.620;    0.000;20896.03992
 575.60;20830.680;  -29.990;    0.000;20860.66969
 575.88;20725.400;  -30.640;    0.000;20756.04039
 576.16;20624.920;  -31.370;    0.000;20656.28992
 576.44;20567.039;  -30.170;    0.000;20597.20906
 576.72;20540.900;  -30.330;    0.000;20571.23039
 576.99;20394.461;  -35.380;    0.000;20429.84094
 577.27;20423.020;  -32.010;    0.000;20455.02953
 577.55;20296.539;  -20.740;    0.000;20317.27906
 577.83;20217.859;  -38.350;    0.000;20256.20937
 578.11;20235.980;  -30.600;    0.000;20266.58047
 578.38;20038.180;  -33.300;    0.000;20071.47969
 578.66;19968.080;  -33.190;    0.000;20001.27008
 578.94;19968.420;  -34.250;    0.000;20002.66992
 579.22;19858.301;  -36.890;    0.000;19895.19078
 579.50;19813.100;  -16.500;    0.000;19829.59961
 579.77;19774.920;  -27.820;    0.000;19802.73992
 580.05;19626.221;  -33.860;    0.000;19660.08070
 580.33;19571.600;  -36.230;    0.000;19607.82961
 580.61;19460.641;  -31.810;    0.000;19492.45062
 580.88;19430.580;  -31.550;    0.000;19462.13008
 581.16;19340.760;  -30.380;    0.000;19371.13976
 581.44;19218.320;  -26.740;    0.000;19245.06031
 581.72;19150.221;  -36.870;    0.000;19187.09070
 581.99;19159.039;  -28.000;    0.000;19187.03906
 582.27;18983.900;  -32.620;    0.000;19016.52039
 582.55;18905.100;  -39.650;    0.000;18944.74961
 582.83;18877.020;  -31.420;    0.000;18908.43953
 583.10;18758.000;  -34.040;    0.000;18792.04000
 583.38;18576.100;  -33.790;    0.000;18609.88961
 583.66;18528.980;  -23.360;    0.000;18552.34047
 583.94;18506.760;  -37.120;    0.000;18543.87976
 584.21;18376.779;  -36.200;    0.000;18412.97930
 584.49;18239.119;  -31.210;    0.000;18270.32914
 584.77;18157.721;  -41.490;    0.000;18199.21070
 585.05;18102.600;  -41.880;    0.000;18144.47961
 585.32;18040.939;  -40.900;    0.000;18081.83945
 585.60;17968.180;  -35.320;    0.000;18003.49969
 585.88;17869.920;  -36.100;    0.000;17906.01992
 586.16;17700.680;  -33.460;    0.000;17734.13969
 586.43;17662.961;  -23.040;    0.000;17686.00094
 586.71;17569.641;  -33.020;    0.000;17602.66063
 586.99;17435.619;  -38.700;    0.000;17474.31914
 587.26;17388.561;  -39.100;    0.000;17427.66055
 587.54;17328.141;  -29.820;    0.000;17357.96062
 587.82;17173.561;  -31.730;    0.000;17205.29055
 588.10;17084.221;  -35.850;    0.000;17120.07070
 588.37;17030.141;  -41.630;    0.000;17071.77063
 588.65;16934.420;  -32.470;    0.000;16966.88992
 588.93;16821.939;  -32.150;    0.000;16854.08945
 589.20;16705.400;  -34.030;    0.000;16739.43039
 589.48;16604.199;  -34.930;    0.000;16639.12922
 589.76;16560.939;  -15.830;    0.000;16576.76945
 590.03;16385.520;  -40.290;    0.000;16425.80953
 590.31;16370.860;  -33.480;    0.000;16404.34035
 590.59;16285.100;  -33.000;    0.000;16318.09961
 590.86;16159.060;  -31.500;    0.000;16190.55957
 591.14;16078.300;  -37.450;    0.000;16115.74981
 591.42;15928.880;  -37.920;    0.000;15966.79988
 591.70;15849.260;  -32.300;    0.000;15881.55976
 591.97;15724.100;  -26.470;    0.000;15750.56961
 592.25;15682.980;  -31.490;    0.000;15714.47047
 592.53;15557.960;  -39.370;    0.000;15597.32996
 592.80;15437.000;  -30.970;    0.000;15467.97000
 593.08;15365.520;  -28.190;    0.000;15393.70953
 593.36;15280.240;  -33.690;    0.000;15313.93023
 593.63;15238.480;  -28.510;    0.000;15266.99047
 593.91;15110.020;  -39.300;    0.000;15149.31953
 594.18;15035.000;  -30.740;    0.000;15065.74000
 594.46;14894.400;  -37.200;    0.000;14931.60039
 594.74;14873.600;  -35.270;    0.000;14908.86961
 595.01;14658.320;  -39.910;    0.000;14698.23031
 595.29;14659.480;  -37.830;    0.000;14697.31047
 595.57;14479.060;  -30.310;    0.000;14509.36957
 595.84;14414.980;  -34.070;    0.000;14449.05047
 596.12;14326.200;  -35.950;    0.000;14362.15020
 596.40;14185.280;  -47.400;    0.000;14232.68027
 596.67;14123.920;  -33.240;    0.000;14157.15992
 596.95;13987.840;  -31.840;    0.000;14019.67984
 597.22;13889.960;  -42.200;    0.000;13932.15996
 597.50;13811.640;  -33.310;    0.000;13844.94965
 597.78;13674.640;  -35.870;    0.000;13710.50965
 598.05;13591.740;  -42.370;    0.000;13634.11023
 598.33;13518.860;  -31.360;    0.000;13550.22035
 598.61;13450.280;  -34.100;    0.000;13484.38027
 598.88;13329.140;  -43.010;    0.000;13372.14965
 599.16;13313.720;  -38.270;    0.000;13351.98973
 599.43;13117.280;  -44.250;    0.000;13161.53027
 599.71;13057.020;  -31.350;    0.000;13088.36953
 599.99;12989.380;  -40.440;    0.000;13029.81988
 600.26;12865.940;  -34.480;    0.000;12900.42043
 600.54;12767.000;  -35.880;    0.000;12802.88000
 600.81;12694.960;  -30.800;    0.000;12725.75996
 601.09;12538.880;  -38.420;    0.000;12577.29988
 601.36;12493.540;  -43.640;    0.000;12537.18004
 601.64;12431.260;  -36.270;    0.000;12467.52977
 601.92;12303.760;  -40.290;    0.000;12344.04977
 602.19;12192.320;  -43.490;    0.000;12235.81031
 602.47;12089.920;  -41.720;    0.000;12131.63992
 602.74;12060.220;  -33.580;    0.000;12093.79973
 603.02;11956.380;  -30.880;    0.000;11987.25988
 603.29;11885.520;  -30.150;    0.000;11915.66953
 603.57;11780.940;  -38.680;    0.000;11819.62043
 603.85;11738.160;  -36.240;    0.000;11774.40016
 604.12;11664.080;  -25.740;    0.000;11689.82008
 604.40;11602.380;  -37.040;    0.000;11639.41988
 604.67;11498.500;  -31.720;    0.000;11530.22000
 604.95;11395.640;  -36.850;    0.000;11432.48965
 605.22;11332.880;  -36.400;    0.000;11369.27988
 605.50;11216.920;  -42.480;    0.000;11259.39992
 605.77;11152.660;  -37.250;    0.000;11189.91016
 606.05;11056.700;  -39.640;    0.000;11096.34019
 606.33;11049.840;  -35.100;    0.000;11084.93984
 606.60;10930.380;  -44.280;    0.000;10974.65988
 606.88;10885.000;  -33.550;    0.000;10918.55000
 607.15;10769.460;  -35.810;    0.000;10805.26996
 607.43;10690.800;  -38.570;    0.000;10729.36980
 607.70;10645.420;  -33.540;    0.000;10678.95992
 607.98;10563.780;  -38.040;    0.000;10601.82027
 608.25;10477.220;  -39.360;    0.000;10516.57973
 608.53;10424.720;  -46.700;    0.000;10471.41973
 608.80;10371.060;  -39.200;    0.000;10410.25957
 609.08;10320.120;  -41.820;    0.000;10361.94012
 609.35;10172.280;  -35.520;    0.000;10207.80027
 609.63;10158.220;  -44.390;    0.000;10202.60973
 609.90;10096.580;  -36.930;    0.000;10133.51008
 610.18;10058.660;  -28.100;    0.000;10086.76016
 610.45; 9974.960;  -47.230;    0.000;10022.18996
 610.73; 9907.120;  -40.590;    0.000;9947.71012
 611.00; 9888.080;  -28.940;    0.000;9917.02008
 611.28; 9792.080;  -41.770;    0.000;9833.85008
 611.55; 9647.580;  -47.150;    0.000;9694.73008
 611.83; 9659.920;  -42.410;    0.000;9702.32992
 612.10; 9596.620;  -47.870;    0.000;9644.49012
 612.38; 9501.300;  -43.330;    0.000;9544.62981
 612.65; 9514.280;  -38.760;    0.000;9553.04027
 612.93; 9391.880;  -46.440;    0.000;9438.31988
 613.20; 9389.060;  -40.520;    0.000;9429.57957
 613.48; 9291.640;  -42.680;    0.000;9334.31965
 613.75; 9249.340;  -49.140;    0.000;9298.47984
 614.03; 9187.660;  -35.760;    0.000;9223.42015
 614.30; 9153.740;  -49.280;    0.000;9203.02023
 614.57; 9131.960;  -47.070;    0.000;9179.02996
 614.85; 9094.160;  -40.710;    0.000;9134.87016
 615.12; 9007.320;  -40.130;    0.000;9047.45031
 615.40; 8939.320;  -45.350;    0.000;8984.67031
 615.67; 8963.140;  -41.120;    0.000;9004.25965
 615.95; 8846.620;  -42.780;    0.000;8889.40012
 616.22; 8773.960;  -39.310;    0.000;8813.26996
 616.50; 8753.460;  -36.190;    0.000;8789.64996
 616.77; 8655.600;  -39.210;    0.000;8694.80961
 617.05; 8581.420;  -40.130;    0.000;8621.54992
 617.32; 8523.300;  -41.510;    0.000;8564.80980
 617.59; 8439.700;  -39.270;    0.000;8478.97020
 617.87; 8388.780;  -46.440;    0.000;8435.22027
 618.14; 8238.620;  -39.430;    0.000;8278.05012
 618.42; 8207.740;  -48.270;    0.000;8256.01023
 618.69; 8103.680;  -42.280;    0.000;8145.96017
 618.97; 8006.360;  -50.160;    0.000;8056.51986
 619.24; 7971.760;  -46.580;    0.000;8018.33977
 619.51; 7780.020;  -37.650;    0.000;7817.67002
 619.79; 7705.020;  -40.650;    0.000;7745.67002
 620.06; 7550.020;  -36.470;    0.000;7586.49002
 620.34; 7397.620;  -42.190;    0.000;7439.81012
 620.61; 7302.760;  -36.840;    0.000;7339.59977
 620.88; 7273.500;  -52.820;    0.000;7326.32000
 621.16; 7318.960;  -38.520;    0.000;7357.47996
 621.43; 7452.760;  -40.070;    0.000;7492.82977
 621.71; 7418.800;  -40.440;    0.000;7459.23980
 621.98; 7335.580;  -42.920;    0.000;7378.50008
 622.25; 7270.460;  -42.110;    0.000;7312.56996
 622.53; 7236.920;  -43.900;    0.000;7280.81992
 622.80; 7224.920;  -48.280;    0.000;7273.19992
 623.08; 7127.700;  -48.410;    0.000;7176.11020
 623.35; 7072.500;  -42.130;    0.000;7114.63000
 623.62; 7078.780;  -41.870;    0.000;7120.64978
 623.90; 6999.580;  -44.400;    0.000;7043.98008
 624.17; 6977.520;  -45.690;    0.000;7023.21002
 624.44; 6904.820;  -37.610;    0.000;6942.42982
 624.72; 6857.420;  -46.110;    0.000;6903.52992
 624.99; 6867.800;  -46.780;    0.000;6914.57980
 625.26; 6915.780;  -48.840;    0.000;6964.61979
 625.54; 6945.200;  -34.500;    0.000;6979.70020
 625.81; 6918.620;  -39.400;    0.000;6958.02012
 626.09; 6939.840;  -42.260;    0.000;6982.09984
 626.36; 6927.080;  -45.970;    0.000;6973.05008
 626.63; 6879.000;  -41.260;    0.000;6920.26000
 626.91; 6878.760;  -45.500;    0.000;6924.25977
 627.18; 6875.200;  -36.360;    0.000;6911.56020
 627.45; 6841.800;  -44.240;    0.000;6886.03981
 627.73; 6804.760;  -37.730;    0.000;6842.48977
 628.00; 6794.740;  -50.130;    0.000;6844.87024
 628.27; 6766.120;  -40.330;    0.000;6806.45012
 628.55; 6725.640;  -44.630;    0.000;6770.27014
 628.82; 6717.680;  -48.870;    0.000;6766.55017
 629.09; 6685.080;  -49.850;    0.000;6734.93008
 629.37; 6630.480;  -48.480;    0.000;6678.95998
 629.64; 6658.940;  -48.280;    0.000;6707.21994
 629.91; 6609.860;  -45.620;    0.000;6655.47986
 630.18; 6608.540;  -51.830;    0.000;6660.37004
 630.46; 6586.940;  -36.850;    0.000;6623.78994
 630.73; 6539.520;  -39.860;    0.000;6579.38002
 631.00; 6486.660;  -47.900;    0.000;6534.56016
 631.28; 6471.240;  -49.040;    0.000;6520.28024
 631.55; 6423.480;  -43.760;    0.000;6467.23998
 631.82; 6446.980;  -44.290;    0.000;6491.26998
 632.10; 6461.040;  -39.890;    0.000;6500.93004
 632.37; 6383.160;  -43.540;    0.000;6426.70016
 632.64; 6394.960;  -40.290;    0.000;6435.24996
 632.91; 6343.160;  -40.250;    0.000;6383.41016
 633.19; 6327.700;  -41.720;    0.000;6369.42020
 633.46; 6284.080;  -51.730;    0.000;6335.81008
 633.73; 6269.420;  -38.000;    0.000;6307.41992
 634.01; 6213.860;  -45.300;    0.000;6259.15986
 634.28; 6246.940;  -41.280;    0.000;6288.21994
 634.55; 6237.120;  -41.150;    0.000;6278.27012
 634.82; 6214.240;  -47.530;    0.000;6261.77023
 635.10; 6188.000;  -39.270;    0.000;6227.27000
 635.37; 6172.060;  -47.120;    0.000;6219.18006
 635.64; 6187.540;  -54.360;    0.000;6241.90004
 635.91; 6158.920;  -48.020;    0.000;6206.93992
 636.19; 6189.300;  -44.600;    0.000;6233.89980
 636.46; 6168.540;  -48.800;    0.000;6217.34004
 636.73; 6177.740;  -39.570;    0.000;6217.31023
 637.00; 6159.460;  -42.160;    0.000;6201.61996
 637.28; 6173.700;  -50.320;    0.000;6224.02020
 637.55; 6193.900;  -43.570;    0.000;6237.46990
 637.82; 6088.120;  -46.760;    0.000;6134.88012
 638.09; 5963.540;  -39.060;    0.000;6002.60004
 638.37; 5855.960;  -46.470;    0.000;5902.42996
 638.64; 5836.280;  -47.310;    0.000;5883.58979
 638.91; 5847.880;  -41.310;    0.000;5889.18988
 639.18; 5794.040;  -43.470;    0.000;5837.51004
 639.46; 5775.920;  -48.390;    0.000;5824.30992
 639.73; 5670.000;  -39.780;    0.000;5709.78000
 640.00; 5702.040;  -45.530;    0.000;5747.57004
 640.27; 5677.920;  -46.560;    0.000;5724.47992
 640.54; 5592.220;  -51.660;    0.000;5643.88021
 640.82; 5599.320;  -48.560;    0.000;5647.87983
 641.09; 5558.820;  -48.760;    0.000;5607.57982
 641.36; 5513.160;  -46.200;    0.000;5559.36016
 641.63; 5454.740;  -55.600;    0.000;5510.34023
 641.91; 5381.580;  -46.400;    0.000;5427.98008
 642.18; 5330.480;  -52.210;    0.000;5382.68998
 642.45; 5238.900;  -52.490;    0.000;5291.38990
 642.72; 5196.100;  -53.360;    0.000;5249.46010
 642.99; 5177.820;  -36.570;    0.000;5214.38982
 643.26; 5140.600;  -47.650;    0.000;5188.25010
 643.54; 5078.540;  -40.710;    0.000;5119.25004
 643.81; 5079.060;  -55.630;    0.000;5134.69006
 644.08; 4989.340;  -47.930;    0.000;5037.26984
 644.35; 4989.180;  -48.850;    0.000;5038.03017
 644.62; 4923.660;  -49.000;    0.000;4972.66016
 644.90; 4910.740;  -43.820;    0.000;4954.56023
 645.17; 4849.180;  -51.370;    0.000;4900.55017
 645.44; 4854.200;  -47.130;    0.000;4901.33020
 645.71; 4806.100;  -49.200;    0.000;4855.30010
 645.98; 4799.840;  -46.690;    0.000;4846.52984
 646.25; 4765.740;  -46.940;    0.000;4812.68023
 646.53; 4733.700;  -50.370;    0.000;4784.07019
 646.80; 4716.180;  -42.780;    0.000;4758.96017
 647.07; 4679.660;  -59.170;    0.000;4738.83015
 647.34; 4618.880;  -47.590;    0.000;4666.46988
 647.61; 4613.500;  -45.690;    0.000;4659.19000
 647.88; 4584.380;  -38.410;    0.000;4622.78988
 648.15; 4538.000;  -51.900;    0.000;4589.90000
 648.43; 4575.660;  -52.460;    0.000;4628.12016
 648.70; 4533.280;  -50.870;    0.000;4584.14978
 648.97; 4450.720;  -44.090;    0.000;4494.81021
 649.24; 4433.300;  -46.570;    0.000;4479.86980
 649.51; 4400.740;  -56.440;    0.000;4457.18023
 649.78; 4353.760;  -48.510;    0.000;4402.26976
 650.05; 4360.160;  -44.310;    0.000;4404.47016
 650.32; 4406.760;  -21.090;    0.000;4427.84977
 650.60; 4313.900;  -47.320;    0.000;4361.21990
 650.87; 4280.520;  -50.640;    0.000;4331.16002
 651.14; 4252.900;  -54.410;    0.000;4307.30990
 651.41; 4226.100;  -54.500;    0.000;4280.60010
 651.68; 4174.500;  -50.510;    0.000;4225.01000
 651.95; 4187.900;  -48.670;    0.000;4236.56990
 652.22; 4154.760;  -53.000;    0.000;4207.75977
 652.49; 4111.520;  -58.480;    0.000;4170.00002
 652.76; 4100.040;  -53.540;    0.000;4153.58004
 653.03; 4062.640;  -48.460;    0.000;4111.09989
 653.31; 4030.720;  -50.850;    0.000;4081.56997
 653.58; 3994.760;  -50.660;    0.000;4045.42001
 653.85; 4006.540;  -53.770;    0.000;4060.31004
 654.12; 3979.880;  -52.700;    0.000;4032.57988
 654.39; 3939.100;  -49.080;    0.000;3988.18010
 654.66; 3912.980;  -44.350;    0.000;3957.32998
 654.93; 3901.500;  -40.020;    0.000;3941.52000
 655.20; 3857.840;  -51.700;    0.000;3909.54009
 655.47; 3844.480;  -52.020;    0.000;3896.49998
 655.74; 3844.640;  -46.170;    0.000;3890.80989
 656.01; 3760.960;  -53.270;    0.000;3814.22996
 656.28; 3779.220;  -53.920;    0.000;3833.13997
 656.55; 3750.960;  -44.780;    0.000;3795.73996
 656.83; 3722.960;  -54.700;    0.000;3777.65996
 657.10; 3665.800;  -54.950;    0.000;3720.75005
 657.37; 3662.240;  -45.470;    0.000;3707.70999
 657.64; 3647.520;  -50.040;    0.000;3697.56002
 657.91; 3604.240;  -54.530;    0.000;3658.76999
 658.18; 3595.720;  -48.090;    0.000;3643.80997
 658.45; 3620.820;  -53.800;    0.000;3674.62007
 658.72; 3574.440;  -49.560;    0.000;3623.99994
 658.99; 3517.960;  -52.810;    0.000;3570.76996
 659.26; 3532.660;  -44.460;    0.000;3577.11991
 659.53; 3478.880;  -53.390;    0.000;3532.26988
 659.80; 3446.560;  -50.980;    0.000;3497.54006
 660.07; 3483.120;  -41.400;    0.000;3524.52012
 660.34; 3433.440;  -52.590;    0.000;3486.02994
 660.61; 3397.320;  -54.010;    0.000;3451.33007
 660.88; 3373.360;  -49.010;    0.000;3422.37011
 661.15; 3334.260;  -45.510;    0.000;3379.77001
 661.42; 3334.320;  -52.000;    0.000;3386.32007
 661.69; 3327.980;  -51.660;    0.000;3379.63998
 661.96; 3284.660;  -53.540;    0.000;3338.19991
 662.23; 3260.020;  -54.210;    0.000;3314.23002
 662.50; 3239.060;  -55.200;    0.000;3294.26006
 662.77; 3221.880;  -57.340;    0.000;3279.21988
 663.04; 3181.400;  -55.460;    0.000;3236.85990
 663.31; 3189.320;  -53.020;    0.000;3242.34007
 663.58; 3156.940;  -53.790;    0.000;3210.72994
 663.85; 3145.200;  -48.190;    0.000;3193.38995
 664.12; 3106.980;  -49.170;    0.000;3156.14998
 664.39; 3080.820;  -57.490;    0.000;3138.31007
 664.66; 3077.780;  -56.420;    0.000;3134.20003
 664.93; 3031.920;  -57.810;    0.000;3089.72992
 665.20; 3027.220;  -45.510;    0.000;3072.72997
 665.47; 3056.640;  -47.500;    0.000;3104.13989
 665.74; 2999.420;  -56.240;    0.000;3055.65992
 666.01; 2975.020;  -52.970;    0.000;3027.99002
 666.28; 2946.900;  -53.610;    0.000;3000.50990
 666.55; 2947.840;  -48.340;    0.000;2996.18009
 666.82; 2898.940;  -58.560;    0.000;2957.49994
 667.09; 2910.620;  -54.770;    0.000;2965.39012
 667.36; 2885.220;  -51.960;    0.000;2937.17997
 667.63; 2880.100;  -48.120;    0.000;2928.22010
 667.90; 2817.500;  -50.500;    0.000;2868.00000
 668.16; 2799.820;  -51.760;    0.000;2851.58007
 668.43; 2765.340;  -52.290;    0.000;2817.63009
 668.70; 2773.380;  -50.190;    0.000;2823.56988
 668.97; 2761.920;  -54.900;    0.000;2816.81992
 669.24; 2751.260;  -50.670;    0.000;2801.93001
 669.51; 2717.800;  -47.280;    0.000;2765.08005
 669.78; 2678.040;  -57.020;    0.000;2735.06004
 670.05; 2658.000;  -53.780;    0.000;2711.78000
 670.32; 2643.160;  -47.630;    0.000;2690.78991
 670.59; 2632.640;  -59.380;    0.000;2692.01989
 670.86; 2613.020;  -54.490;    0.000;2667.51002
 671.13; 2588.060;  -53.370;    0.000;2641.43006
 671.40; 2577.620;  -52.030;    0.000;2629.65012
 671.67; 2563.840;  -50.040;    0.000;2613.88009
 671.93; 2516.360;  -55.350;    0.000;2571.71011
 672.20; 2523.880;  -58.000;    0.000;2581.87988
 672.47; 2534.260;  -49.890;    0.000;2584.15001
 672.74; 2474.060;  -48.940;    0.000;2523.00006
 673.01; 2450.480;  -62.990;    0.000;2513.46998
 673.28; 2431.800;  -53.910;    0.000;2485.71005
 673.55; 2403.000;  -54.610;    0.000;2457.61000
 673.82; 2395.580;  -51.100;    0.000;2446.68008
 674.09; 2424.200;  -52.250;    0.000;2476.44995
 674.35; 2374.620;  -58.740;    0.000;2433.36012
 674.62; 2363.680;  -44.900;    0.000;2408.57993
 674.89; 2351.960;  -53.110;    0.000;2405.06996
 675.16; 2309.000;  -47.910;    0.000;2356.91000
 675.43; 2322.160;  -52.020;    0.000;2374.17991
 675.70; 2335.720;  -36.370;    0.000;2372.08997
 675.97; 2253.120;  -55.340;    0.000;2308.46012
 676.24; 2271.600;  -47.960;    0.000;2319.56010
 676.50; 2201.460;  -59.330;    0.000;2260.78996
 676.77; 2193.940;  -60.020;    0.000;2253.95994
 677.04; 2191.280;  -47.110;    0.000;2238.39003
 677.31; 2163.020;  -55.920;    0.000;2218.94002
 677.58; 2172.520;  -52.120;    0.000;2224.64002
 677.85; 2159.140;  -48.990;    0.000;2208.12989
 678.12; 2135.920;  -52.160;    0.000;2188.07992
 678.38; 2109.260;  -54.140;    0.000;2163.40001
 678.65; 2112.040;  -60.680;    0.000;2172.72004
 678.92; 2080.760;  -53.340;    0.000;2134.10001
 679.19; 2116.440;  -39.870;    0.000;2156.30994
 679.46; 2060.740;  -46.760;    0.000;2107.49999
 679.73; 2059.880;  -59.180;    0.000;2119.05988
 679.99; 2031.520;  -56.270;    0.000;2087.79002
 680.26; 1989.520;  -54.520;    0.000;2044.04002
 680.53; 1979.820;  -59.650;    0.000;2039.46995
 680.80; 1993.100;  -56.750;    0.000;2049.84998
 681.07; 1969.060;  -55.340;    0.000;2024.40006
 681.33; 1956.820;  -54.670;    0.000;2011.48994
 681.60; 1936.640;  -52.230;    0.000;1988.87001
 681.87; 1925.980;  -54.620;    0.000;1980.59998
 682.14; 1928.600;  -52.270;    0.000;1980.86998
 682.41; 1894.880;  -57.990;    0.000;1952.87001
 682.67; 1905.660;  -50.450;    0.000;1956.11003
 682.94; 1859.180;  -59.360;    0.000;1918.54005
 683.21; 1844.880;  -53.700;    0.000;1898.58001
 683.48; 1819.040;  -55.450;    0.000;1874.49004
 683.75; 1829.180;  -47.950;    0.000;1877.13005
 684.01; 1811.800;  -46.370;    0.000;1858.17005
 684.28; 1777.700;  -57.410;    0.000;1835.10995
 684.55; 1812.920;  -54.400;    0.000;1867.32005
 684.82; 1731.760;  -62.610;    0.000;1794.37001
 685.09; 1729.280;  -45.320;    0.000;1774.60003
 685.35; 1750.940;  -50.950;    0.000;1801.88994
 685.62; 1740.500;  -53.810;    0.000;1794.31000
 685.89; 1739.360;  -50.790;    0.000;1790.14999
 686.16; 1701.800;  -60.890;    0.000;1762.69005
 686.42; 1686.340;  -53.860;    0.000;1740.19997
 686.69; 1713.720;  -49.770;    0.000;1763.48997
 686.96; 1651.660;  -58.350;    0.000;1710.01003
 687.23; 1671.380;  -53.370;    0.000;1724.75000
 687.49; 1655.420;  -46.350;    0.000;1701.77004
 687.76; 1630.500;  -56.190;    0.000;1686.69000
 688.03; 1613.700;  -57.270;    0.000;1670.96995
 688.30; 1571.940;  -63.910;    0.000;1635.84994
 688.56; 1574.960;  -49.760;    0.000;1624.71996
 688.83; 1555.640;  -58.260;    0.000;1613.90001
 689.10; 1553.920;  -59.880;    0.000;1613.80005
 689.37; 1542.320;  -60.250;    0.000;1602.56995
 689.63; 1530.160;  -58.120;    0.000;1588.28003
 689.90; 1529.940;  -42.960;    0.000;1572.89994
 690.17; 1517.100;  -57.170;    0.000;1574.26997
 690.44; 1508.360;  -53.100;    0.000;1561.45998
 690.70; 1464.600;  -64.370;    0.000;1528.96998
 690.97; 1473.080;  -52.060;    0.000;1525.13996
 691.24; 1469.380;  -45.640;    0.000;1515.02000
 691.50; 1446.600;  -63.810;    0.000;1510.40998
 691.77; 1429.840;  -61.380;    0.000;1491.21997
 692.04; 1445.320;  -50.390;    0.000;1495.70995
 692.30; 1421.480;  -61.100;    0.000;1482.57998
 692.57; 1414.180;  -55.730;    0.000;1469.91005
 692.84; 1392.780;  -60.990;    0.000;1453.77003
 693.11; 1366.980;  -51.860;    0.000;1418.83998
 693.37; 1372.660;  -50.850;    0.000;1423.51003
 693.64; 1353.660;  -63.550;    0.000;1417.21003
 693.91; 1346.440;  -52.450;    0.000;1398.88994
 694.17; 1325.220;  -52.150;    0.000;1377.36997
 694.44; 1314.140;  -55.600;    0.000;1369.74001
 694.71; 1299.800;  -66.220;    0.000;1366.02005
 694.97; 1291.900;  -60.180;    0.000;1352.08002
 695.24; 1261.460;  -60.420;    0.000;1321.87996
 695.51; 1229.080;  -64.250;    0.000;1293.32996
 695.77; 1246.040;  -53.070;    0.000;1299.11004
 696.04; 1228.420;  -57.450;    0.000;1285.87004
 696.31; 1225.420;  -55.850;    0.000;1281.27004
 696.57; 1241.700;  -48.360;    0.000;1290.05995
 696.84; 1190.400;  -56.540;    0.000;1246.94003
 697.11; 1187.300;  -49.450;    0.000;1236.75005
 697.37; 1181.500;  -52.390;    0.000;1233.89000
 697.64; 1155.400;  -50.550;    0.000;1205.95002
 697.91; 1145.440;  -63.040;    0.000;1208.47994
 698.17; 1140.400;  -58.460;    0.000;1198.86002
 698.44; 1131.840;  -54.420;    0.000;1186.25996
 698.71; 1106.700;  -60.630;    0.000;1167.32995
 698.97; 1097.600;  -56.130;    0.000;1153.72998
 699.24; 1103.480;  -57.190;    0.000;1160.66998
 699.50; 1080.100;  -63.610;    0.000;1143.70998
 699.77; 1055.220;  -63.480;    0.000;1118.69997
 700.04; 1036.060;  -56.390;    0.000;1092.45006
 700.30; 1027.640;  -57.580;    0.000;1085.22002
 700.57; 1010.660;  -57.160;    0.000;1067.81997
 700.84; 1024.760;  -52.700;    0.000;1077.46001
 701.10;  971.380;  -55.650;    0.000;1027.03001
 701.37;  988.560;  -57.060;    0.000;1045.62000
 701.63;  962.680;  -60.840;    0.000;1023.51999
 701.90;  959.400;  -55.460;    0.000;1014.86002
 702.17;  946.480;  -46.530;    0.000;993.00998
 702.43;  924.900;  -56.900;    0.000;981.80003
 702.70;  937.240;  -43.080;    0.000;980.31999
 702.96;  903.920;  -57.550;    0.000;961.46998
 703.23;  873.540;  -63.900;    0.000;937.43998
 703.50;  870.160;  -57.740;    0.000;927.89997
 703.76;  856.480;  -60.140;    0.000;916.61998
 704.03;  844.740;  -62.000;    0.000;906.73999
 704.29;  841.140;  -56.620;    0.000;897.76001
 704.56;  808.420;  -66.340;    0.000;874.75998
 704.82;  796.660;  -61.140;    0.000;857.79997
 705.09;  812.440;  -50.240;    0.000;862.68000
 705.36;  779.940;  -63.730;    0.000;843.67000
 705.62;  812.300;  -45.100;    0.000;857.39999
 705.89;  759.440;  -57.710;    0.000;817.15000
 706.15;  730.660;  -52.660;    0.000;783.31997
 706.42;  749.820;  -49.750;    0.000;799.57001
 706.68;  711.540;  -59.540;    0.000;771.07998
 706.95;  710.560;  -55.380;    0.000;765.94000
 707.21;  701.300;  -63.590;    0.000;764.88999
 707.48;  701.580;  -61.770;    0.000;763.35002
 707.75;  692.860;  -54.600;    0.000;747.45998
 708.01;  669.340;  -64.580;    0.000;733.92003
 708.28;  690.620;  -55.470;    0.000;746.09000
 708.54;  633.300;  -64.490;    0.000;697.78999
 708.81;  646.960;  -52.630;    0.000;699.59002
 709.07;  631.660;  -58.430;    0.000;690.08997
 709.34;  615.160;  -63.150;    0.000;678.30997
 709.60;  609.620;  -59.760;    0.000;669.37999
 709.87;  603.760;  -51.730;    0.000;655.49001
 710.13;  590.600;  -58.250;    0.000;648.84998
 710.40;  573.140;  -67.870;    0.000;641.01002
 710.66;  575.620;  -58.170;    0.000;633.78999
 710.93;  567.700;  -58.390;    0.000;626.09001
 711.19;  561.380;  -60.660;    0.000;622.04000
 711.46;  565.160;  -53.110;    0.000;618.26997
 711.72;  547.500;  -53.100;    0.000;600.60000
 711.99;  553.880;  -64.700;    0.000;618.58000
 712.25;  535.100;  -54.480;    0.000;589.57998
 712.52;  535.820;  -51.400;    0.000;587.22001
 712.78;  520.600;  -54.830;    0.000;575.42998
 713.05;  504.520;  -61.310;    0.000;565.82999
 713.31;  517.820;  -54.880;    0.000;572.70001
 713.58;  499.340;  -56.790;    0.000;556.13000
 713.84;  493.540;  -53.100;    0.000;546.64001
 714.11;  492.400;  -62.430;    0.000;554.82999
 714.37;  501.060;  -52.180;    0.000;553.24000
 714.64;  475.660;  -54.400;    0.000;530.06001
 714.90;  484.540;  -53.310;    0.000;537.85001
 715.17;  461.860;  -57.550;    0.000;519.40998
 715.43;  465.440;  -50.260;    0.000;515.70000
 715.70;  449.940;  -55.710;    0.000;505.65000
 715.96;  448.540;  -54.690;    0.000;503.23001
 716.22;  462.840;  -61.380;    0.000;524.22000
 716.49;  440.240;  -58.790;    0.000;499.02999
 716.75;  423.540;  -62.550;    0.000;486.09001
 717.02;  435.820;  -58.140;    0.000;493.96001
 717.28;  428.420;  -63.690;    0.000;492.11001
 717.55;  426.860;  -62.720;    0.000;489.57999
 717.81;  440.660;  -56.110;    0.000;496.77000
 718.08;  412.040;  -58.860;    0.000;470.90001
 718.34;  434.560;  -65.190;    0.000;499.75000
 718.60;  420.180;  -51.960;    0.000;472.13999
 718.87;  425.060;  -58.480;    0.000;483.54000
 719.13;  427.940;  -63.390;    0.000;491.33000
 719.40;  413.780;  -57.650;    0.000;471.43000
 719.66;  402.160;  -60.260;    0.000;462.42000
 719.93;  425.300;  -56.900;    0.000;482.19999
 720.19;  399.860;  -67.380;    0.000;467.23998
 720.45;  400.960;  -62.750;    0.000;463.70999
 720.72;  416.080;  -57.950;    0.000;474.02999
 720.98;  413.480;  -55.200;    0.000;468.68001
 721.25;  412.000;  -64.310;    0.000;476.31000
 721.51;  387.200;  -68.290;    0.000;455.49001
 721.77;  400.140;  -60.350;    0.000;460.49001
 722.04;  426.920;  -45.030;    0.000;471.95001
 722.30;  418.320;  -55.770;    0.000;474.09001
 722.57;  395.520;  -60.430;    0.000;455.94999
 722.83;  401.880;  -62.410;    0.000;464.29000
 723.09;  385.980;  -64.170;    0.000;450.15001
 723.36;  390.060;  -64.180;    0.000;454.24000
 723.62;  399.840;  -58.620;    0.000;458.46000
 723.88;  387.320;  -56.860;    0.000;444.18001
 724.15;  396.540;  -56.520;    0.000;453.06001
 724.41;  379.340;  -63.620;    0.000;442.96000
 724.68;  365.660;  -62.790;    0.000;428.45000
 724.94;  407.000;  -49.670;    0.000;456.67000
 725.20;  374.200;  -59.760;    0.000;433.96001
 725.47;  371.440;  -61.790;    0.000;433.23000
 725.73;  382.120;  -57.560;    0.000;439.68000
 725.99;  359.060;  -62.280;    0.000;421.34000
 726.26;  383.760;  -48.740;    0.000;432.50001
 726.52;  389.960;  -52.300;    0.000;442.25999
 726.78;  366.980;  -64.050;    0.000;431.03001
 727.05;  372.780;  -58.610;    0.000;431.39000
 727.31;  377.480;  -65.490;    0.000;442.97001
 727.57;  369.480;  -61.120;    0.000;430.60001
 727.84;  379.920;  -54.090;    0.000;434.01001
 728.10;  375.860;  -57.090;    0.000;432.94999
 728.36;  391.420;  -62.130;    0.000;453.55001
 728.63;  371.340;  -64.770;    0.000;436.10999
 728.89;  341.580;  -68.210;    0.000;409.78999
 729.15;  366.320;  -60.940;    0.000;427.26001
 729.42;  356.360;  -64.380;    0.000;420.73998
 729.68;  350.480;  -59.120;    0.000;409.60001
 729.94;  337.800;  -61.710;    0.000;399.50999
 730.21;  350.040;  -63.750;    0.000;413.79001
 730.47;  350.140;  -65.420;    0.000;415.56001
 730.73;  352.560;  -62.120;    0.000;414.68000
 731.00;  338.780;  -57.710;    0.000;396.49000
 731.26;  357.120;  -55.830;    0.000;412.95000
 731.52;  336.560;  -65.480;    0.000;402.04000
 731.78;  334.560;  -64.150;    0.000;398.71000
 732.05;  322.640;  -63.760;    0.000;386.40001
 732.31;  337.540;  -66.150;    0.000;403.69001
 732.57;  325.600;  -62.040;    0.000;387.64001
 732.84;  339.880;  -65.060;    0.000;404.94000
 733.10;  320.280;  -61.680;    0.000;381.96000
 733.36;  321.160;  -65.560;    0.000;386.72000
 733.62;  307.180;  -68.590;    0.000;375.76999
 733.89;  319.720;  -60.690;    0.000;380.41000
 734.15;  325.100;  -62.020;    0.000;387.12001
 734.41;  323.600;  -59.170;    0.000;382.77000
 734.67;  322.640;  -65.610;    0.000;388.25002
 734.94;  299.320;  -64.100;    0.000;363.42001
 735.20;  320.900;  -64.260;    0.000;385.16000
 735.46;  309.800;  -61.760;    0.000;371.55999
 735.73;  314.960;  -62.280;    0.000;377.23999
 735.99;  290.300;  -63.580;    0.000;353.87999
 736.25;  304.300;  -65.330;    0.000;369.62999
 736.51;  288.780;  -64.780;    0.000;353.56000
 736.77;  294.860;  -59.870;    0.000;354.72998
 737.04;  284.280;  -62.400;    0.000;346.68000
 737.30;  277.400;  -60.030;    0.000;337.42999
 737.56;  286.040;  -57.690;    0.000;343.73001
 737.82;  290.160;  -62.400;    0.000;352.56001
 738.09;  287.680;  -61.080;    0.000;348.75999
 738.35;  262.720;  -65.060;    0.000;327.78000
 738.61;  286.820;  -60.770;    0.000;347.59001
 738.87;  280.140;  -61.660;    0.000;341.80001
 739.14;  274.740;  -59.450;    0.000;334.18999
 739.40;  268.140;  -66.620;    0.000;334.76002
 739.66;  265.940;  -65.480;    0.000;331.42001
 739.92;  260.380;  -64.110;    0.000;324.49001
 740.18;  258.760;  -58.910;    0.000;317.67001
 740.45;  257.680;  -66.570;    0.000;324.24999
 740.71;  254.880;  -64.190;    0.000;319.07001
 740.97;  262.860;  -61.620;    0.000;324.47998
 741.23;  247.100;  -64.440;    0.000;311.54001
 741.49;  256.240;  -61.870;    0.000;318.10999
 741.76;  234.740;  -69.670;    0.000;304.41000
 742.02;  235.940;  -70.580;    0.000;306.52000
 742.28;  245.440;  -67.810;    0.000;313.25000
 742.54;  248.440;  -67.320;    0.000;315.76000
 742.80;  242.160;  -66.940;    0.000;309.10001
 743.06;  239.180;  -60.220;    0.000;299.39999
 743.33;  240.760;  -60.250;    0.000;301.00999
 743.59;  219.840;  -71.210;    0.000;291.05000
 743.85;  214.260;  -63.280;    0.000;277.53999
 744.11;  227.560;  -65.520;    0.000;293.07999
 744.37;  237.080;  -63.300;    0.000;300.38000
 744.63;  217.860;  -62.430;    0.000;280.29000
 744.90;  217.680;  -61.300;    0.000;278.97999
 745.16;  214.360;  -61.400;    0.000;275.76000
 745.42;  210.660;  -69.410;    0.000;280.07001
 745.68;  211.840;  -62.770;    0.000;274.61000
 745.94;  218.080;  -54.740;    0.000;272.82000
 746.20;  208.260;  -62.940;    0.000;271.19999
 746.46;  218.040;  -58.490;    0.000;276.52999
 746.72;  216.020;  -60.020;    0.000;276.04000
 746.99;  197.720;  -59.340;    0.000;257.06000
 747.25;  214.480;  -54.110;    0.000;268.59000
 747.51;  185.220;  -63.240;    0.000;248.46000
 747.77;  191.240;  -66.010;    0.000;257.25001
 748.03;  195.100;  -65.590;    0.000;260.69000
 748.29;  191.500;  -63.300;    0.000;254.80000
 748.55;  187.520;  -63.610;    0.000;251.13000
 748.81;  177.860;  -65.400;    0.000;243.26000
 749.08;  194.340;  -61.140;    0.000;255.48000
 749.34;  175.040;  -61.020;    0.000;236.05999
 749.60;  180.420;  -61.090;    0.000;241.51000
 749.86;  178.080;  -62.460;    0.000;240.54000
 750.12;  170.660;  -58.080;    0.000;228.74001
 750.38;  170.880;  -66.740;    0.000;237.62000
 750.64;  144.940;  -64.990;    0.000;209.93000
 750.90;  175.280;  -61.010;    0.000;236.29000
 751.16;  153.060;  -66.030;    0.000;219.09000
 751.42;  156.760;  -63.820;    0.000;220.57999
 751.68;  164.180;  -57.490;    0.000;221.66999
 751.95;  145.000;  -66.360;    0.000;211.36000
 752.21;  157.260;  -68.570;    0.000;225.82999
 752.47;  148.740;  -59.310;    0.000;208.05001
 752.73;  140.880;  -72.150;    0.000;213.03001
 752.99;  144.600;  -62.330;    0.000;206.93001
 753.25;  129.340;  -68.210;    0.000;197.55000
 753.51;  135.120;  -66.540;    0.000;201.66000
 753.77;  152.400;  -65.250;    0.000;217.64999
 754.03;  123.760;  -63.310;    0.000;187.07000
 754.29;  126.980;  -69.830;    0.000;196.81001
 754.55;  128.080;  -73.220;    0.000;201.30000
 754.81;  121.820;  -65.730;    0.000;187.55000
 755.07;  123.280;  -60.480;    0.000;183.76000
 755.33;  126.220;  -68.640;    0.000;194.86000
 755.59;  120.700;  -69.750;    0.000;190.45000
 755.85;  123.400;  -61.550;    0.000;184.95000
 756.11;  120.900;  -66.180;    0.000;187.08000
 756.37;  112.680;  -68.200;    0.000;180.88000
 756.63;  136.060;  -52.880;    0.000;188.94000
 756.89;  105.960;  -77.540;    0.000;183.50000
 757.15;  100.580;  -67.220;    0.000;167.80000
 757.41;  125.680;  -51.850;    0.000;177.53000
 757.68;  107.660;  -69.940;    0.000;177.60001
 757.94;  114.760;  -61.100;    0.000;175.86000
 758.20;  115.160;  -60.850;    0.000;176.01000
 758.46;   99.580;  -65.120;    0.000;164.70000
 758.72;   97.460;  -70.550;    0.000;168.01000
 758.98;  109.340;  -58.450;    0.000;167.79000
 759.24;  113.840;  -62.840;    0.000;176.68000
 759.50;   99.340;  -60.370;    0.000;159.71000
 759.76;  119.020;  -58.150;    0.000;177.17000
 760.02;   89.120;  -64.840;    0.000;153.96000
 760.27;   85.440;  -64.360;    0.000;149.80000
 760.53;   91.720;  -61.770;    0.000;153.49000
 760.79;   99.820;  -58.420;    0.000;158.24000
 761.05;   81.720;  -59.730;    0.000;141.45000
 761.31;   99.360;  -68.970;    0.000;168.33000
 761.57;   98.260;  -64.760;    0.000;163.02000
 761.83;   78.960;  -63.850;    0.000;142.81000
 762.09;   81.640;  -60.800;    0.000;142.44000
 762.35;   84.060;  -73.160;    0.000;157.22000
 762.61;   82.200;  -65.790;    0.000;147.99000
 762.87;   87.580;  -64.790;    0.000;152.37000
 763.13;   69.520;  -65.200;    0.000;134.71999
 763.39;   93.380;  -58.510;    0.000;151.89000
 763.65;   68.960;  -65.790;    0.000;134.75000
 763.91;   70.680;  -68.850;    0.000;139.53000
 764.17;   77.580;  -61.550;    0.000;139.13000
 764.43;   93.740;  -65.120;    0.000;158.86000
 764.69;   65.400;  -67.690;    0.000;133.09000
 764.95;   75.060;  -65.290;    0.000;140.35000
 765.21;   71.580;  -64.710;    0.000;136.29000
 765.47;   77.360;  -60.070;    0.000;137.43000
 765.73;   64.220;  -63.090;    0.000;127.31000
 765.98;   85.020;  -62.060;    0.000;147.08000
 766.24;   58.880;  -71.710;    0.000;130.59000
 766.50;   48.500;  -70.390;    0.000;118.89000
 766.76;   61.940;  -59.140;    0.000;121.08000
 767.02;   67.840;  -67.650;    0.000;135.49000
 767.28;   57.940;  -62.770;    0.000;120.71000
 767.54;   66.240;  -65.130;    0.000;131.37000
 767.80;   57.140;  -67.980;    0.000;125.12000
 768.06;   70.440;  -57.150;    0.000;127.59000
 768.32;   60.020;  -55.090;    0.000;115.11000
 768.58;   55.020;  -72.460;    0.000;127.48000
 768.83;   56.640;  -67.770;    0.000;124.41000
 769.09;   48.980;  -63.610;    0.000;112.59000
 769.35;   62.040;  -63.310;    0.000;125.35000
 769.61;   49.600;  -65.500;    0.000;115.10000
 769.87;   52.020;  -60.230;    0.000;112.25000
 770.13;   69.500;  -65.920;    0.000;135.42000
 770.39;   29.340;  -67.330;    0.000;96.67000
 770.65;   57.480;  -65.630;    0.000;123.11000
 770.90;   46.180;  -71.040;    0.000;117.22000
 771.16;   35.120;  -65.650;    0.000;100.77000
 771.42;   53.580;  -60.610;    0.000;114.19000
 771.68;   39.600;  -72.120;    0.000;111.72000
 771.94;   52.980;  -64.270;    0.000;117.25000
 772.20;   24.000;  -71.570;    0.000;95.57000
 772.46;   28.380;  -70.450;    0.000;98.83000
 772.71;   46.560;  -62.790;    0.000;109.35000
 772.97;   61.900;  -61.450;    0.000;123.35000
 773.23;   41.820;  -66.880;    0.000;108.70000
 773.49;   56.200;  -61.900;    0.000;118.10000
 773.75;   27.780;  -66.690;    0.000;94.47000
 774.01;   20.880;  -66.730;    0.000;87.61000
 774.26;   18.440;  -70.110;    0.000;88.55000
 774.52;   37.620;  -57.630;    0.000;95.25000
 774.78;   20.160;  -67.870;    0.000;88.03000
 775.04;   62.160;  -57.380;    0.000;119.54000
 775.30;   32.640;  -70.620;    0.000;103.26000
 775.56;   21.420;  -62.130;    0.000;83.55000
 775.81;   44.860;  -62.360;    0.000;107.22000
 776.07;   24.200;  -63.320;    0.000;87.52000
 776.33;   27.140;  -66.810;    0.000;93.95000
 776.59;   25.580;  -72.310;    0.000;97.89000
 776.85;   15.580;  -72.330;    0.000;87.91000
 777.10;   31.520;  -66.910;    0.000;98.43000
 777.36;   14.300;  -70.350;    0.000;84.65000
 777.62;   34.840;  -66.270;    0.000;101.11000
 777.88;   11.020;  -66.450;    0.000;77.47000
 778.14;   29.200;  -67.860;    0.000;97.06000
 778.39;   35.420;  -69.450;    0.000;104.87000
 778.65;   34.160;  -66.470;    0.000;100.63000
 778.91;   13.720;  -72.700;    0.000;86.42000
 779.17;   34.780;  -59.560;    0.000;94.34000
 779.42;    1.160;  -73.390;    0.000;74.55000
 779.68;    8.080;  -69.660;    0.000;77.74000
 779.94;   23.880;  -68.700;    0.000;92.58000
 780.20;   16.500;  -73.010;    0.000;89.51000
 780.46;   15.360;  -73.730;    0.000;89.09000
 780.71;   33.420;  -65.500;    0.000;98.92000
 780.97;    9.660;  -67.720;    0.000;77.38000
 781.23;   22.840;  -68.470;    0.000;91.31000
 781.49;   12.620;  -65.070;    0.000;77.69000
 781.74;    2.940;  -62.670;    0.000;65.61000
 782.00;    5.560;  -71.050;    0.000;76.61000
 782.26;   21.500;  -61.940;    0.000;83.44000
 782.52;    5.300;  -67.400;    0.000;72.70000
 782.77;   10.440;  -63.130;    0.000;73.57000
 783.03;   -0.640;  -72.070;    0.000;71.43000
 783.29;    3.520;  -67.470;    0.000;70.99000
 783.54;   -1.180;  -69.510;    0.000;68.33000
 783.80;   22.960;  -61.520;    0.000;84.48000
 784.06;   -1.060;  -72.390;    0.000;71.33000
 784.32;    8.640;  -69.850;    0.000;78.49000
 784.57;   41.720;  -57.390;    0.000;99.11000
 784.83;   -2.860;  -75.500;    0.000;72.64000
 785.09;   -3.040;  -75.670;    0.000;72.63000
 785.34;  -10.860;  -67.830;    0.000;56.97000
 785.60;    7.700;  -68.990;    0.000;76.69000
 785.86;    2.520;  -65.770;    0.000;68.29000
 786.12;    6.000;  -64.000;    0.000;70.00000
 786.37;   27.120;  -58.590;    0.000;85.71000
 786.63;   -8.600;  -70.160;    0.000;61.56000
 786.89;   14.420;  -64.130;    0.000;78.55000
 787.14;    3.400;  -68.600;    0.000;72.00000
 787.40;  -14.980;  -65.120;    0.000;50.14000
 787.66;   -1.640;  -69.570;    0.000;67.93000
 787.91;   22.860;  -54.980;    0.000;77.84000
 788.17;   -5.680;  -74.240;    0.000;68.56000
 788.43;  -17.820;  -65.670;    0.000;47.85000
 788.68;   -6.260;  -66.800;    0.000;60.54000
 788.94;    4.000;  -64.460;    0.000;68.46000
 789.20;   16.300;  -67.690;    0.000;83.99000
 789.45;  -19.820;  -75.860;    0.000;56.04000
 789.71;  -16.420;  -77.270;    0.000;60.85000
 789.97;    8.320;  -62.650;    0.000;70.97000
 790.22;   -2.840;  -70.660;    0.000;67.82000
 790.48;   -6.580;  -66.280;    0.000;59.70000
 790.74;   -1.640;  -69.070;    0.000;67.43000
 790.99;   -2.680;  -67.310;    0.000;64.63000
 791.25;  -18.440;  -72.320;    0.000;53.88000
 791.51;   -5.420;  -69.110;    0.000;63.69000
 791.76;    8.500;  -60.800;    0.000;69.30000
 792.02;  -15.400;  -69.930;    0.000;54.53000
 792.27;   -3.320;  -63.120;    0.000;59.80000
 792.53;   -6.280;  -67.640;    0.000;61.36000
 792.79;   -8.440;  -74.900;    0.000;66.46000
 793.04;  -14.080;  -66.410;    0.000;52.33000
 793.30;  -14.780;  -72.290;    0.000;57.51000
 793.56;   -5.760;  -64.850;    0.000;59.09000
 793.81;    6.340;  -64.930;    0.000;71.27000
 794.07;  -23.200;  -78.310;    0.000;55.11000
 794.32;  -10.040;  -65.850;    0.000;55.81000
 794.58;  -16.900;  -64.290;    0.000;47.39000
 794.84;  -14.120;  -73.370;    0.000;59.25000
 795.09;    2.780;  -63.290;    0.000;66.07000
 795.35;   -9.780;  -68.300;    0.000;58.52000
 795.60;  -14.560;  -67.650;    0.000;53.09000
 795.86;  -11.220;  -68.830;    0.000;57.61000
 796.12;  -19.780;  -75.900;    0.000;56.12000
 796.37;  -20.600;  -66.550;    0.000;45.95000
 796.63;   -9.140;  -68.700;    0.000;59.56000
 796.88;  -14.460;  -72.950;    0.000;58.49000
 797.14;   -7.960;  -65.230;    0.000;57.27000
 797.39;   -1.100;  -61.460;    0.000;60.36000
 797.65;  -24.420;  -68.500;    0.000;44.08000
 797.91;  -14.540;  -79.560;    0.000;65.02000
 798.16;  -17.640;  -69.310;    0.000;51.67000
 798.42;  -21.440;  -73.060;    0.000;51.62000
 798.67;  -26.220;  -75.160;    0.000;48.94000
 798.93;  -22.580;  -72.820;    0.000;50.24000
 799.18;  -28.980;  -69.660;    0.000;40.68000
 799.44;  -26.940;  -74.410;    0.000;47.47000
 799.69;  -24.200;  -72.570;    0.000;48.37000
 799.95;  -24.520;  -76.750;    0.000;52.23000
 800.21;  -27.420;  -71.490;    0.000;44.07000
 800.46;   -5.480;  -60.670;    0.000;55.19000
 800.72;  -32.200;  -74.550;    0.000;42.35000
 800.97;  -35.960;  -66.080;    0.000;30.12000
 801.23;  -24.900;  -69.050;    0.000;44.15000
 801.48;  -31.080;  -80.230;    0.000;49.15000
 801.74;  -40.060;  -70.650;    0.000;30.59000
 801.99;  -10.200;  -69.570;    0.000;59.37000
 802.25;  -23.980;  -68.120;    0.000;44.14000
 802.50;  -35.560;  -69.760;    0.000;34.20000
 802.76;  -15.420;  -68.390;    0.000;52.97000
 803.01;  -24.760;  -73.710;    0.000;48.95000
 803.27;  -22.500;  -68.660;    0.000;46.16000
 803.52;  -26.820;  -67.380;    0.000;40.56000
 803.78;  -12.520;  -65.800;    0.000;53.28000
 804.03;  -15.660;  -64.730;    0.000;49.07000
 804.29;  -33.260;  -73.690;    0.000;40.43000
 804.54;  -22.300;  -72.140;    0.000;49.84000
 804.80;  -28.000;  -70.710;    0.000;42.71000
 805.05;  -32.200;  -78.700;    0.000;46.50000
 805.31;  -10.800;  -64.860;    0.000;54.06000
 805.56;  -12.420;  -61.820;    0.000;49.40000
 805.82;  -37.380;  -75.510;    0.000;38.13000
 806.07;  -25.720;  -71.590;    0.000;45.87000
 806.33;  -22.140;  -63.430;    0.000;41.29000
 806.58;  -41.340;  -76.420;    0.000;35.08000
 806.84;  -23.920;  -67.110;    0.000;43.19000
 807.09;  -31.560;  -70.810;    0.000;39.25000
 807.34;  -26.240;  -71.760;    0.000;45.52000
 807.60;  -12.420;  -72.510;    0.000;60.09000
 807.85;  -14.200;  -66.100;    0.000;51.90000
 808.11;  -44.620;  -65.900;    0.000;21.28000
 808.36;  -17.920;  -56.490;    0.000;38.57000
 808.62;  -34.820;  -69.320;    0.000;34.50000
 808.87;  -38.480;  -69.730;    0.000;31.25000
 809.13;  -35.200;  -72.860;    0.000;37.66000
 809.38;  -14.660;  -63.580;    0.000;48.92000
 809.63;  -39.880;  -74.820;    0.000;34.94000
 809.89;  -16.700;  -65.740;    0.000;49.04000
 810.14;  -31.780;  -75.130;    0.000;43.35000
 810.40;  -18.000;  -66.270;    0.000;48.27000
 810.65;  -23.660;  -71.440;    0.000;47.78000
 810.91;  -58.280;  -76.930;    0.000;18.65000
 811.16;  -30.620;  -65.800;    0.000;35.18000
 811.41;  -25.760;  -58.080;    0.000;32.32000
 811.67;  -24.600;  -71.200;    0.000;46.60000
 811.92;  -32.780;  -67.900;    0.000;35.12000
 812.18;  -48.720;  -70.620;    0.000;21.90000
 812.43;  -35.700;  -69.170;    0.000;33.47000
 812.68;  -28.620;  -72.250;    0.000;43.63000
 812.94;  -41.160;  -70.010;    0.000;28.85000
 813.19;  -32.780;  -73.690;    0.000;40.91000
 813.45;    0.660;  -54.460;    0.000;55.12000
 813.70;  -30.220;  -73.310;    0.000;43.09000
 813.95;  -35.800;  -69.970;    0.000;34.17000
 814.21;  -23.540;  -72.990;    0.000;49.45000
 814.46;  -39.440;  -66.200;    0.000;26.76000
 814.71;  -49.360;  -77.220;    0.000;27.86000
 814.97;  -41.660;  -71.610;    0.000;29.95000
 815.22;  -40.520;  -73.660;    0.000;33.14000
 815.48;  -39.480;  -74.930;    0.000;35.45000
 815.73;  -30.240;  -70.320;    0.000;40.08000
 815.98;  -47.420;  -72.260;    0.000;24.84000
 816.24;  -36.640;  -73.690;    0.000;37.05000
 816.49;  -44.800;  -67.570;    0.000;22.77000
 816.74;  -31.100;  -66.060;    0.000;34.96000
 817.00;   -2.440;  -65.110;    0.000;62.67000
 817.25;  -31.720;  -64.360;    0.000;32.64000
 817.50;  -30.740;  -71.190;    0.000;40.45000
 817.76;  -41.720;  -73.870;    0.000;32.15000
 818.01;  -52.760;  -74.140;    0.000;21.38000
 818.26;  -43.400;  -77.660;    0.000;34.26000
 818.52;  -44.140;  -71.160;    0.000;27.02000
 818.77;  -44.080;  -70.450;    0.000;26.37000
 819.02;  140.740;   -1.560;    0.000;142.30001
 819.28;  -39.100;  -76.850;    0.000;37.75000
 819.53;  -47.720;  -76.810;    0.000;29.09000
 819.78;  -30.680;  -71.320;    0.000;40.64000
 820.04;  -32.520;  -76.120;    0.000;43.60000
 820.29;  -49.000;  -69.520;    0.000;20.52000
 820.54;  -36.740;  -71.830;    0.000;35.09000
 820.79;  -33.160;  -68.430;    0.000;35.27000
 821.05;  -57.220;  -73.180;    0.000;15.96000
 821.30;  -24.620;  -60.740;    0.000;36.12000
 821.55;  -28.560;  -56.870;    0.000;28.31000
 821.81;  -36.480;  -72.250;    0.000;35.77000
 822.06;  -31.780;  -64.240;    0.000;32.46000
 822.31;  -14.640;  -64.090;    0.000;49.45000
 822.56;  -47.340;  -71.570;    0.000;24.23000
 822.82;  -43.600;  -74.760;    0.000;31.16000
 823.07;  -58.340;  -77.000;    0.000;18.66000
 823.32;  -56.280;  -86.470;    0.000;30.19000
 823.58;  -39.260;  -70.830;    0.000;31.57000
 823.83;  -46.420;  -68.440;    0.000;22.02000
 824.08;  -50.560;  -68.700;    0.000;18.14000
 824.33;  -55.080;  -78.080;    0.000;23.00000
 824.59;  -46.400;  -75.110;    0.000;28.71000
 824.84;  -43.520;  -73.820;    0.000;30.30000
 825.09;  -57.940;  -71.350;    0.000;13.41000
 825.34;  -53.220;  -78.610;    0.000;25.39000
 825.60;  -47.440;  -76.840;    0.000;29.40000
 825.85;  -40.240;  -72.800;    0.000;32.56000
 826.10;  -56.080;  -75.820;    0.000;19.74000
 826.35;  -43.520;  -78.380;    0.000;34.86000
 826.61;  -58.920;  -69.170;    0.000;10.25000
 826.86;  -42.960;  -74.300;    0.000;31.34000
 827.11;  -49.460;  -73.210;    0.000;23.75000
 827.36;  -55.020;  -79.440;    0.000;24.42000
 827.61;  -67.660;  -77.970;    0.000;10.31000
 827.87;  -53.440;  -73.890;    0.000;20.45000
 828.12;  -50.400;  -78.790;    0.000;28.39000
 828.37;  -48.380;  -76.470;    0.000;28.09000
 828.62;  -39.640;  -66.780;    0.000;27.14000
 828.88;  -23.820;  -68.950;    0.000;45.13000
 829.13;  -38.440;  -65.460;    0.000;27.02000
 829.38;  -49.920;  -74.310;    0.000;24.39000
 829.63;  -52.500;  -76.380;    0.000;23.88000
 829.88;  -55.300;  -77.840;    0.000;22.54000
 830.14;  -59.360;  -68.400;    0.000; 9.04000
 830.39;  -36.040;  -67.150;    0.000;31.11000
 830.64;  -53.200;  -73.500;    0.000;20.30000
 830.89;  -22.220;  -63.930;    0.000;41.71000
 831.14;  -67.780;  -65.130;    0.000;-2.65000
 831.39;  -55.300;  -80.200;    0.000;24.90000
 831.65;  -60.920;  -73.680;    0.000;12.76000
 831.90;  -56.480;  -76.450;    0.000;19.97000
 832.15;  -43.140;  -74.460;    0.000;31.32000
 832.40;  -52.640;  -71.070;    0.000;18.43000
 832.65;  -57.480;  -65.920;    0.000; 8.44000
 832.90;  -64.100;  -71.420;    0.000; 7.32000
 833.16;  -48.560;  -70.920;    0.000;22.36000
 833.41;  -59.140;  -68.270;    0.000; 9.13000
 833.66;  -49.160;  -80.480;    0.000;31.32000
 833.91;  -45.320;  -69.470;    0.000;24.15000
 834.16;  -61.580;  -74.480;    0.000;12.90000
 834.41;  -51.180;  -78.330;    0.000;27.15000
 834.66;  -49.160;  -73.780;    0.000;24.62000
 834.92;  -61.720;  -76.420;    0.000;14.70000
 835.17;  -55.500;  -79.700;    0.000;24.20000
 835.42;  -53.180;  -74.750;    0.000;21.57000
 835.67;  -58.220;  -67.620;    0.000; 9.40000
 835.92;  -56.500;  -76.180;    0.000;19.68000
 836.17;  -67.200;  -73.070;    0.000; 5.87000
 836.42;  -51.900;  -80.720;    0.000;28.82000
 836.67;  -71.480;  -72.910;    0.000; 1.43000
 836.93;  -58.060;  -67.370;    0.000; 9.31000
 837.18;  -53.200;  -68.480;    0.000;15.28000
 837.43;  -55.580;  -77.570;    0.000;21.99000
 837.68;  -50.820;  -75.250;    0.000;24.43000
 837.93;  -73.640;  -77.620;    0.000; 3.98000
 838.18;  -58.620;  -72.720;    0.000;14.10000
 838.43;  -67.600;  -77.330;    0.000; 9.73000
 838.68;  -52.540;  -75.400;    0.000;22.86000
 838.93;  -63.500;  -76.840;    0.000;13.34000
 839.18;  -37.200;  -68.870;    0.000;31.67000
 839.43;  -45.440;  -68.920;    0.000;23.48000
 839.69;  -74.340;  -75.200;    0.000; 0.86000
 839.94;  -59.700;  -75.060;    0.000;15.36000
 840.19;  -60.540;  -64.900;    0.000; 4.36000
 840.44;  -50.220;  -74.590;    0.000;24.37000
 840.69;  -45.580;  -67.680;    0.000;22.10000
 840.94;  -48.620;  -78.800;    0.000;30.18000
 841.19;  -36.760;  -66.410;    0.000;29.65001
 841.44;  -48.560;  -70.390;    0.000;21.83000
 841.69;  -39.400;  -69.710;    0.000;30.31000
 841.94;  -57.240;  -72.650;    0.000;15.41000
 842.19;  -67.840;  -74.280;    0.000; 6.44000
 842.44;  -60.140;  -72.650;    0.000;12.51000
 842.69;  -54.360;  -68.330;    0.000;13.97000
 842.94;  -53.700;  -71.610;    0.000;17.91000
 843.19;  -74.060;  -78.190;    0.000; 4.13000
 843.44;  -66.080;  -74.710;    0.000; 8.63000
 843.69;  -68.220;  -76.520;    0.000; 8.30000
 843.94;   23.140;  -44.550;    0.000;67.69000
 844.19;  -62.120;  -77.910;    0.000;15.79000
 844.44;  -46.760;  -71.510;    0.000;24.75000
 844.69;  -56.140;  -73.310;    0.000;17.17000
 844.95;  -46.100;  -74.630;    0.000;28.53000
 845.20;  -74.700;  -82.130;    0.000; 7.43000
 845.45;  -49.140;  -68.000;    0.000;18.86000
 845.70;  -61.040;  -72.870;    0.000;11.83000
 845.95;  -64.320;  -74.560;    0.000;10.24000
 846.20;  -65.860;  -71.730;    0.000; 5.87000
 846.45;  -66.320;  -77.390;    0.000;11.07000
 846.70;  -58.440;  -65.790;    0.000; 7.35000
 846.95;  -62.020;  -75.980;    0.000;13.96000
 847.20;  -63.160;  -73.000;    0.000; 9.84000
 847.44;  -43.040;  -61.130;    0.000;18.09000
 847.69;  -70.220;  -79.180;    0.000; 8.96000
 847.94;  -57.380;  -71.950;    0.000;14.57000
 848.19;  -65.420;  -73.590;    0.000; 8.17000
 848.44;  -53.580;  -70.960;    0.000;17.38000
 848.69;  -67.060;  -73.670;    0.000; 6.61000
 848.94;  -57.640;  -69.750;    0.000;12.11000
 849.19;  -71.540;  -80.480;    0.000; 8.94000
 849.44;  -64.440;  -73.190;    0.000; 8.75000
 849.69;  -59.380;  -78.510;    0.000;19.13000
 849.94;  -72.460;  -72.940;    0.000; 0.48000
 850.19;  -50.300;  -63.930;    0.000;13.63000
 850.44;  -58.740;  -76.610;    0.000;17.87000
 850.69;  -69.120;  -69.690;    0.000; 0.57000
 850.94;  -61.400;  -77.600;    0.000;16.20000
 851.19;  -63.040;  -72.230;    0.000; 9.19000
 851.44;  -67.420;  -76.080;    0.000; 8.66000
 851.69;  -67.500;  -76.040;    0.000; 8.54000
 851.94;  -57.440;  -79.190;    0.000;21.75000
 852.19;  -58.340;  -76.300;    0.000;17.96000
 852.44;  -61.200;  -74.760;    0.000;13.56000
 852.68;  -71.620;  -75.620;    0.000; 4.00000
 852.93;  -56.440;  -70.590;    0.000;14.15000
 853.18;  -60.780;  -77.250;    0.000;16.47000
 853.43;  -65.540;  -76.120;    0.000;10.58000
 853.68;  -69.080;  -77.810;    0.000; 8.73000
 853.93;  -51.800;  -67.550;    0.000;15.75000
 854.18;  -47.300;  -66.630;    0.000;19.33000
 854.43;  -64.340;  -77.970;    0.000;13.63000
 854.68;  -55.380;  -75.490;    0.000;20.11000
 854.93;  -45.420;  -66.450;    0.000;21.03000
 855.18;  -57.000;  -74.650;    0.000;17.65000
 855.42;  -53.560;  -72.230;    0.000;18.67000
 855.67;  -63.240;  -71.310;    0.000; 8.07000
 855.92;  -62.040;  -74.510;    0.000;12.47000
 856.17;  -55.920;  -67.440;    0.000;11.52000
 856.42;  -51.020;  -76.160;    0.000;25.14000
 856.67;  -60.400;  -77.970;    0.000;17.57000
 856.92;  -59.660;  -79.620;    0.000;19.96000
 857.17;  -79.200;  -77.870;    0.000;-1.32999
 857.41;  -48.360;  -71.030;    0.000;22.67000
 857.66;  -64.660;  -73.290;    0.000; 8.63000
 857.91;  -47.700;  -73.290;    0.000;25.59000
 858.16;  -62.240;  -82.520;    0.000;20.27999
 858.41;  -64.660;  -72.320;    0.000; 7.66000
 858.66;  -61.160;  -69.160;    0.000; 8.00000
 858.91;  -53.760;  -77.930;    0.000;24.17000
 859.15;  -76.900;  -76.870;    0.000;-0.03000
 859.40;  -41.060;  -68.270;    0.000;27.21000
 859.65;  -67.380;  -84.460;    0.000;17.08000
 859.90;  -78.300;  -79.390;    0.000; 1.09000
 860.15;  -55.880;  -69.890;    0.000;14.01000
 860.40;  -43.480;  -69.890;    0.000;26.41000
 860.64;  -58.760;  -70.370;    0.000;11.61000
 860.89;  -71.980;  -74.750;    0.000; 2.77000
 861.14;  -62.800;  -70.090;    0.000; 7.29000
 861.39;  -48.800;  -69.870;    0.000;21.07000
 861.64;  -62.460;  -75.520;    0.000;13.06000
 861.88;  -43.180;  -72.380;    0.000;29.20000
 862.13;  -63.860;  -76.230;    0.000;12.37000
 862.38;  -63.140;  -72.450;    0.000; 9.31000
 862.63;  -59.120;  -74.260;    0.000;15.14000
 862.88;  -64.240;  -69.530;    0.000; 5.29000
 863.12;  -51.380;  -67.960;    0.000;16.58000
 863.37;  -64.860;  -71.990;    0.000; 7.13000
 863.62;  -68.460;  -77.420;    0.000; 8.96000
 863.87;  -69.920;  -78.180;    0.000; 8.26000
 864.12;  -49.560;  -73.600;    0.000;24.04000
 864.36;  -62.440;  -69.580;    0.000; 7.14000
 864.61;  -69.940;  -73.260;    0.000; 3.32000
 864.86;  -66.340;  -78.780;    0.000;12.44000
 865.11;  -58.200;  -68.440;    0.000;10.24000
 865.35;  -62.520;  -68.810;    0.000; 6.29000
 865.60;  -59.360;  -71.930;    0.000;12.57000
 865.85;  -45.820;  -72.600;    0.000;26.78000
 866.10;  -78.240;  -75.090;    0.000;-3.15000
 866.34;  -56.940;  -74.150;    0.000;17.21000
 866.59;  -54.740;  -67.290;    0.000;12.55000
 866.84;  -60.640;  -74.630;    0.000;13.99000
 867.09;  -70.300;  -80.380;    0.000;10.07999
 867.33;  -65.980;  -74.040;    0.000; 8.06000
 867.58;  -60.440;  -71.470;    0.000;11.03000
 867.83;  -64.320;  -74.280;    0.000; 9.96000
 868.08;  -56.960;  -76.090;    0.000;19.13000
 868.32;  -71.260;  -68.010;    0.000;-3.25000
 868.57;  -69.220;  -81.500;    0.000;12.28000
 868.82;  -57.660;  -72.920;    0.000;15.26000
 869.07;  -80.760;  -81.160;    0.000; 0.40000
 869.31;  -63.700;  -69.490;    0.000; 5.79000
 869.56;  -74.680;  -84.440;    0.000; 9.76000
 869.81;  -58.340;  -83.050;    0.000;24.71000
 870.05;  -68.960;  -79.990;    0.000;11.03000
 870.30;  -57.900;  -76.070;    0.000;18.17000
 870.55;  -58.540;  -69.170;    0.000;10.63000
 870.80;  -49.860;  -74.860;    0.000;25.00000
 871.04;  -60.840;  -69.280;    0.000; 8.44000
 871.29;  -58.820;  -73.970;    0.000;15.15000
 871.54;  -58.340;  -72.650;    0.000;14.31000
 871.78;  -71.620;  -75.650;    0.000; 4.03000
 872.03;  -61.580;  -76.460;    0.000;14.88000
 872.28;  -59.920;  -75.610;    0.000;15.69000
 872.52;  -55.340;  -63.940;    0.000; 8.60000
 872.77;  -65.360;  -68.280;    0.000; 2.92000
 873.02;  -75.340;  -78.210;    0.000; 2.87000
 873.26;  -64.180;  -75.910;    0.000;11.73000
 873.51;  -50.760;  -67.060;    0.000;16.30000
 873.76;  -62.740;  -69.910;    0.000; 7.17000
 874.00;  -42.720;  -67.690;    0.000;24.97000
 874.25;  -69.060;  -75.800;    0.000; 6.74001
 874.50;  -61.280;  -80.100;    0.000;18.82000
 874.74;  -66.200;  -73.380;    0.000; 7.18000
 874.99;  -67.040;  -77.690;    0.000;10.65000
 875.24;  -43.060;  -71.860;    0.000;28.80000
 875.48;  -61.080;  -75.510;    0.000;14.43000
 875.73;  -62.260;  -71.020;    0.000; 8.76000
 875.98;  -62.540;  -72.290;    0.000; 9.75000
 876.22;  -55.700;  -74.020;    0.000;18.32000
 876.47;  -57.600;  -73.180;    0.000;15.58000
 876.71;  -42.400;  -66.650;    0.000;24.25000
 876.96;  -47.420;  -68.040;    0.000;20.62000
 877.21;  -66.060;  -80.560;    0.000;14.50000
 877.45;  -66.020;  -79.740;    0.000;13.72000
 877.70;  -54.220;  -68.150;    0.000;13.93000
 877.95;  -47.180;  -71.420;    0.000;24.24000
 878.19;  -31.500;  -66.290;    0.000;34.79000
 878.44;  -54.440;  -73.630;    0.000;19.19000
 878.68;  -22.800;  -58.820;    0.000;36.02000
 878.93;  -47.540;  -67.350;    0.000;19.81000
 879.18;  -53.880;  -71.350;    0.000;17.47000
 879.42;  -55.160;  -70.170;    0.000;15.01000
 879.67;  -67.340;  -73.850;    0.000; 6.51000
 879.91;  -42.160;  -67.960;    0.000;25.80000
 880.16;  -44.480;  -78.060;    0.000;33.58000
 880.40;  -54.720;  -65.360;    0.000;10.64000
 880.65;  -48.300;  -71.790;    0.000;23.49000
 880.90;  -36.780;  -69.720;    0.000;32.94000
 881.14;  -46.220;  -65.060;    0.000;18.84000
 881.39;  -54.940;  -72.620;    0.000;17.68000
 881.63;  -46.140;  -68.980;    0.000;22.84000
 881.88;  -46.480;  -70.790;    0.000;24.31000
 882.12;  -53.220;  -76.190;    0.000;22.97000
 882.37;  -49.180;  -72.930;    0.000;23.75000
 882.62;  -62.420;  -70.810;    0.000; 8.39000
 882.86;  -58.360;  -75.020;    0.000;16.66000
 883.11;  -48.800;  -74.980;    0.000;26.18000
 883.35;  -39.460;  -71.230;    0.000;31.77000
 883.60;  -28.440;  -67.200;    0.000;38.76000
 883.84;  -58.840;  -73.170;    0.000;14.33000
 884.09;  -53.340;  -72.690;    0.000;19.35000
 884.33;  -50.420;  -71.050;    0.000;20.63000
 884.58;  -38.120;  -70.670;    0.000;32.55000
 884.82;  -54.820;  -73.840;    0.000;19.02000
 885.07;  -55.080;  -75.950;    0.000;20.87000
 885.31;  -47.620;  -74.400;    0.000;26.78000
 885.56;  -28.280;  -65.280;    0.000;37.00000
 885.80;  -56.800;  -79.420;    0.000;22.62000
 886.05;  -62.300;  -70.300;    0.000; 8.00000
 886.29;  -41.680;  -61.930;    0.000;20.25000
 886.54;  -64.820;  -68.310;    0.000; 3.49000
 886.78;  -44.020;  -71.060;    0.000;27.04000
 887.03;  -39.120;  -67.810;    0.000;28.69000
 887.27;  -16.560;  -61.920;    0.000;45.36000
 887.52;  -47.080;  -70.160;    0.000;23.08000
 887.76;  -39.020;  -70.980;    0.000;31.96000
 888.01;  -46.060;  -70.270;    0.000;24.21000
 888.25;  -43.480;  -74.180;    0.000;30.70000
 888.50;  -32.140;  -70.460;    0.000;38.32000
 888.74;  -41.340;  -65.070;    0.000;23.73000
 888.99;  -40.280;  -75.410;    0.000;35.13000
 889.23;  -43.180;  -73.760;    0.000;30.58000
 889.48;  -48.000;  -67.050;    0.000;19.05000
 889.72;  -35.800;  -61.140;    0.000;25.34000
 889.97;  -32.520;  -67.890;    0.000;35.37000
 890.21;  -46.340;  -71.660;    0.000;25.32000
 890.46;  -25.900;  -67.310;    0.000;41.41000
 890.70;  -47.800;  -66.540;    0.000;18.74000
 890.94;  -26.500;  -66.690;    0.000;40.19000
 891.19;  -43.260;  -67.720;    0.000;24.46000
 891.43;  -28.240;  -60.230;    0.000;31.99000
 891.68;  -15.380;  -60.880;    0.000;45.50000
 891.92;  -33.660;  -66.740;    0.000;33.08000
 892.17;  -40.260;  -63.670;    0.000;23.41000
 892.41;  -38.080;  -64.550;    0.000;26.47000
 892.66;  -50.560;  -72.780;    0.000;22.22000
 892.90;    6.980;  -53.850;    0.000;60.83000
 893.14;  -33.480;  -67.700;    0.000;34.22000
 893.39;  -28.420;  -61.520;    0.000;33.10000
 893.63;  -37.220;  -66.090;    0.000;28.87000
 893.88;  -39.800;  -64.750;    0.000;24.95000
 894.12;  -23.340;  -60.690;    0.000;37.35000
 894.36;  -25.880;  -52.460;    0.000;26.58000
 894.61;  -22.900;  -59.430;    0.000;36.53000
 894.85;  -22.580;  -59.970;    0.000;37.39000
 895.10;  -23.980;  -64.360;    0.000;40.38000
 895.34;  -29.300;  -59.380;    0.000;30.08000
 895.58;  -27.040;  -69.260;    0.000;42.22000
 895.83;  -29.300;  -62.800;    0.000;33.50000
 896.07;  -22.860;  -66.320;    0.000;43.46000
 896.32;  -22.240;  -58.720;    0.000;36.48000
 896.56;  -24.820;  -59.080;    0.000;34.26000
 896.80;  -11.720;  -64.120;    0.000;52.40000
 897.05;  -27.420;  -66.340;    0.000;38.92000
 897.29;  -15.120;  -51.230;    0.000;36.11000
 897.53;  -28.880;  -64.490;    0.000;35.61000
 897.78;  -23.620;  -59.400;    0.000;35.78000
 898.02;   -7.840;  -53.570;    0.000;45.73000
 898.26;  -22.760;  -63.930;    0.000;41.17000
 898.51;  -27.180;  -52.040;    0.000;24.86000
 898.75;  -15.340;  -56.010;    0.000;40.67000
 898.99;   -4.060;  -55.790;    0.000;51.73000
 899.24;   -6.440;  -49.180;    0.000;42.74000
 899.48;   -3.260;  -48.260;    0.000;45.00000
 899.73;  -11.580;  -54.040;    0.000;42.46000
 899.97;    2.800;  -42.750;    0.000;45.55000
 900.21;   13.520;  -44.210;    0.000;57.73000
 900.46;   11.400;  -41.230;    0.000;52.63000
 900.70;   25.680;  -40.060;    0.000;65.74000
 900.94;   14.800;  -49.340;    0.000;64.14000
 901.18;   25.840;  -43.690;    0.000;69.53000
 901.43;   19.220;  -40.290;    0.000;59.51000
 901.67;   32.000;  -38.410;    0.000;70.41000
 901.91;   29.740;  -29.050;    0.000;58.79000
 902.16;   40.660;  -39.250;    0.000;79.91000
 902.40;   38.560;  -35.010;    0.000;73.57000
 902.64;   48.860;  -28.700;    0.000;77.56000
 902.89;   48.900;  -28.120;    0.000;77.02000
 903.13;   63.560;  -20.830;    0.000;84.39000
 903.37;   76.980;  -22.230;    0.000;99.21000
 903.61;   89.280;   -7.810;    0.000;97.09000
 903.86;   96.020;   -9.670;    0.000;105.69000
 904.10;   88.260;   -7.290;    0.000;95.55000
 904.34;  115.920;    5.810;    0.000;110.11000
 904.59;  125.580;   17.270;    0.000;108.31000
 904.83;  154.980;   23.940;    0.000;131.04000
 905.07;  181.920;   39.780;    0.000;142.14000
 905.31;  212.300;   43.380;    0.000;168.92000
 905.56;  232.260;   56.080;    0.000;176.17999
 905.80;  271.600;   75.520;    0.000;196.08001

