p3
Integration time [ms]:  10.000
Averaging Nr. [scans]: 100
Smoothing Nr. [pixels]: 0
Data measured with spectrometer [name]: 1307078U2
Wave   ;Sample   ;Dark     ;Reference;Scope Corrected for Dark
[nm]   ;[counts] ;[counts] ;[counts] 

 351.07;   23.500;    0.420;    0.000;23.08000
 351.37;   18.020;    2.109;    0.000;15.91125
 351.66;   22.810;    2.484;    0.000;20.32625
 351.95;   18.820;    0.324;    0.000;18.49625
 352.24;   14.200;    1.910;    0.000;12.29000
 352.54;   10.250;    1.401;    0.000; 8.84875
 352.83;    8.980;   -0.629;    0.000; 9.60875
 353.12;   16.770;    1.364;    0.000;15.40625
 353.42;   -0.530;   -0.535;    0.000; 0.00500
 353.71;   13.290;    2.263;    0.000;11.02750
 354.00;   19.900;    3.929;    0.000;15.97125
 354.30;   10.070;    1.025;    0.000; 9.04500
 354.59;    5.750;   -0.266;    0.000; 6.01625
 354.88;   13.980;    5.190;    0.000; 8.79000
 355.17;   13.330;   -0.014;    0.000;13.34375
 355.47;    6.020;    2.134;    0.000; 3.88625
 355.76;   10.680;    0.416;    0.000;10.26375
 356.05;   17.560;    1.192;    0.000;16.36750
 356.35;    9.770;    1.587;    0.000; 8.18250
 356.64;   26.330;    1.753;    0.000;24.57750
 356.93;   15.450;    1.768;    0.000;13.68250
 357.22;   26.550;    1.366;    0.000;25.18375
 357.52;    4.260;    3.320;    0.000; 0.94000
 357.81;   19.120;    1.643;    0.000;17.47750
 358.10;    2.480;   -0.600;    0.000; 3.08000
 358.39;   14.420;    1.461;    0.000;12.95875
 358.69;   15.190;    1.997;    0.000;13.19250
 358.98;   11.020;    0.317;    0.000;10.70250
 359.27;   16.510;    1.446;    0.000;15.06375
 359.57;   16.530;    2.324;    0.000;14.20625
 359.86;    5.330;   -0.700;    0.000; 6.03000
 360.15;   28.250;    1.474;    0.000;26.77625
 360.44;    8.960;   -0.946;    0.000; 9.90625
 360.74;   19.980;    1.480;    0.000;18.50000
 361.03;    7.370;   -0.345;    0.000; 7.71500
 361.32;   18.440;    2.919;    0.000;15.52125
 361.61;    6.630;    2.338;    0.000; 4.29250
 361.91;   14.930;    2.645;    0.000;12.28500
 362.20;    8.070;    1.590;    0.000; 6.48000
 362.49;   16.830;    1.854;    0.000;14.97625
 362.78;   14.820;    0.435;    0.000;14.38500
 363.08;    9.790;    1.149;    0.000; 8.64125
 363.37;    7.820;    0.004;    0.000; 7.81625
 363.66;   23.720;    3.439;    0.000;20.28125
 363.95;    1.460;    2.359;    0.000;-0.89875
 364.24;   14.310;    2.213;    0.000;12.09750
 364.54;   10.320;   -0.068;    0.000;10.38750
 364.83;   17.340;    2.066;    0.000;15.27375
 365.12;    9.040;   -0.624;    0.000; 9.66375
 365.41;   25.200;    3.152;    0.000;22.04750
 365.71;   15.440;    0.161;    0.000;15.27875
 366.00;   15.240;    1.484;    0.000;13.75625
 366.29;    1.860;    0.876;    0.000; 0.98375
 366.58;   18.980;    2.200;    0.000;16.78000
 366.87;   18.820;    3.334;    0.000;15.48625
 367.17;   13.590;    4.057;    0.000; 9.53250
 367.46;    7.010;    1.112;    0.000; 5.89750
 367.75;    3.260;    0.207;    0.000; 3.05250
 368.04;    5.840;    2.296;    0.000; 3.54375
 368.34;   20.160;    3.155;    0.000;17.00500
 368.63;   14.100;    1.982;    0.000;12.11750
 368.92;   28.140;    4.579;    0.000;23.56125
 369.21;   14.140;    0.301;    0.000;13.83875
 369.50;   26.620;    4.056;    0.000;22.56375
 369.80;   17.040;    3.011;    0.000;14.02875
 370.09;   19.780;    2.666;    0.000;17.11375
 370.38;    7.040;    1.489;    0.000; 5.55125
 370.67;   10.550;    2.949;    0.000; 7.60125
 370.96;   14.990;    1.915;    0.000;13.07500
 371.26;    0.160;    3.515;    0.000;-3.35500
 371.55;    6.840;   -0.750;    0.000; 7.59000
 371.84;   14.600;    1.237;    0.000;13.36250
 372.13;   -0.890;    0.486;    0.000;-1.37625
 372.42;   19.760;    4.290;    0.000;15.47000
 372.71;   15.070;    2.305;    0.000;12.76500
 373.01;    9.840;    2.734;    0.000; 7.10625
 373.30;    8.390;    0.909;    0.000; 7.48125
 373.59;   22.790;    4.401;    0.000;18.38875
 373.88;   14.140;    0.729;    0.000;13.41125
 374.17;   18.220;    5.426;    0.000;12.79375
 374.46;    9.800;    2.037;    0.000; 7.76250
 374.76;   22.870;    3.602;    0.000;19.26750
 375.05;   20.930;    4.131;    0.000;16.79875
 375.34;    7.200;    4.778;    0.000; 2.42250
 375.63;    6.410;   -1.367;    0.000; 7.77750
 375.92;   17.740;    1.354;    0.000;16.38625
 376.21;    1.450;    0.181;    0.000; 1.26875
 376.51;    5.900;    0.475;    0.000; 5.42500
 376.80;    4.970;    3.346;    0.000; 1.62375
 377.09;    9.610;    1.947;    0.000; 7.66250
 377.38;   16.980;    1.015;    0.000;15.96500
 377.67;   13.440;    2.574;    0.000;10.86625
 377.96;   10.140;    0.863;    0.000; 9.27750
 378.25;   10.890;    3.033;    0.000; 7.85750
 378.55;   -1.360;    1.080;    0.000;-2.44000
 378.84;    6.220;    4.383;    0.000; 1.83750
 379.13;   14.760;    1.696;    0.000;13.06375
 379.42;    9.870;    4.142;    0.000; 5.72750
 379.71;    6.440;    1.695;    0.000; 4.74500
 380.00;   19.020;    4.409;    0.000;14.61125
 380.29;    2.370;    0.924;    0.000; 1.44625
 380.59;   16.630;    2.340;    0.000;14.29000
 380.88;   12.120;    1.253;    0.000;10.86750
 381.17;    2.070;    2.536;    0.000;-0.46625
 381.46;    7.080;    2.259;    0.000; 4.82125
 381.75;   17.360;    3.750;    0.000;13.61000
 382.04;    4.550;    3.304;    0.000; 1.24625
 382.33;   15.490;    1.438;    0.000;14.05250
 382.62;    2.040;    2.980;    0.000;-0.94000
 382.91;   14.970;    3.025;    0.000;11.94500
 383.21;    3.980;   -1.186;    0.000; 5.16625
 383.50;   11.380;    1.279;    0.000;10.10125
 383.79;    9.310;    3.581;    0.000; 5.72875
 384.08;    4.870;    1.620;    0.000; 3.25000
 384.37;   15.620;    2.861;    0.000;12.75875
 384.66;    0.970;    0.262;    0.000; 0.70750
 384.95;   -5.690;    1.033;    0.000;-6.72250
 385.24;   13.740;    0.772;    0.000;12.96750
 385.53;    5.340;   -1.732;    0.000; 7.07250
 385.83;    1.610;    0.712;    0.000; 0.89750
 386.12;   13.890;    1.009;    0.000;12.88125
 386.41;   12.720;    2.080;    0.000;10.64000
 386.70;   -1.970;    0.155;    0.000;-2.12500
 386.99;    9.990;    0.820;    0.000; 9.17000
 387.28;   18.590;    3.057;    0.000;15.53250
 387.57;   18.440;    2.020;    0.000;16.42000
 387.86;    2.440;    1.317;    0.000; 1.12250
 388.15;   13.680;    2.237;    0.000;11.44250
 388.44;   12.270;    1.854;    0.000;10.41625
 388.73;    8.110;    1.639;    0.000; 6.47125
 389.02;    7.050;    1.174;    0.000; 5.87625
 389.31;    6.880;    3.336;    0.000; 3.54375
 389.61;    6.180;    1.742;    0.000; 4.43750
 389.90;   10.620;    2.181;    0.000; 8.43875
 390.19;    9.030;    0.252;    0.000; 8.77750
 390.48;    8.810;    3.714;    0.000; 5.09625
 390.77;   12.410;    2.156;    0.000;10.25375
 391.06;   14.260;    0.019;    0.000;14.24125
 391.35;    0.990;    0.766;    0.000; 0.22375
 391.64;   22.200;    4.639;    0.000;17.56125
 391.93;   -2.600;    0.449;    0.000;-3.04875
 392.22;   20.760;    2.592;    0.000;18.16750
 392.51;   15.640;    1.247;    0.000;14.39250
 392.80;   26.940;    2.735;    0.000;24.20500
 393.09;    5.510;    1.086;    0.000; 4.42375
 393.38;   15.800;    0.229;    0.000;15.57125
 393.67;    7.880;    1.561;    0.000; 6.31875
 393.96;   13.770;    1.930;    0.000;11.84000
 394.25;    6.520;    0.956;    0.000; 5.56375
 394.54;   11.090;    1.622;    0.000; 9.46750
 394.83;    4.000;    0.440;    0.000; 3.56000
 395.13;   14.770;    2.201;    0.000;12.56875
 395.42;    4.220;    2.457;    0.000; 1.76250
 395.71;   19.350;    4.305;    0.000;15.04500
 396.00;   12.260;    1.222;    0.000;11.03750
 396.29;   16.370;    1.178;    0.000;15.19250
 396.58;    3.320;    0.967;    0.000; 2.35250
 396.87;   15.250;    1.986;    0.000;13.26375
 397.16;    5.620;    1.911;    0.000; 3.70875
 397.45;   10.090;    3.014;    0.000; 7.07625
 397.74;   12.590;    2.689;    0.000; 9.90125
 398.03;    9.370;    2.170;    0.000; 7.20000
 398.32;    1.690;    1.844;    0.000;-0.15375
 398.61;   10.790;    3.154;    0.000; 7.63625
 398.90;    7.130;    1.420;    0.000; 5.71000
 399.19;   14.580;    3.316;    0.000;11.26375
 399.48;    6.240;    0.412;    0.000; 5.82750
 399.77;    8.340;    1.786;    0.000; 6.55375
 400.06;   15.370;    2.120;    0.000;13.25000
 400.35;   11.460;    3.961;    0.000; 7.49875
 400.64;    2.090;    2.411;    0.000;-0.32125
 400.93;   19.210;    3.304;    0.000;15.90625
 401.22;    4.180;    1.479;    0.000; 2.70125
 401.51;   24.730;    3.400;    0.000;21.33000
 401.80;   17.260;    1.049;    0.000;16.21125
 402.09;    8.510;    1.710;    0.000; 6.80000
 402.38;    6.360;    1.655;    0.000; 4.70500
 402.67;    6.590;    2.055;    0.000; 4.53500
 402.96;   13.260;    1.381;    0.000;11.87875
 403.25;   20.210;    4.099;    0.000;16.11125
 403.54;    8.920;    2.920;    0.000; 6.00000
 403.83;   18.450;    1.701;    0.000;16.74875
 404.12;    4.330;    4.244;    0.000; 0.08625
 404.41;   20.430;    7.259;    0.000;13.17125
 404.70;   11.290;    1.739;    0.000; 9.55125
 404.98;   11.240;    3.635;    0.000; 7.60500
 405.27;   14.550;    2.116;    0.000;12.43375
 405.56;   26.590;    5.247;    0.000;21.34250
 405.85;    1.580;    1.905;    0.000;-0.32500
 406.14;   18.870;    2.216;    0.000;16.65375
 406.43;   -2.260;    0.695;    0.000;-2.95500
 406.72;   13.500;    1.689;    0.000;11.81125
 407.01;    2.560;    2.034;    0.000; 0.52625
 407.30;   11.780;    2.056;    0.000; 9.72375
 407.59;    7.310;   -0.241;    0.000; 7.55125
 407.88;   14.080;    1.026;    0.000;13.05375
 408.17;   -0.520;    1.819;    0.000;-2.33875
 408.46;   21.270;    2.744;    0.000;18.52625
 408.75;   20.260;    2.339;    0.000;17.92125
 409.04;    9.270;    1.809;    0.000; 7.46125
 409.33;    8.500;    1.810;    0.000; 6.69000
 409.62;   22.890;    3.089;    0.000;19.80125
 409.91;   -2.060;    0.704;    0.000;-2.76375
 410.20;    9.650;    1.890;    0.000; 7.76000
 410.48;   16.910;    1.309;    0.000;15.60125
 410.77;    0.750;    2.919;    0.000;-2.16875
 411.06;   20.550;   -0.224;    0.000;20.77375
 411.35;   29.030;    2.226;    0.000;26.80375
 411.64;   12.890;    2.741;    0.000;10.14875
 411.93;   13.340;   -0.534;    0.000;13.87375
 412.22;   14.890;    0.561;    0.000;14.32875
 412.51;    4.960;    2.220;    0.000; 2.74000
 412.80;    9.880;    1.974;    0.000; 7.90625
 413.09;   15.620;    0.749;    0.000;14.87125
 413.38;   12.620;    3.604;    0.000; 9.01625
 413.67;    7.720;    0.146;    0.000; 7.57375
 413.96;    0.860;   -0.986;    0.000; 1.84625
 414.24;   13.980;    2.872;    0.000;11.10750
 414.53;    7.850;    3.146;    0.000; 4.70375
 414.82;   14.540;    2.290;    0.000;12.25000
 415.11;   18.150;    2.401;    0.000;15.74875
 415.40;   12.810;    0.995;    0.000;11.81500
 415.69;   10.380;    2.255;    0.000; 8.12500
 415.98;    6.210;    3.622;    0.000; 2.58750
 416.27;    1.700;    2.026;    0.000;-0.32625
 416.56;   11.070;    2.160;    0.000; 8.91000
 416.84;    6.310;    1.849;    0.000; 4.46125
 417.13;    8.810;    1.085;    0.000; 7.72500
 417.42;   15.850;    2.255;    0.000;13.59500
 417.71;   21.040;    0.942;    0.000;20.09750
 418.00;    7.410;   -0.894;    0.000; 8.30375
 418.29;   12.950;    2.760;    0.000;10.19000
 418.58;    5.650;    1.184;    0.000; 4.46625
 418.87;   12.130;    1.616;    0.000;10.51375
 419.15;    6.830;    1.469;    0.000; 5.36125
 419.44;   21.270;    1.505;    0.000;19.76500
 419.73;    7.750;   -0.203;    0.000; 7.95250
 420.02;   22.560;    3.578;    0.000;18.98250
 420.31;    0.750;    0.189;    0.000; 0.56125
 420.60;   26.680;    0.344;    0.000;26.33625
 420.89;    3.460;    1.889;    0.000; 1.57125
 421.18;   26.040;    0.249;    0.000;25.79125
 421.46;   21.560;    1.220;    0.000;20.34000
 421.75;   15.180;    1.529;    0.000;13.65125
 422.04;    5.870;    1.446;    0.000; 4.42375
 422.33;   24.460;    1.941;    0.000;22.51875
 422.62;    8.340;    4.503;    0.000; 3.83750
 422.91;    8.850;    4.043;    0.000; 4.80750
 423.19;    6.370;    3.485;    0.000; 2.88500
 423.48;   22.810;    1.274;    0.000;21.53625
 423.77;   -0.310;    2.696;    0.000;-3.00625
 424.06;   11.150;    3.234;    0.000; 7.91625
 424.35;    6.890;    0.522;    0.000; 6.36750
 424.64;   36.500;    3.535;    0.000;32.96500
 424.93;    1.060;   -0.317;    0.000; 1.37750
 425.21;   14.480;    2.582;    0.000;11.89750
 425.50;    4.690;    3.263;    0.000; 1.42750
 425.79;    8.280;    2.591;    0.000; 5.68875
 426.08;    7.450;    1.785;    0.000; 5.66500
 426.37;    8.530;    1.579;    0.000; 6.95125
 426.65;   -1.270;    2.955;    0.000;-4.22500
 426.94;   14.510;    2.134;    0.000;12.37625
 427.23;    6.890;    2.475;    0.000; 4.41500
 427.52;   19.110;    0.715;    0.000;18.39500
 427.81;    6.330;   -0.177;    0.000; 6.50750
 428.10;   26.460;    2.043;    0.000;24.41750
 428.38;   -2.100;    0.154;    0.000;-2.25375
 428.67;   19.560;    2.436;    0.000;17.12375
 428.96;   -5.710;    1.938;    0.000;-7.64750
 429.25;    8.400;    2.326;    0.000; 6.07375
 429.54;   16.280;    2.418;    0.000;13.86250
 429.82;   19.450;    2.749;    0.000;16.70125
 430.11;   10.750;    0.755;    0.000; 9.99500
 430.40;   21.240;    2.376;    0.000;18.86375
 430.69;    6.890;    2.435;    0.000; 4.45500
 430.98;    8.330;    3.626;    0.000; 4.70375
 431.26;   18.620;    4.383;    0.000;14.23750
 431.55;   21.490;    3.697;    0.000;17.79250
 431.84;   -1.240;   -0.666;    0.000;-0.57375
 432.13;   15.120;    0.749;    0.000;14.37125
 432.41;    6.620;    2.846;    0.000; 3.77375
 432.70;   15.480;    2.501;    0.000;12.97875
 432.99;   11.340;    2.007;    0.000; 9.33250
 433.28;   23.960;    4.089;    0.000;19.87125
 433.57;   16.370;    0.668;    0.000;15.70250
 433.85;   18.860;    0.570;    0.000;18.29000
 434.14;   13.470;    1.510;    0.000;11.96000
 434.43;   23.610;    4.943;    0.000;18.66750
 434.72;    9.040;    1.523;    0.000; 7.51750
 435.00;   13.950;    4.381;    0.000; 9.56875
 435.29;    3.960;    3.159;    0.000; 0.80125
 435.58;   15.280;    3.307;    0.000;11.97250
 435.87;    9.770;    0.380;    0.000; 9.39000
 436.15;   14.160;    2.906;    0.000;11.25375
 436.44;   -2.140;    2.568;    0.000;-4.70750
 436.73;   22.020;    4.294;    0.000;17.72625
 437.02;    7.270;    2.537;    0.000; 4.73250
 437.30;   21.900;    2.334;    0.000;19.56625
 437.59;    9.650;    2.810;    0.000; 6.84000
 437.88;    9.540;    5.700;    0.000; 3.84000
 438.17;   -5.760;   -0.534;    0.000;-5.22625
 438.45;   10.160;    3.159;    0.000; 7.00125
 438.74;   13.620;    0.505;    0.000;13.11500
 439.03;    9.360;    2.618;    0.000; 6.74250
 439.32;    2.270;    3.250;    0.000;-0.98000
 439.60;    4.640;    0.890;    0.000; 3.75000
 439.89;    9.420;    2.642;    0.000; 6.77750
 440.18;    8.120;    2.490;    0.000; 5.63000
 440.46;   -4.360;    0.183;    0.000;-4.54250
 440.75;   20.360;    2.443;    0.000;17.91750
 441.04;   -7.410;    0.079;    0.000;-7.48875
 441.33;   15.420;    3.149;    0.000;12.27125
 441.61;    5.000;    2.630;    0.000; 2.37000
 441.90;   21.240;    3.733;    0.000;17.50750
 442.19;    1.910;   -0.200;    0.000; 2.11000
 442.47;   11.740;    3.862;    0.000; 7.87750
 442.76;    3.630;    2.916;    0.000; 0.71375
 443.05;   13.910;    2.666;    0.000;11.24375
 443.34;    5.580;    2.057;    0.000; 3.52250
 443.62;   19.300;    1.426;    0.000;17.87375
 443.91;    3.400;    0.027;    0.000; 3.37250
 444.20;   29.650;    6.335;    0.000;23.31500
 444.48;    2.350;    1.109;    0.000; 1.24125
 444.77;   30.990;    4.639;    0.000;26.35125
 445.06;    2.550;    1.806;    0.000; 0.74375
 445.34;   10.240;    0.406;    0.000; 9.83375
 445.63;   -1.040;    0.630;    0.000;-1.67000
 445.92;   33.900;    1.935;    0.000;31.96500
 446.21;    6.790;    3.364;    0.000; 3.42625
 446.49;    8.750;    2.110;    0.000; 6.64000
 446.78;   11.530;    2.021;    0.000; 9.50875
 447.07;    3.380;    0.465;    0.000; 2.91500
 447.35;    3.900;    0.983;    0.000; 2.91750
 447.64;   10.060;    3.451;    0.000; 6.60875
 447.93;    5.950;    1.934;    0.000; 4.01625
 448.21;   12.330;    1.536;    0.000;10.79375
 448.50;    5.520;    1.910;    0.000; 3.61000
 448.79;   10.320;    1.992;    0.000; 8.32750
 449.07;   11.680;    3.325;    0.000; 8.35500
 449.36;   -0.800;    1.426;    0.000;-2.22625
 449.65;    5.030;    0.134;    0.000; 4.89625
 449.93;    8.570;    3.255;    0.000; 5.31500
 450.22;    5.340;    1.070;    0.000; 4.27000
 450.51;    7.310;    3.435;    0.000; 3.87500
 450.79;    9.600;    2.901;    0.000; 6.69875
 451.08;    9.690;    2.376;    0.000; 7.31375
 451.36;   11.850;   -0.282;    0.000;12.13250
 451.65;   14.610;    4.582;    0.000;10.02750
 451.94;    2.040;    2.245;    0.000;-0.20500
 452.22;    4.590;    1.971;    0.000; 2.61875
 452.51;    8.880;    2.864;    0.000; 6.01625
 452.80;   11.670;    0.808;    0.000;10.86250
 453.08;    7.600;    3.300;    0.000; 4.30000
 453.37;   16.150;    5.216;    0.000;10.93375
 453.66;   -3.560;    1.974;    0.000;-5.53375
 453.94;   12.950;    2.578;    0.000;10.37250
 454.23;    4.100;    0.707;    0.000; 3.39250
 454.51;   19.650;    5.106;    0.000;14.54375
 454.80;   -5.090;    1.065;    0.000;-6.15500
 455.09;   18.590;    3.789;    0.000;14.80125
 455.37;   15.680;    2.000;    0.000;13.68000
 455.66;   12.720;    0.929;    0.000;11.79125
 455.95;   10.280;    2.487;    0.000; 7.79250
 456.23;   19.890;    1.810;    0.000;18.08000
 456.52;    0.430;   -1.785;    0.000; 2.21500
 456.80;   15.560;    1.676;    0.000;13.88375
 457.09;    4.000;    0.610;    0.000; 3.39000
 457.38;   26.130;    2.624;    0.000;23.50625
 457.66;   11.650;    2.954;    0.000; 8.69625
 457.95;    7.350;    2.106;    0.000; 5.24375
 458.23;    7.680;   -0.848;    0.000; 8.52750
 458.52;   21.600;    3.451;    0.000;18.14875
 458.81;    7.360;    4.972;    0.000; 2.38750
 459.09;   12.610;    4.175;    0.000; 8.43500
 459.38;    5.800;    0.647;    0.000; 5.15250
 459.66;   12.070;    2.150;    0.000; 9.92000
 459.95;    7.360;    3.480;    0.000; 3.88000
 460.23;   16.670;    1.835;    0.000;14.83500
 460.52;    5.420;   -0.050;    0.000; 5.47000
 460.81;    2.350;    3.735;    0.000;-1.38500
 461.09;   -1.470;    2.649;    0.000;-4.11875
 461.38;   20.630;    0.196;    0.000;20.43375
 461.66;    1.260;    2.040;    0.000;-0.78000
 461.95;    9.330;    2.691;    0.000; 6.63875
 462.23;   10.960;    2.905;    0.000; 8.05500
 462.52;   10.510;    1.970;    0.000; 8.54000
 462.81;    0.560;    1.775;    0.000;-1.21500
 463.09;    8.760;    2.996;    0.000; 5.76375
 463.38;   -7.880;    3.536;    0.000;-11.41625
 463.66;    5.900;    2.416;    0.000; 3.48375
 463.95;    9.860;    0.976;    0.000; 8.88375
 464.23;   19.110;    3.136;    0.000;15.97375
 464.52;   10.780;    0.415;    0.000;10.36500
 464.80;    6.610;    2.267;    0.000; 4.34250
 465.09;   18.640;    4.450;    0.000;14.19000
 465.38;   11.630;    2.135;    0.000; 9.49500
 465.66;    7.330;    3.092;    0.000; 4.23750
 465.95;    7.270;    3.005;    0.000; 4.26500
 466.23;    7.020;    1.654;    0.000; 5.36625
 466.52;    8.650;    2.730;    0.000; 5.92000
 466.80;   16.360;    4.429;    0.000;11.93125
 467.09;    7.430;    2.030;    0.000; 5.40000
 467.37;    7.870;    2.378;    0.000; 5.49250
 467.66;   24.110;    4.521;    0.000;19.58875
 467.94;   12.580;    1.929;    0.000;10.65125
 468.23;    8.160;    1.577;    0.000; 6.58250
 468.51;   13.500;    3.882;    0.000; 9.61750
 468.80;    9.530;    3.013;    0.000; 6.51750
 469.08;   11.280;    2.563;    0.000; 8.71750
 469.37;   24.320;    3.146;    0.000;21.17375
 469.66;   15.780;    1.077;    0.000;14.70250
 469.94;   12.080;    0.594;    0.000;11.48625
 470.23;   14.410;    0.586;    0.000;13.82375
 470.51;   13.490;    2.723;    0.000;10.76750
 470.80;   17.590;    2.582;    0.000;15.00750
 471.08;   21.430;    3.061;    0.000;18.36875
 471.37;   12.960;    2.378;    0.000;10.58250
 471.65;   21.650;    3.132;    0.000;18.51750
 471.94;    2.810;    0.899;    0.000; 1.91125
 472.22;    7.730;    1.457;    0.000; 6.27250
 472.51;   14.160;    1.730;    0.000;12.43000
 472.79;   12.700;    3.695;    0.000; 9.00500
 473.08;    8.960;    0.592;    0.000; 8.36750
 473.36;   19.870;    3.221;    0.000;16.64875
 473.64;    0.830;    1.619;    0.000;-0.78875
 473.93;   14.990;    3.253;    0.000;11.73750
 474.21;    6.360;    2.713;    0.000; 3.64750
 474.50;   21.950;    4.048;    0.000;17.90250
 474.78;   17.660;    2.095;    0.000;15.56500
 475.07;   12.190;    0.941;    0.000;11.24875
 475.35;   17.590;    3.199;    0.000;14.39125
 475.64;   12.380;    2.451;    0.000; 9.92875
 475.92;   13.660;    1.299;    0.000;12.36125
 476.21;   16.020;    0.804;    0.000;15.21625
 476.49;   17.540;    2.276;    0.000;15.26375
 476.78;   23.310;    2.287;    0.000;21.02250
 477.06;    8.620;    2.473;    0.000; 6.14750
 477.35;   27.260;    3.790;    0.000;23.47000
 477.63;   11.640;    1.086;    0.000;10.55375
 477.91;   17.600;    1.760;    0.000;15.84000
 478.20;   11.210;    1.059;    0.000;10.15125
 478.48;   25.030;    0.538;    0.000;24.49250
 478.77;   13.940;    3.499;    0.000;10.44125
 479.05;   17.870;    3.216;    0.000;14.65375
 479.34;   26.140;    0.761;    0.000;25.37875
 479.62;   17.650;    3.401;    0.000;14.24875
 479.91;   13.660;   -0.785;    0.000;14.44500
 480.19;   35.730;    2.868;    0.000;32.86250
 480.47;    7.720;    0.215;    0.000; 7.50500
 480.76;   23.100;    5.134;    0.000;17.96625
 481.04;   16.880;    2.594;    0.000;14.28625
 481.33;   33.370;    5.226;    0.000;28.14375
 481.61;   22.570;    0.775;    0.000;21.79500
 481.90;   29.360;    3.454;    0.000;25.90625
 482.18;   23.760;    1.354;    0.000;22.40625
 482.46;   27.890;    2.395;    0.000;25.49500
 482.75;   25.130;    3.819;    0.000;21.31125
 483.03;   25.270;    1.339;    0.000;23.93125
 483.32;   25.430;   -0.608;    0.000;26.03750
 483.60;   39.040;    2.681;    0.000;36.35875
 483.88;   16.800;    3.960;    0.000;12.84000
 484.17;   38.780;    1.490;    0.000;37.29000
 484.45;   32.960;    0.410;    0.000;32.55000
 484.74;   38.730;    2.251;    0.000;36.47875
 485.02;   47.490;    2.283;    0.000;45.20750
 485.30;   47.740;    1.720;    0.000;46.02000
 485.59;   56.120;    0.525;    0.000;55.59500
 485.87;   72.730;    1.050;    0.000;71.68000
 486.16;   64.920;    1.403;    0.000;63.51750
 486.44;   71.050;    2.604;    0.000;68.44625
 486.72;   76.780;    1.150;    0.000;75.63000
 487.01;   85.720;    3.671;    0.000;82.04875
 487.29;   91.740;    0.510;    0.000;91.23000
 487.58;  111.510;    5.654;    0.000;105.85625
 487.86;  119.360;    3.342;    0.000;116.01750
 488.14;  121.420;    3.932;    0.000;117.48750
 488.43;  140.700;    0.979;    0.000;139.72125
 488.71;  157.860;    0.730;    0.000;157.13000
 488.99;  170.960;    1.616;    0.000;169.34376
 489.28;  192.390;    0.715;    0.000;191.67500
 489.56;  191.230;    1.239;    0.000;189.99125
 489.85;  220.970;    2.350;    0.000;218.62000
 490.13;  244.460;    2.057;    0.000;242.40251
 490.41;  282.870;    4.855;    0.000;278.01500
 490.70;  291.470;    2.358;    0.000;289.11250
 490.98;  331.630;    1.931;    0.000;329.69875
 491.26;  347.280;   -0.796;    0.000;348.07625
 491.55;  398.620;    2.747;    0.000;395.87250
 491.83;  428.460;    2.797;    0.000;425.66249
 492.11;  475.260;    0.218;    0.000;475.04251
 492.40;  510.230;    1.774;    0.000;508.45626
 492.68;  557.250;    3.876;    0.000;553.37375
 492.96;  606.400;    2.506;    0.000;603.89377
 493.25;  663.240;    3.009;    0.000;660.23124
 493.53;  695.180;    1.435;    0.000;693.74499
 493.81;  768.550;    3.051;    0.000;765.49874
 494.10;  822.650;    2.372;    0.000;820.27752
 494.38;  893.460;    0.340;    0.000;893.12002
 494.66;  945.040;   -0.239;    0.000;945.27873
 494.95; 1017.820;    2.470;    0.000;1015.35001
 495.23; 1092.870;    3.210;    0.000;1089.66000
 495.51; 1181.130;    4.576;    0.000;1176.55375
 495.80; 1250.580;    2.500;    0.000;1248.07996
 496.08; 1355.190;    4.334;    0.000;1350.85619
 496.36; 1439.820;    2.381;    0.000;1437.43870
 496.65; 1531.000;    0.871;    0.000;1530.12875
 496.93; 1612.670;    2.741;    0.000;1609.92879
 497.21; 1725.150;    0.571;    0.000;1724.57877
 497.50; 1840.860;    3.068;    0.000;1837.79249
 497.78; 1951.230;    1.405;    0.000;1949.82498
 498.06; 2040.660;    0.853;    0.000;2039.80753
 498.34; 2179.020;    2.364;    0.000;2176.65627
 498.63; 2274.760;    3.320;    0.000;2271.44001
 498.91; 2435.710;    4.931;    0.000;2430.77871
 499.19; 2551.370;    1.158;    0.000;2550.21262
 499.48; 2714.130;    2.360;    0.000;2711.76988
 499.76; 2842.320;    3.057;    0.000;2839.26257
 500.04; 3001.270;    4.120;    0.000;2997.15002
 500.32; 3131.820;    3.015;    0.000;3128.80507
 500.61; 3288.440;    2.210;    0.000;3286.22994
 500.89; 3432.520;    2.584;    0.000;3429.93627
 501.17; 3606.130;    1.663;    0.000;3604.46738
 501.46; 3775.500;    3.491;    0.000;3772.00875
 501.74; 3948.470;    4.365;    0.000;3944.10497
 502.02; 4119.750;    3.974;    0.000;4115.77625
 502.30; 4305.380;    3.686;    0.000;4301.69363
 502.59; 4471.840;    3.149;    0.000;4468.69109
 502.87; 4664.520;    2.419;    0.000;4662.10127
 503.15; 4853.110;    3.114;    0.000;4849.99611
 503.43; 5073.850;    1.428;    0.000;5072.42260
 503.72; 5254.770;    1.790;    0.000;5252.98002
 504.00; 5447.400;    1.394;    0.000;5446.00615
 504.28; 5649.760;    2.723;    0.000;5647.03727
 504.56; 5877.040;    3.711;    0.000;5873.32879
 504.85; 6074.920;    1.084;    0.000;6073.83617
 505.13; 6317.250;    3.199;    0.000;6314.05125
 505.41; 6515.900;    1.260;    0.000;6514.63990
 505.69; 6751.850;    4.202;    0.000;6747.64760
 505.98; 6957.940;    2.303;    0.000;6955.63744
 506.26; 7194.120;    2.465;    0.000;7191.65512
 506.54; 7396.580;    1.691;    0.000;7394.88883
 506.82; 7673.180;    1.630;    0.000;7671.55018
 507.11; 7904.160;    2.685;    0.000;7901.47516
 507.39; 8135.570;    2.963;    0.000;8132.60732
 507.67; 8372.030;    2.545;    0.000;8369.48527
 507.95; 8617.470;    4.004;    0.000;8613.46598
 508.23; 8892.430;    1.665;    0.000;8890.76469
 508.52; 9139.140;    4.427;    0.000;9134.71215
 508.80; 9376.620;    2.648;    0.000;9373.97262
 509.08; 9659.190;    3.473;    0.000;9655.71793
 509.36; 9881.900;    0.114;    0.000;9881.78664
 509.65;10154.250;    2.144;    0.000;10152.10625
 509.93;10366.580;    1.548;    0.000;10365.03258
 510.21;10642.730;    1.577;    0.000;10641.15297
 510.49;10913.600;    2.626;    0.000;10910.97336
 510.77;11147.450;    2.529;    0.000;11144.92145
 511.06;11409.310;    1.059;    0.000;11408.25082
 511.34;11691.910;    1.541;    0.000;11690.36891
 511.62;11975.030;   -1.497;    0.000;11976.52777
 511.90;12193.050;    3.204;    0.000;12189.84605
 512.18;12447.840;    1.067;    0.000;12446.77234
 512.47;12726.040;    5.470;    0.000;12720.57004
 512.75;12935.960;    1.100;    0.000;12934.85996
 513.03;13223.340;    4.050;    0.000;13219.28984
 513.31;13498.950;    1.416;    0.000;13497.53395
 513.59;13771.870;    3.094;    0.000;13768.77637
 513.87;13942.680;    1.499;    0.000;13941.18094
 514.16;14259.170;    3.134;    0.000;14256.03617
 514.44;14492.650;    1.394;    0.000;14491.25664
 514.72;14735.630;    3.402;    0.000;14732.22738
 515.00;14982.040;    2.842;    0.000;14979.19754
 515.28;15218.680;    3.527;    0.000;15215.15219
 515.56;15444.230;    2.730;    0.000;15441.50047
 515.85;15750.810;    0.644;    0.000;15750.16582
 516.13;16020.880;    2.204;    0.000;16018.67613
 516.41;16260.530;    1.971;    0.000;16258.55902
 516.69;16497.619;    3.354;    0.000;16494.26539
 516.97;16767.289;    4.766;    0.000;16762.52281
 517.25;16923.631;    2.075;    0.000;16921.55586
 517.54;17175.170;    4.198;    0.000;17170.97242
 517.82;17417.650;    2.642;    0.000;17415.00789
 518.10;17666.920;    1.928;    0.000;17664.99242
 518.38;17895.000;    3.320;    0.000;17891.68000
 518.66;18099.949;    3.017;    0.000;18096.93172
 518.94;18310.520;   -0.038;    0.000;18310.55703
 519.22;18582.641;    3.063;    0.000;18579.57813
 519.51;18775.561;    0.155;    0.000;18775.40555
 519.79;18966.811;   -0.216;    0.000;18967.02680
 520.07;19188.051;    3.670;    0.000;19184.38078
 520.35;19402.461;    3.328;    0.000;19399.13344
 520.63;19632.170;    2.414;    0.000;19629.75617
 520.91;19845.510;    0.201;    0.000;19845.30852
 521.19;20013.561;    3.025;    0.000;20010.53555
 521.47;20229.570;    1.909;    0.000;20227.66156
 521.75;20492.891;    2.081;    0.000;20490.80938
 522.04;20680.510;    2.229;    0.000;20678.28102
 522.32;20830.869;    0.170;    0.000;20830.69914
 522.60;21106.840;    3.899;    0.000;21102.94109
 522.88;21180.141;    3.216;    0.000;21176.92438
 523.16;21393.010;    2.065;    0.000;21390.94477
 523.44;21620.430;    2.495;    0.000;21617.93469
 523.72;21838.090;    3.304;    0.000;21834.78609
 524.00;21970.750;    2.655;    0.000;21968.09500
 524.28;22190.211;    2.943;    0.000;22187.26844
 524.57;22326.061;    2.586;    0.000;22323.47430
 524.85;22557.400;    4.845;    0.000;22552.55539
 525.13;22670.230;    4.231;    0.000;22665.99922
 525.41;22849.359;    1.692;    0.000;22847.66688
 525.69;23049.199;    1.334;    0.000;23047.86547
 525.97;23182.910;    4.061;    0.000;23178.84891
 526.25;23335.580;    0.954;    0.000;23334.62633
 526.53;23537.279;    4.273;    0.000;23533.00680
 526.81;23645.070;    0.319;    0.000;23644.75156
 527.09;23830.740;    1.679;    0.000;23829.06148
 527.37;23966.270;    0.134;    0.000;23966.13578
 527.65;24164.840;    3.938;    0.000;24160.90234
 527.93;24307.789;    1.886;    0.000;24305.90281
 528.22;24414.070;    3.976;    0.000;24410.09406
 528.50;24645.510;    1.497;    0.000;24644.01227
 528.78;24795.811;    4.605;    0.000;24791.20555
 529.06;24907.340;    3.001;    0.000;24904.33859
 529.34;25051.420;    3.697;    0.000;25047.72242
 529.62;25214.160;    2.995;    0.000;25211.16516
 529.90;25297.670;    2.693;    0.000;25294.97742
 530.18;25391.811;    0.646;    0.000;25391.16430
 530.46;25587.301;    3.618;    0.000;25583.68328
 530.74;25765.881;    4.294;    0.000;25761.58711
 531.02;25867.010;    2.640;    0.000;25864.36977
 531.30;25977.510;    0.880;    0.000;25976.62977
 531.58;26081.961;    3.714;    0.000;26078.24719
 531.86;26214.070;    2.035;    0.000;26212.03531
 532.14;26401.240;    4.215;    0.000;26397.02523
 532.42;26446.270;    2.910;    0.000;26443.35953
 532.70;26627.000;    3.036;    0.000;26623.96375
 532.98;26670.789;    0.534;    0.000;26670.25531
 533.26;26832.461;    2.263;    0.000;26830.19844
 533.54;26972.320;    1.962;    0.000;26970.35781
 533.82;27072.510;    4.854;    0.000;27067.65602
 534.10;27186.859;    3.501;    0.000;27183.35812
 534.38;27274.920;    0.683;    0.000;27274.23742
 534.66;27399.980;    4.026;    0.000;27395.95422
 534.94;27496.900;    2.694;    0.000;27494.20664
 535.22;27621.539;    2.501;    0.000;27619.03781
 535.50;27750.270;    1.347;    0.000;27748.92203
 535.78;27824.020;    4.506;    0.000;27819.51328
 536.06;27937.410;    5.009;    0.000;27932.40141
 536.34;27949.000;    2.092;    0.000;27946.90750
 536.62;28072.221;    3.473;    0.000;28068.74820
 536.90;28194.779;    4.017;    0.000;28190.76180
 537.18;28303.500;    2.636;    0.000;28300.86375
 537.46;28349.939;    0.501;    0.000;28349.43820
 537.74;28457.359;    3.977;    0.000;28453.38188
 538.02;28562.230;    5.509;    0.000;28556.72172
 538.30;28686.131;    5.718;    0.000;28680.41336
 538.58;28701.340;    2.925;    0.000;28698.41484
 538.86;28850.430;    4.149;    0.000;28846.28094
 539.14;28909.301;    3.205;    0.000;28906.09578
 539.42;29038.369;    5.500;    0.000;29032.86914
 539.70;29098.811;    1.393;    0.000;29097.41805
 539.98;29183.619;    2.892;    0.000;29180.72664
 540.26;29274.109;    1.592;    0.000;29272.51688
 540.54;29277.381;    4.443;    0.000;29272.93836
 540.82;29444.680;    1.806;    0.000;29442.87344
 541.10;29516.680;    4.010;    0.000;29512.66969
 541.38;29602.510;    2.525;    0.000;29599.98477
 541.66;29648.029;    4.036;    0.000;29643.99305
 541.94;29740.330;    5.741;    0.000;29734.58883
 542.22;29812.410;    6.370;    0.000;29806.04016
 542.50;29941.820;    2.181;    0.000;29939.63906
 542.78;29920.760;    3.706;    0.000;29917.05352
 543.06;30000.920;    1.092;    0.000;29999.82742
 543.34;30050.680;    4.554;    0.000;30046.12594
 543.62;30222.789;    1.795;    0.000;30220.99406
 543.90;30178.900;    2.027;    0.000;30176.87289
 544.17;30269.961;    2.539;    0.000;30267.42219
 544.45;30351.789;    5.716;    0.000;30346.07281
 544.73;30392.811;    3.084;    0.000;30389.72680
 545.01;30424.660;    3.473;    0.000;30421.18766
 545.29;30521.561;    4.139;    0.000;30517.42180
 545.57;30549.490;    5.057;    0.000;30544.43273
 545.85;30576.311;    3.080;    0.000;30573.23055
 546.13;30659.260;    3.045;    0.000;30656.21477
 546.41;30706.689;    5.004;    0.000;30701.68570
 546.69;30759.971;    5.885;    0.000;30754.08570
 546.97;30824.029;    3.510;    0.000;30820.51930
 547.25;30820.010;    5.443;    0.000;30814.56727
 547.52;30823.221;    6.606;    0.000;30816.61445
 547.80;30947.830;    4.670;    0.000;30943.16008
 548.08;30956.279;    2.263;    0.000;30954.01680
 548.36;31001.221;    4.355;    0.000;30996.86570
 548.64;31074.420;    4.756;    0.000;31069.66367
 548.92;31035.930;    3.705;    0.000;31032.22469
 549.20;31127.740;    3.259;    0.000;31124.48148
 549.48;31127.320;    4.170;    0.000;31123.15031
 549.76;31197.740;    4.735;    0.000;31193.00523
 550.04;31213.840;    5.597;    0.000;31208.24234
 550.31;31220.949;    1.956;    0.000;31218.99297
 550.59;31362.920;    3.471;    0.000;31359.44867
 550.87;31337.480;    2.305;    0.000;31335.17547
 551.15;31360.779;    5.196;    0.000;31355.58305
 551.43;31331.900;    2.901;    0.000;31328.99914
 551.71;31312.801;    4.271;    0.000;31308.52953
 551.99;31321.221;    2.554;    0.000;31318.66695
 552.27;31403.141;    4.544;    0.000;31398.59688
 552.54;31377.330;    3.098;    0.000;31374.23258
 552.82;31384.961;    2.580;    0.000;31382.38094
 553.10;31403.820;    3.609;    0.000;31400.21156
 553.38;31482.480;    5.986;    0.000;31476.49422
 553.66;31489.961;    4.290;    0.000;31485.67094
 553.94;31511.340;    0.865;    0.000;31510.47484
 554.22;31463.480;    4.026;    0.000;31459.45422
 554.49;31468.500;    1.909;    0.000;31466.59125
 554.77;31523.260;    3.175;    0.000;31520.08477
 555.05;31453.330;    4.770;    0.000;31448.56008
 555.33;31414.609;    3.230;    0.000;31411.37937
 555.61;31410.920;    3.481;    0.000;31407.43867
 555.89;31495.141;    0.751;    0.000;31494.38937
 556.16;31528.061;    1.086;    0.000;31526.97430
 556.44;31521.439;    1.997;    0.000;31519.44195
 556.72;31490.420;    5.874;    0.000;31484.54617
 557.00;31468.029;    2.216;    0.000;31465.81305
 557.28;31514.410;    2.520;    0.000;31511.89016
 557.56;31473.289;    1.341;    0.000;31471.94781
 557.83;31468.160;    6.726;    0.000;31461.43391
 558.11;31459.211;    6.404;    0.000;31452.80719
 558.39;31452.000;    2.997;    0.000;31449.00250
 558.67;31437.381;    1.645;    0.000;31435.73586
 558.95;31391.580;    1.871;    0.000;31389.70883
 559.23;31355.189;    3.966;    0.000;31351.22320
 559.50;31394.650;    3.114;    0.000;31391.53664
 559.78;31366.490;    2.484;    0.000;31364.00648
 560.06;31302.279;    3.674;    0.000;31298.60555
 560.34;31257.230;    4.381;    0.000;31252.84922
 560.62;31274.260;    5.099;    0.000;31269.16102
 560.89;31260.811;    3.236;    0.000;31257.57430
 561.17;31206.131;    3.039;    0.000;31203.09211
 561.45;31202.359;    6.720;    0.000;31195.63938
 561.73;31140.641;    3.614;    0.000;31137.02688
 562.00;31164.801;    1.837;    0.000;31162.96328
 562.28;31128.830;    4.736;    0.000;31124.09383
 562.56;31046.670;    3.688;    0.000;31042.98242
 562.84;31009.580;    5.670;    0.000;31003.91008
 563.12;30967.980;    1.199;    0.000;30966.78172
 563.39;30947.891;    2.850;    0.000;30945.04063
 563.67;30944.980;    4.331;    0.000;30940.64922
 563.95;30875.830;    3.725;    0.000;30872.10508
 564.23;30838.850;    0.817;    0.000;30838.03211
 564.50;30767.770;    3.756;    0.000;30764.01328
 564.78;30706.090;    4.778;    0.000;30701.31234
 565.06;30679.830;    4.095;    0.000;30675.73508
 565.34;30588.260;    3.490;    0.000;30584.76977
 565.61;30640.490;    3.579;    0.000;30636.91148
 565.89;30509.539;    4.356;    0.000;30505.18281
 566.17;30465.311;    1.107;    0.000;30464.20305
 566.45;30434.090;    3.446;    0.000;30430.64359
 566.73;30397.689;    4.733;    0.000;30392.95695
 567.00;30253.160;    2.011;    0.000;30251.14891
 567.28;30192.859;    4.403;    0.000;30188.45687
 567.56;30133.869;    4.230;    0.000;30129.63914
 567.83;30172.811;    4.820;    0.000;30167.99055
 568.11;29995.320;    4.360;    0.000;29990.96031
 568.39;29981.811;    3.311;    0.000;29978.49930
 568.67;29964.619;    4.975;    0.000;29959.64414
 568.94;29861.600;    4.472;    0.000;29857.12711
 569.22;29760.520;    2.889;    0.000;29757.63078
 569.50;29740.119;    2.293;    0.000;29737.82664
 569.78;29636.590;    0.215;    0.000;29636.37484
 570.05;29561.570;    2.606;    0.000;29558.96406
 570.33;29539.250;    2.001;    0.000;29537.24875
 570.61;29458.471;    5.050;    0.000;29453.42070
 570.88;29388.051;    1.764;    0.000;29386.28703
 571.16;29292.400;    2.787;    0.000;29289.61289
 571.44;29196.000;    0.548;    0.000;29195.45250
 571.72;29124.320;    2.101;    0.000;29122.21906
 571.99;29108.480;    2.487;    0.000;29105.99297
 572.27;28980.211;    2.940;    0.000;28977.27094
 572.55;28865.750;    2.769;    0.000;28862.98125
 572.82;28772.449;    3.071;    0.000;28769.37797
 573.10;28769.561;    4.463;    0.000;28765.09805
 573.38;28629.170;    4.084;    0.000;28625.08617
 573.65;28557.289;    4.691;    0.000;28552.59781
 573.93;28470.730;    2.601;    0.000;28468.12922
 574.21;28335.711;    2.024;    0.000;28333.68719
 574.48;28240.721;    4.831;    0.000;28235.88945
 574.76;28193.221;    4.536;    0.000;28188.68445
 575.04;28080.359;    5.972;    0.000;28074.38688
 575.32;28014.260;    0.036;    0.000;28014.22352
 575.59;27906.680;    5.807;    0.000;27900.87219
 575.87;27832.340;    3.089;    0.000;27829.25109
 576.15;27725.670;    4.832;    0.000;27720.83742
 576.42;27592.641;    1.260;    0.000;27591.38063
 576.70;27465.260;    2.868;    0.000;27462.39227
 576.98;27386.811;    4.479;    0.000;27382.33180
 577.25;27264.730;    3.994;    0.000;27260.73672
 577.53;27264.619;    2.311;    0.000;27262.30789
 577.80;27128.910;    4.555;    0.000;27124.35516
 578.08;26972.170;    1.016;    0.000;26971.15367
 578.36;26875.471;    3.935;    0.000;26871.53570
 578.63;26823.000;    2.959;    0.000;26820.04125
 578.91;26621.570;    3.149;    0.000;26618.42156
 579.19;26546.900;    3.899;    0.000;26543.00164
 579.46;26417.760;    3.882;    0.000;26413.87727
 579.74;26314.551;    0.826;    0.000;26313.72453
 580.02;26234.410;    0.681;    0.000;26233.72891
 580.29;26137.430;    3.734;    0.000;26133.69594
 580.57;25998.350;    2.340;    0.000;25996.00961
 580.84;25907.221;    1.306;    0.000;25905.91445
 581.12;25755.350;    4.154;    0.000;25751.19586
 581.40;25717.131;    2.944;    0.000;25714.18711
 581.67;25559.100;    4.294;    0.000;25554.80586
 581.95;25410.350;    1.742;    0.000;25408.60711
 582.23;25312.670;    2.881;    0.000;25309.78867
 582.50;25200.189;    4.459;    0.000;25195.73070
 582.78;25049.301;    2.859;    0.000;25046.44203
 583.05;24898.289;    3.785;    0.000;24894.50406
 583.33;24776.631;    2.399;    0.000;24774.23211
 583.61;24672.330;    6.227;    0.000;24666.10258
 583.88;24551.461;    3.654;    0.000;24547.80719
 584.16;24393.289;    1.746;    0.000;24391.54281
 584.43;24281.930;    3.211;    0.000;24278.71844
 584.71;24226.641;    2.947;    0.000;24223.69313
 584.99;24141.260;    3.717;    0.000;24137.54227
 585.26;23944.600;    2.017;    0.000;23942.58211
 585.54;23898.580;    1.204;    0.000;23897.37633
 585.81;23733.109;    4.169;    0.000;23728.94063
 586.09;23606.430;    3.445;    0.000;23602.98469
 586.37;23464.279;    1.883;    0.000;23462.39680
 586.64;23368.020;    4.314;    0.000;23363.70578
 586.92;23223.740;    1.679;    0.000;23222.06148
 587.19;23167.900;    3.080;    0.000;23164.82039
 587.47;22951.830;    2.747;    0.000;22949.08258
 587.74;22911.301;    4.613;    0.000;22906.68828
 588.02;22773.270;    4.313;    0.000;22768.95703
 588.30;22632.580;    3.340;    0.000;22629.24008
 588.57;22507.801;    3.376;    0.000;22504.42453
 588.85;22365.131;    4.094;    0.000;22361.03711
 589.12;22241.490;    4.117;    0.000;22237.37273
 589.40;22103.900;    2.787;    0.000;22101.11289
 589.67;22025.721;    2.685;    0.000;22023.03570
 589.95;21964.029;    7.534;    0.000;21956.49555
 590.22;21800.230;    2.001;    0.000;21798.22922
 590.50;21636.760;    3.696;    0.000;21633.06352
 590.77;21595.529;    1.840;    0.000;21593.68930
 591.05;21459.051;    4.359;    0.000;21454.69203
 591.33;21281.920;    1.175;    0.000;21280.74492
 591.60;21209.260;    1.119;    0.000;21208.14102
 591.88;21009.301;    4.168;    0.000;21005.13328
 592.15;20915.350;    3.402;    0.000;20911.94711
 592.43;20786.410;    2.320;    0.000;20784.09016
 592.70;20625.289;    3.095;    0.000;20622.19406
 592.98;20504.820;    3.245;    0.000;20501.57531
 593.25;20370.721;    3.697;    0.000;20367.02320
 593.53;20289.439;    2.335;    0.000;20287.10445
 593.80;20144.461;    3.291;    0.000;20141.16969
 594.08;19990.580;    1.874;    0.000;19988.70633
 594.35;19911.949;    4.060;    0.000;19907.88922
 594.63;19711.869;    2.872;    0.000;19708.99664
 594.90;19641.359;    2.609;    0.000;19638.75062
 595.18;19445.180;    3.821;    0.000;19441.35844
 595.45;19352.539;    4.101;    0.000;19348.43781
 595.73;19204.480;    3.088;    0.000;19201.39297
 596.00;19072.539;    5.176;    0.000;19067.36281
 596.28;18935.820;    2.150;    0.000;18933.67031
 596.55;18824.660;    4.939;    0.000;18819.72141
 596.83;18648.189;    1.852;    0.000;18646.33695
 597.10;18558.500;    4.657;    0.000;18553.84250
 597.38;18438.471;    3.055;    0.000;18435.41570
 597.65;18256.990;    2.369;    0.000;18254.62148
 597.93;18146.500;    0.613;    0.000;18145.88750
 598.20;18056.270;    3.918;    0.000;18052.35203
 598.48;17927.801;    1.860;    0.000;17925.94078
 598.75;17768.869;    3.500;    0.000;17765.36914
 599.03;17613.920;    4.341;    0.000;17609.57867
 599.30;17541.410;    1.952;    0.000;17539.45766
 599.58;17446.760;    3.211;    0.000;17443.54852
 599.85;17298.301;    5.479;    0.000;17292.82203
 600.12;17147.330;    2.605;    0.000;17144.72508
 600.40;17025.449;    4.610;    0.000;17020.83922
 600.67;16854.221;    3.875;    0.000;16850.34570
 600.95;16749.020;    3.932;    0.000;16745.08703
 601.22;16626.961;    4.343;    0.000;16622.61844
 601.50;16544.410;    3.861;    0.000;16540.54891
 601.77;16369.630;    2.813;    0.000;16366.81738
 602.05;16216.980;    3.898;    0.000;16213.08297
 602.32;16188.970;    2.983;    0.000;16185.98723
 602.59;16083.620;    2.529;    0.000;16081.09137
 602.87;15951.820;    4.855;    0.000;15946.96531
 603.14;15820.180;    3.612;    0.000;15816.56719
 603.42;15737.820;    2.557;    0.000;15735.26281
 603.69;15574.940;    1.731;    0.000;15573.20918
 603.97;15490.290;    4.331;    0.000;15485.95879
 604.24;15332.220;    3.800;    0.000;15328.41973
 604.51;15215.040;    3.688;    0.000;15211.35254
 604.79;15145.730;    3.882;    0.000;15141.84797
 605.06;15060.060;    3.945;    0.000;15056.11457
 605.34;15014.090;    4.537;    0.000;15009.55234
 605.61;14840.480;    2.057;    0.000;14838.42297
 605.89;14779.240;    3.287;    0.000;14775.95273
 606.16;14626.390;    4.349;    0.000;14622.04090
 606.43;14537.870;    5.481;    0.000;14532.38887
 606.71;14436.570;    2.475;    0.000;14434.09531
 606.98;14365.970;    2.328;    0.000;14363.64223
 607.26;14286.760;    3.761;    0.000;14282.99852
 607.53;14166.430;    2.716;    0.000;14163.71344
 607.80;14075.880;    2.881;    0.000;14072.99863
 608.08;13935.700;    3.045;    0.000;13932.65520
 608.35;13893.230;    3.132;    0.000;13890.09797
 608.62;13793.910;    2.546;    0.000;13791.36391
 608.90;13702.890;    1.881;    0.000;13701.00840
 609.17;13609.490;    1.808;    0.000;13607.68273
 609.45;13481.750;    3.072;    0.000;13478.67750
 609.72;13440.540;    4.076;    0.000;13436.46379
 609.99;13293.720;    1.740;    0.000;13291.97973
 610.27;13273.520;    3.930;    0.000;13269.58953
 610.54;13172.650;   -0.248;    0.000;13172.89789
 610.81;13080.880;    3.979;    0.000;13076.90113
 611.09;12987.170;    2.641;    0.000;12984.52867
 611.36;12888.910;    0.728;    0.000;12888.18266
 611.64;12845.760;    3.644;    0.000;12842.11602
 611.91;12730.920;    2.205;    0.000;12728.71492
 612.18;12679.790;    3.130;    0.000;12676.66004
 612.46;12585.570;    4.631;    0.000;12580.93906
 612.73;12485.480;    1.941;    0.000;12483.53922
 613.00;12373.420;    3.451;    0.000;12369.96867
 613.28;12240.280;    2.829;    0.000;12237.45152
 613.55;12170.460;    5.354;    0.000;12165.10621
 613.82;12096.840;    2.598;    0.000;12094.24234
 614.10;11953.200;    2.566;    0.000;11950.63395
 614.37;11890.750;    0.998;    0.000;11889.75250
 614.64;11715.010;    1.727;    0.000;11713.28227
 614.92;11530.140;    1.755;    0.000;11528.38465
 615.19;11473.940;    3.310;    0.000;11470.63043
 615.46;11339.510;    3.815;    0.000;11335.69477
 615.74;11171.410;    3.493;    0.000;11167.91766
 616.01;10961.020;   -0.661;    0.000;10961.68078
 616.28;10853.610;    3.483;    0.000;10850.12785
 616.56;10637.060;    1.890;    0.000;10635.16957
 616.83;10473.740;    2.476;    0.000;10471.26398
 617.10;10394.540;    4.282;    0.000;10390.25754
 617.37;10359.540;    2.747;    0.000;10356.79254
 617.65;10456.870;    1.979;    0.000;10454.89137
 617.92;10530.810;    3.259;    0.000;10527.55082
 618.19;10456.490;    3.304;    0.000;10453.18648
 618.47;10359.090;    2.418;    0.000;10356.67234
 618.74;10307.550;    2.545;    0.000;10305.00480
 619.01;10253.290;    5.466;    0.000;10247.82379
 619.28;10200.480;    6.039;    0.000;10194.44172
 619.56;10200.600;    4.155;    0.000;10196.44461
 619.83;10094.390;    3.957;    0.000;10090.43215
 620.10;10055.360;    3.467;    0.000;10051.89285
 620.38;10004.720;    2.330;    0.000;10002.38973
 620.65; 9904.790;    3.352;    0.000;9901.43754
 620.92; 9877.630;    2.168;    0.000;9875.46238
 621.19; 9893.250;    4.168;    0.000;9889.08250
 621.47; 9871.230;    0.951;    0.000;9870.27922
 621.74; 9904.210;    4.323;    0.000;9899.88746
 622.01; 9937.770;    1.462;    0.000;9936.30703
 622.28; 9893.320;    4.025;    0.000;9889.29531
 622.56; 9891.480;    2.351;    0.000;9889.12922
 622.83; 9823.740;    1.730;    0.000;9822.01023
 623.10; 9781.060;    2.729;    0.000;9778.33082
 623.38; 9754.100;    2.005;    0.000;9752.09461
 623.65; 9728.420;    4.239;    0.000;9724.18117
 623.92; 9668.750;    1.536;    0.000;9667.21375
 624.19; 9613.200;   -0.880;    0.000;9614.08020
 624.46; 9596.820;    3.061;    0.000;9593.75906
 624.74; 9535.170;    3.045;    0.000;9532.12492
 625.01; 9507.140;    5.025;    0.000;9502.11465
 625.28; 9450.040;    1.938;    0.000;9448.10254
 625.55; 9433.030;    1.933;    0.000;9431.09777
 625.83; 9386.390;    3.122;    0.000;9383.26715
 626.10; 9346.640;    3.759;    0.000;9342.88090
 626.37; 9288.250;    1.891;    0.000;9286.35875
 626.64; 9220.980;    2.188;    0.000;9218.79297
 626.92; 9210.140;    1.146;    0.000;9208.99340
 627.19; 9153.450;    3.395;    0.000;9150.05520
 627.46; 9107.890;    1.855;    0.000;9106.03465
 627.73; 9075.340;   -0.625;    0.000;9075.96484
 628.00; 9054.670;    4.034;    0.000;9050.63617
 628.28; 9029.930;    2.981;    0.000;9026.94844
 628.55; 8972.100;    0.068;    0.000;8972.03211
 628.82; 8925.810;    1.947;    0.000;8923.86207
 629.09; 8900.050;    4.360;    0.000;8895.68980
 629.36; 8895.120;    5.664;    0.000;8889.45637
 629.64; 8787.610;    0.757;    0.000;8786.85285
 629.91; 8787.210;    6.573;    0.000;8780.63746
 630.18; 8766.690;    3.014;    0.000;8763.67668
 630.45; 8673.720;    0.545;    0.000;8673.17473
 630.72; 8650.850;   -1.060;    0.000;8651.90961
 631.00; 8677.380;    1.430;    0.000;8675.94988
 631.27; 8589.450;    2.735;    0.000;8586.71520
 631.54; 8555.480;    1.822;    0.000;8553.65797
 631.81; 8480.880;    3.679;    0.000;8477.20113
 632.08; 8448.880;    3.724;    0.000;8445.15613
 632.35; 8409.210;    2.265;    0.000;8406.94496
 632.63; 8362.710;    4.170;    0.000;8358.53996
 632.90; 8371.750;    2.181;    0.000;8369.56875
 633.17; 8337.660;    1.319;    0.000;8336.34141
 633.44; 8295.080;    3.421;    0.000;8291.65883
 633.71; 8282.820;    3.719;    0.000;8279.10156
 633.98; 8292.390;    0.863;    0.000;8291.52715
 634.25; 8272.800;    4.139;    0.000;8268.66105
 634.53; 8179.850;    3.731;    0.000;8176.11885
 634.80; 8197.240;    2.301;    0.000;8194.93898
 635.07; 8183.630;    2.280;    0.000;8181.34988
 635.34; 8191.860;    4.559;    0.000;8187.30111
 635.61; 8164.650;    4.886;    0.000;8159.76365
 635.88; 8176.800;    2.765;    0.000;8174.03480
 636.15; 8189.380;    3.779;    0.000;8185.60113
 636.43; 8207.910;    3.138;    0.000;8204.77266
 636.70; 8219.450;    0.309;    0.000;8219.14145
 636.97; 8159.050;    0.026;    0.000;8159.02355
 637.24; 8076.180;    2.896;    0.000;8073.28393
 637.51; 7976.870;    4.227;    0.000;7972.64262
 637.78; 7821.550;    1.205;    0.000;7820.34480
 638.05; 7766.290;   -0.521;    0.000;7766.81129
 638.32; 7778.000;    4.594;    0.000;7773.40625
 638.60; 7682.730;    1.989;    0.000;7680.74123
 638.87; 7634.040;    0.371;    0.000;7633.66879
 639.14; 7610.510;    4.139;    0.000;7606.37102
 639.41; 7570.560;    0.873;    0.000;7569.68756
 639.68; 7455.690;    3.072;    0.000;7452.61744
 639.95; 7415.200;    1.040;    0.000;7414.16020
 640.22; 7377.320;    3.735;    0.000;7373.58482
 640.49; 7312.320;    2.639;    0.000;7309.68107
 640.76; 7307.390;    5.461;    0.000;7301.92889
 641.03; 7220.600;    0.767;    0.000;7219.83260
 641.30; 7104.770;    4.760;    0.000;7100.01002
 641.58; 7018.580;    0.679;    0.000;7017.90133
 641.85; 6970.950;    3.010;    0.000;6967.94020
 642.12; 6888.170;    1.204;    0.000;6886.96617
 642.39; 6833.020;    4.154;    0.000;6828.86627
 642.66; 6809.480;    1.847;    0.000;6807.63248
 642.93; 6742.510;    1.470;    0.000;6741.03977
 643.20; 6699.580;    1.317;    0.000;6698.26258
 643.47; 6675.820;    3.454;    0.000;6672.36607
 643.74; 6607.690;    0.748;    0.000;6606.94244
 644.01; 6574.370;    3.763;    0.000;6570.60762
 644.28; 6481.280;    0.605;    0.000;6480.67479
 644.55; 6470.040;    2.486;    0.000;6467.55379
 644.82; 6418.020;    2.384;    0.000;6415.63627
 645.09; 6398.670;    0.360;    0.000;6398.30992
 645.36; 6351.760;    3.155;    0.000;6348.60477
 645.63; 6316.830;    2.894;    0.000;6313.93633
 645.91; 6273.840;    3.947;    0.000;6269.89234
 646.18; 6273.820;    3.690;    0.000;6270.12982
 646.45; 6174.340;    0.995;    0.000;6173.34484
 646.72; 6135.150;    1.101;    0.000;6134.04865
 646.99; 6118.550;    1.396;    0.000;6117.15355
 647.26; 6057.650;    1.024;    0.000;6056.62615
 647.53; 6009.200;    1.119;    0.000;6008.08145
 647.80; 6027.010;    1.765;    0.000;6025.24477
 648.07; 5953.470;    0.945;    0.000;5952.52521
 648.34; 5928.140;    1.820;    0.000;5926.32014
 648.61; 5852.160;    1.154;    0.000;5851.00641
 648.88; 5846.240;    2.699;    0.000;5843.54148
 649.15; 5825.950;    1.045;    0.000;5824.90520
 649.42; 5791.740;    2.971;    0.000;5788.76898
 649.69; 5702.050;   -1.864;    0.000;5703.91355
 649.96; 5714.790;    0.123;    0.000;5714.66754
 650.23; 5649.570;   -1.247;    0.000;5650.81732
 650.50; 5627.890;    2.479;    0.000;5625.41139
 650.77; 5575.900;   -0.845;    0.000;5576.74490
 651.04; 5576.490;    4.423;    0.000;5572.06773
 651.31; 5509.890;    1.202;    0.000;5508.68764
 651.58; 5480.930;    1.992;    0.000;5478.93768
 651.85; 5445.780;    0.651;    0.000;5445.12854
 652.12; 5448.520;    1.250;    0.000;5447.27002
 652.39; 5403.780;    2.362;    0.000;5401.41729
 652.66; 5347.070;    3.281;    0.000;5343.78857
 652.93; 5278.820;    2.255;    0.000;5276.56482
 653.20; 5286.910;    2.949;    0.000;5283.96141
 653.47; 5257.160;    0.469;    0.000;5256.69141
 653.74; 5190.080;    4.386;    0.000;5185.69383
 654.01; 5176.190;    2.973;    0.000;5173.21744
 654.28; 5140.660;    1.301;    0.000;5139.35891
 654.55; 5105.460;   -1.832;    0.000;5107.29246
 654.81; 5053.010;    3.639;    0.000;5049.37102
 655.08; 5057.920;    0.624;    0.000;5057.29617
 655.35; 5000.740;    4.320;    0.000;4996.42023
 655.62; 4992.400;   -1.529;    0.000;4993.92865
 655.89; 4937.580;    2.852;    0.000;4934.72758
 656.16; 4912.520;    0.510;    0.000;4912.01002
 656.43; 4866.740;    3.440;    0.000;4863.30023
 656.70; 4832.240;    1.716;    0.000;4830.52398
 656.97; 4801.940;    2.947;    0.000;4798.99244
 657.24; 4792.790;    2.443;    0.000;4790.34754
 657.51; 4739.450;    5.190;    0.000;4734.26020
 657.78; 4707.620;    2.088;    0.000;4705.53262
 658.05; 4648.850;    2.378;    0.000;4646.47260
 658.32; 4634.140;    2.024;    0.000;4632.11639
 658.59; 4611.710;    2.130;    0.000;4609.57996
 658.86; 4572.410;    1.824;    0.000;4570.58641
 659.12; 4549.090;    2.666;    0.000;4546.42359
 659.39; 4484.480;    1.124;    0.000;4483.35623
 659.66; 4480.240;    3.401;    0.000;4476.83898
 659.93; 4434.490;    1.985;    0.000;4432.50523
 660.20; 4418.860;    3.110;    0.000;4415.74986
 660.47; 4354.430;    2.070;    0.000;4352.36018
 660.74; 4357.380;    1.519;    0.000;4355.86113
 661.01; 4315.090;    5.176;    0.000;4309.91359
 661.28; 4299.960;    1.305;    0.000;4298.65496
 661.55; 4287.280;    3.871;    0.000;4283.40854
 661.81; 4251.840;    0.349;    0.000;4251.49109
 662.08; 4207.130;   -1.056;    0.000;4208.18613
 662.35; 4169.260;    0.981;    0.000;4168.27852
 662.62; 4160.070;    0.535;    0.000;4159.53482
 662.89; 4134.540;    3.275;    0.000;4131.26504
 663.16; 4066.580;   -0.139;    0.000;4066.71883
 663.43; 4047.890;    1.344;    0.000;4046.54614
 663.70; 4018.790;    3.266;    0.000;4015.52379
 663.96; 4010.120;    1.253;    0.000;4008.86762
 664.23; 3957.160;    0.530;    0.000;3956.62991
 664.50; 3942.190;    2.487;    0.000;3939.70244
 664.77; 3912.970;   -0.877;    0.000;3913.84747
 665.04; 3884.130;    3.953;    0.000;3880.17738
 665.31; 3845.780;    0.842;    0.000;3844.93753
 665.58; 3840.710;    2.457;    0.000;3838.25246
 665.84; 3791.090;    0.780;    0.000;3790.31009
 666.11; 3777.460;    4.791;    0.000;3772.66871
 666.38; 3735.700;   -0.827;    0.000;3736.52745
 666.65; 3718.770;    2.049;    0.000;3716.72127
 666.92; 3695.440;   -1.602;    0.000;3697.04244
 667.19; 3698.550;    2.217;    0.000;3696.33255
 667.46; 3629.510;    0.044;    0.000;3629.46626
 667.72; 3607.490;    2.615;    0.000;3604.87499
 667.99; 3577.320;    1.617;    0.000;3575.70257
 668.26; 3564.080;    4.448;    0.000;3559.63258
 668.53; 3513.260;    1.530;    0.000;3511.73001
 668.80; 3548.570;    1.789;    0.000;3546.78132
 669.06; 3471.230;    3.941;    0.000;3467.28873
 669.33; 3466.600;    4.309;    0.000;3462.29135
 669.60; 3408.420;    0.438;    0.000;3407.98242
 669.87; 3403.320;    1.599;    0.000;3401.72132
 670.14; 3379.700;   -0.375;    0.000;3380.07495
 670.41; 3372.060;    1.401;    0.000;3370.65881
 670.67; 3308.300;    2.004;    0.000;3306.29630
 670.94; 3288.630;    0.808;    0.000;3287.82238
 671.21; 3275.360;    2.151;    0.000;3273.20886
 671.48; 3239.180;   -0.835;    0.000;3240.01493
 671.75; 3218.770;    2.424;    0.000;3216.34627
 672.01; 3196.940;    3.504;    0.000;3193.43619
 672.28; 3164.420;    1.559;    0.000;3162.86117
 672.55; 3159.180;    3.671;    0.000;3155.50868
 672.82; 3108.590;    1.102;    0.000;3107.48759
 673.08; 3097.670;    2.175;    0.000;3095.49492
 673.35; 3068.910;   -0.296;    0.000;3069.20616
 673.62; 3040.570;    0.715;    0.000;3039.85507
 673.89; 3029.760;   -1.376;    0.000;3031.13626
 674.16; 3000.810;    2.699;    0.000;2998.11131
 674.42; 2986.500;    3.569;    0.000;2982.93125
 674.69; 2966.250;    0.779;    0.000;2965.47125
 674.96; 2902.140;    1.980;    0.000;2900.15989
 675.23; 2901.700;    2.409;    0.000;2899.29120
 675.49; 2887.520;    1.455;    0.000;2886.06502
 675.76; 2866.230;    3.918;    0.000;2862.31248
 676.03; 2838.330;    2.640;    0.000;2835.69008
 676.30; 2796.400;    3.191;    0.000;2793.20865
 676.56; 2780.510;    1.544;    0.000;2778.96626
 676.83; 2761.870;    2.005;    0.000;2759.86512
 677.10; 2723.570;    0.876;    0.000;2722.69382
 677.37; 2730.400;    5.404;    0.000;2724.99615
 677.63; 2701.830;   -0.745;    0.000;2702.57508
 677.90; 2676.300;    4.010;    0.000;2672.29005
 678.17; 2682.410;    1.760;    0.000;2680.64991
 678.44; 2658.530;    2.400;    0.000;2656.13003
 678.70; 2617.080;    1.548;    0.000;2615.53258
 678.97; 2605.250;    1.459;    0.000;2603.79125
 679.24; 2566.720;    0.824;    0.000;2565.89622
 679.50; 2541.140;    2.297;    0.000;2538.84239
 679.77; 2539.560;    0.320;    0.000;2539.24006
 680.04; 2528.240;    0.405;    0.000;2527.83499
 680.31; 2484.460;   -0.887;    0.000;2485.34746
 680.57; 2488.230;    2.870;    0.000;2485.35998
 680.84; 2455.860;    1.740;    0.000;2454.12011
 681.11; 2457.340;    1.115;    0.000;2456.22509
 681.37; 2402.680;   -1.815;    0.000;2404.49493
 681.64; 2390.170;   -0.892;    0.000;2391.06242
 681.91; 2384.000;    4.430;    0.000;2379.57000
 682.17; 2376.280;    3.001;    0.000;2373.27878
 682.44; 2308.110;   -1.503;    0.000;2309.61261
 682.71; 2317.320;    3.140;    0.000;2314.18007
 682.98; 2296.000;    1.636;    0.000;2294.36375
 683.24; 2285.610;   -0.827;    0.000;2286.43761
 683.51; 2237.290;    0.954;    0.000;2236.33629
 683.78; 2257.370;    1.344;    0.000;2256.02637
 684.04; 2222.760;    1.450;    0.000;2221.31001
 684.31; 2216.880;    0.043;    0.000;2216.83738
 684.58; 2189.010;    1.136;    0.000;2187.87376
 684.84; 2169.320;    2.069;    0.000;2167.25132
 685.11; 2150.980;    3.858;    0.000;2147.12248
 685.38; 2165.600;    4.713;    0.000;2160.88760
 685.64; 2128.380;    0.870;    0.000;2127.50988
 685.91; 2131.580;   -0.069;    0.000;2131.64883
 686.17; 2106.010;    2.316;    0.000;2103.69376
 686.44; 2085.470;   -0.858;    0.000;2086.32747
 686.71; 2064.410;    1.816;    0.000;2062.59366
 686.97; 2044.140;   -1.670;    0.000;2045.81001
 687.24; 2033.880;    0.944;    0.000;2032.93625
 687.51; 1996.270;    0.550;    0.000;1995.72002
 687.77; 2000.190;    1.104;    0.000;1999.08619
 688.04; 1979.580;    1.634;    0.000;1977.94621
 688.31; 1948.530;    2.836;    0.000;1945.69378
 688.57; 1961.180;    1.955;    0.000;1959.22505
 688.84; 1907.450;    1.581;    0.000;1905.86870
 689.10; 1912.240;    3.057;    0.000;1909.18249
 689.37; 1901.440;    1.930;    0.000;1899.50994
 689.64; 1884.090;    0.310;    0.000;1883.77997
 689.90; 1848.900;    1.576;    0.000;1847.32377
 690.17; 1836.470;    3.089;    0.000;1833.38122
 690.44; 1811.430;   -0.029;    0.000;1811.45880
 690.70; 1817.680;    2.069;    0.000;1815.61130
 690.97; 1770.290;    0.464;    0.000;1769.82629
 691.23; 1772.970;    2.264;    0.000;1770.70622
 691.50; 1758.730;    0.368;    0.000;1758.36248
 691.77; 1737.660;    3.309;    0.000;1734.35128
 692.03; 1723.120;   -0.905;    0.000;1724.02500
 692.30; 1716.010;    1.190;    0.000;1714.82001
 692.56; 1694.440;    0.126;    0.000;1694.31369
 692.83; 1675.190;    0.384;    0.000;1674.80619
 693.10; 1665.220;    3.125;    0.000;1662.09497
 693.36; 1642.340;    2.911;    0.000;1639.42872
 693.63; 1624.160;    0.608;    0.000;1623.55253
 693.89; 1615.000;   -0.538;    0.000;1615.53750
 694.16; 1591.730;    0.642;    0.000;1591.08748
 694.42; 1586.730;    0.609;    0.000;1586.12123
 694.69; 1581.520;    3.661;    0.000;1577.85877
 694.96; 1556.990;    3.156;    0.000;1553.83374
 695.22; 1540.070;    2.274;    0.000;1537.79620
 695.49; 1526.260;    3.946;    0.000;1522.31376
 695.75; 1498.210;    2.188;    0.000;1496.02246
 696.02; 1493.030;    2.641;    0.000;1490.38878
 696.28; 1469.650;    2.575;    0.000;1467.07502
 696.55; 1468.240;    1.420;    0.000;1466.81999
 696.81; 1426.950;    1.639;    0.000;1425.31120
 697.08; 1435.900;    0.668;    0.000;1435.23252
 697.34; 1405.280;    0.815;    0.000;1404.46503
 697.61; 1398.790;    1.273;    0.000;1397.51754
 697.88; 1381.200;    0.400;    0.000;1380.79995
 698.14; 1349.080;    0.565;    0.000;1348.51496
 698.41; 1331.030;    2.316;    0.000;1328.71378
 698.67; 1311.210;    0.394;    0.000;1310.81621
 698.94; 1312.880;   -0.249;    0.000;1313.12875
 699.20; 1287.880;   -1.043;    0.000;1288.92250
 699.47; 1265.120;    3.237;    0.000;1261.88250
 699.73; 1265.920;    2.318;    0.000;1263.60254
 700.00; 1251.180;   -2.205;    0.000;1253.38505
 700.26; 1228.330;    1.921;    0.000;1226.40871
 700.53; 1212.530;   -0.345;    0.000;1212.87503
 700.79; 1208.220;    2.044;    0.000;1206.17622
 701.06; 1152.910;    1.224;    0.000;1151.68628
 701.32; 1172.800;    3.382;    0.000;1169.41755
 701.59; 1146.690;    0.240;    0.000;1146.44994
 701.85; 1141.880;   -1.337;    0.000;1143.21750
 702.12; 1115.100;   -0.553;    0.000;1115.65248
 702.38; 1103.670;    0.720;    0.000;1102.95004
 702.65; 1100.530;    2.704;    0.000;1097.82628
 702.91; 1084.170;    3.130;    0.000;1081.04004
 703.18; 1056.450;    0.159;    0.000;1056.29120
 703.44; 1043.680;    2.589;    0.000;1041.09130
 703.71; 1035.450;    0.451;    0.000;1034.99870
 703.97; 1004.160;    1.933;    0.000;1002.22747
 704.24; 1000.050;    2.733;    0.000;997.31749
 704.50;  979.270;   -1.066;    0.000;980.33627
 704.76;  971.970;    0.973;    0.000;970.99747
 705.03;  958.410;    3.154;    0.000;955.25622
 705.29;  928.260;   -1.855;    0.000;930.11501
 705.56;  930.980;    0.824;    0.000;930.15623
 705.82;  905.310;    1.599;    0.000;903.71125
 706.09;  921.270;    3.196;    0.000;918.07377
 706.35;  862.840;   -0.994;    0.000;863.83378
 706.62;  870.860;    3.101;    0.000;867.75874
 706.88;  849.050;    0.259;    0.000;848.79124
 707.15;  837.930;    2.235;    0.000;835.69499
 707.41;  808.720;    1.023;    0.000;807.69747
 707.67;  814.890;    2.314;    0.000;812.57626
 707.94;  805.390;    0.341;    0.000;805.04876
 708.20;  778.560;    2.445;    0.000;776.11500
 708.47;  778.040;    0.235;    0.000;777.80498
 708.73;  769.870;    1.543;    0.000;768.32750
 709.00;  736.310;    1.543;    0.000;734.76750
 709.26;  746.730;    3.355;    0.000;743.37498
 709.52;  717.530;    1.150;    0.000;716.38003
 709.79;  715.230;    2.364;    0.000;712.86623
 710.05;  708.980;    1.482;    0.000;707.49748
 710.32;  710.740;    2.600;    0.000;708.13999
 710.58;  668.980;   -0.961;    0.000;669.94123
 710.84;  676.080;    3.686;    0.000;672.39377
 711.11;  673.120;    0.292;    0.000;672.82750
 711.37;  660.870;    3.571;    0.000;657.29875
 711.64;  646.750;    1.284;    0.000;645.46625
 711.90;  652.310;    3.639;    0.000;648.67125
 712.16;  640.170;    3.284;    0.000;636.88623
 712.43;  636.790;    1.572;    0.000;635.21748
 712.69;  626.930;    3.364;    0.000;623.56624
 712.96;  602.910;    2.591;    0.000;600.31872
 713.22;  601.070;    1.612;    0.000;599.45751
 713.48;  598.840;    0.123;    0.000;598.71753
 713.75;  588.050;   -1.460;    0.000;589.50999
 714.01;  589.240;    5.713;    0.000;583.52749
 714.27;  568.880;    1.730;    0.000;567.15000
 714.54;  586.880;    2.946;    0.000;583.93375
 714.80;  570.400;    1.184;    0.000;569.21627
 715.06;  560.230;    2.250;    0.000;557.97998
 715.33;  543.910;    1.124;    0.000;542.78622
 715.59;  549.820;    1.466;    0.000;548.35376
 715.86;  527.000;    3.069;    0.000;523.93125
 716.12;  534.770;    1.867;    0.000;532.90252
 716.38;  529.620;    2.986;    0.000;526.63375
 716.65;  530.800;    3.819;    0.000;526.98124
 716.91;  513.050;    0.629;    0.000;512.42124
 717.17;  521.750;    3.425;    0.000;518.32500
 717.44;  518.460;    2.554;    0.000;515.90627
 717.70;  519.550;    3.246;    0.000;516.30374
 717.96;  504.030;    0.561;    0.000;503.46875
 718.23;  506.940;   -0.406;    0.000;507.34625
 718.49;  497.050;    1.106;    0.000;495.94374
 718.75;  503.500;    4.903;    0.000;498.59750
 719.02;  490.790;    0.034;    0.000;490.75626
 719.28;  490.090;    0.564;    0.000;489.52625
 719.54;  478.650;    0.788;    0.000;477.86249
 719.80;  488.650;    2.293;    0.000;486.35749
 720.07;  479.850;   -0.094;    0.000;479.94376
 720.33;  480.510;    1.286;    0.000;479.22376
 720.59;  473.310;    1.628;    0.000;471.68250
 720.86;  473.650;   -1.405;    0.000;475.05499
 721.12;  476.420;    1.731;    0.000;474.68876
 721.38;  480.700;    4.088;    0.000;476.61251
 721.65;  461.420;   -0.108;    0.000;461.52751
 721.91;  483.340;   -0.026;    0.000;483.36625
 722.17;  457.210;   -0.304;    0.000;457.51374
 722.43;  470.740;    3.338;    0.000;467.40249
 722.70;  452.590;    0.495;    0.000;452.09500
 722.96;  468.050;    4.814;    0.000;463.23624
 723.22;  456.770;    2.186;    0.000;454.58374
 723.48;  459.580;    3.430;    0.000;456.14999
 723.75;  433.470;    2.215;    0.000;431.25500
 724.01;  462.220;    1.500;    0.000;460.72000
 724.27;  452.830;   -0.826;    0.000;453.65624
 724.54;  465.070;    2.814;    0.000;462.25626
 724.80;  445.340;   -1.109;    0.000;446.44875
 725.06;  454.460;    3.160;    0.000;451.29999
 725.32;  456.100;    2.344;    0.000;453.75626
 725.59;  452.220;    1.226;    0.000;450.99375
 725.85;  436.610;    2.034;    0.000;434.57624
 726.11;  448.340;    2.994;    0.000;445.34625
 726.37;  430.830;    3.204;    0.000;427.62624
 726.64;  465.460;    2.474;    0.000;462.98624
 726.90;  443.500;    3.596;    0.000;439.90375
 727.16;  435.830;    0.375;    0.000;435.45499
 727.42;  441.500;    0.449;    0.000;441.05125
 727.68;  442.520;    0.172;    0.000;442.34749
 727.95;  427.540;    2.132;    0.000;425.40751
 728.21;  434.340;    3.517;    0.000;430.82250
 728.47;  436.040;   -0.545;    0.000;436.58501
 728.73;  435.040;    3.100;    0.000;431.94001
 729.00;  426.060;    0.755;    0.000;425.30500
 729.26;  435.670;    0.587;    0.000;435.08251
 729.52;  422.950;   -0.405;    0.000;423.35501
 729.78;  424.350;   -2.089;    0.000;426.43876
 730.04;  419.040;    4.343;    0.000;414.69751
 730.31;  414.120;    3.566;    0.000;410.55375
 730.57;  403.610;    4.318;    0.000;399.29249
 730.83;  425.970;    2.994;    0.000;422.97625
 731.09;  409.740;   -0.604;    0.000;410.34374
 731.35;  420.240;    2.505;    0.000;417.73499
 731.62;  400.020;    0.100;    0.000;399.91999
 731.88;  408.700;    1.690;    0.000;407.01001
 732.14;  406.320;   -1.254;    0.000;407.57376
 732.40;  404.330;    3.940;    0.000;400.38999
 732.66;  393.010;    1.069;    0.000;391.94126
 732.92;  383.700;    2.316;    0.000;381.38376
 733.19;  389.190;    1.539;    0.000;387.65125
 733.45;  396.900;    5.839;    0.000;391.06124
 733.71;  380.340;    1.001;    0.000;379.33875
 733.97;  424.840;    3.849;    0.000;420.99125
 734.23;  373.550;   -2.451;    0.000;376.00124
 734.49;  388.600;    3.328;    0.000;385.27251
 734.76;  382.670;    1.984;    0.000;380.68626
 735.02;  382.950;    1.000;    0.000;381.95001
 735.28;  377.140;    1.494;    0.000;375.64626
 735.54;  368.710;    2.599;    0.000;366.11124
 735.80;  364.200;    3.059;    0.000;361.14126
 736.06;  372.590;    1.774;    0.000;370.81625
 736.32;  355.430;   -0.745;    0.000;356.17499
 736.59;  370.470;    1.776;    0.000;368.69375
 736.85;  356.370;    2.046;    0.000;354.32375
 737.11;  350.450;    1.040;    0.000;349.41001
 737.37;  354.400;   -0.538;    0.000;354.93749
 737.63;  358.680;    2.409;    0.000;356.27124
 737.89;  347.750;   -0.147;    0.000;347.89750
 738.15;  343.330;    2.342;    0.000;340.98749
 738.41;  327.060;   -1.143;    0.000;328.20250
 738.67;  339.740;    0.023;    0.000;339.71749
 738.94;  316.910;   -1.278;    0.000;318.18750
 739.20;  337.090;   -0.135;    0.000;337.22500
 739.46;  332.070;    1.821;    0.000;330.24876
 739.72;  317.870;    2.342;    0.000;315.52750
 739.98;  308.360;   -0.039;    0.000;308.39874
 740.24;  313.200;    1.996;    0.000;311.20376
 740.50;  326.140;    2.144;    0.000;323.99626
 740.76;  313.220;    4.496;    0.000;308.72375
 741.02;  295.450;    2.037;    0.000;293.41251
 741.28;  315.120;    4.015;    0.000;311.10500
 741.54;  302.520;    2.483;    0.000;300.03749
 741.81;  304.190;    3.010;    0.000;301.18000
 742.07;  288.490;    1.163;    0.000;287.32749
 742.33;  296.410;    2.645;    0.000;293.76500
 742.59;  291.110;    1.821;    0.000;289.28874
 742.85;  293.060;    0.298;    0.000;292.76250
 743.11;  268.080;    1.705;    0.000;266.37499
 743.37;  284.150;    0.685;    0.000;283.46499
 743.63;  274.270;    4.071;    0.000;270.19874
 743.89;  274.930;    4.113;    0.000;270.81749
 744.15;  273.170;    0.405;    0.000;272.76501
 744.41;  260.950;   -1.540;    0.000;262.49001
 744.67;  256.910;    1.661;    0.000;255.24875
 744.93;  266.210;    0.085;    0.000;266.12499
 745.19;  251.820;    2.245;    0.000;249.57501
 745.45;  257.320;    0.485;    0.000;256.83501
 745.71;  241.480;    1.388;    0.000;240.09250
 745.97;  251.370;    1.060;    0.000;250.31000
 746.23;  240.220;    1.283;    0.000;238.93750
 746.49;  238.680;    3.820;    0.000;234.85999
 746.75;  240.460;    3.335;    0.000;237.12501
 747.02;  231.000;    1.569;    0.000;229.43125
 747.28;  215.670;   -0.540;    0.000;216.21000
 747.54;  225.540;    2.818;    0.000;222.72249
 747.80;  216.980;   -1.074;    0.000;218.05375
 748.06;  217.450;   -5.407;    0.000;222.85750
 748.32;  209.050;    3.335;    0.000;205.71500
 748.58;  221.590;    4.275;    0.000;217.31500
 748.84;  215.200;    1.499;    0.000;213.70125
 749.10;  295.360;    9.339;    0.000;286.02124
 749.36;  210.740;    2.190;    0.000;208.55001
 749.62;  203.430;    2.432;    0.000;200.99749
 749.88;  194.590;    1.871;    0.000;192.71875
 750.14;  194.240;    3.449;    0.000;190.79126
 750.40;  196.030;   -1.523;    0.000;197.55250
 750.66;  200.320;    5.100;    0.000;195.22001
 750.91;  192.540;    1.121;    0.000;191.41874
 751.17;  182.310;    4.999;    0.000;177.31125
 751.43;  171.960;   -1.806;    0.000;173.76626
 751.69;  185.670;    4.175;    0.000;181.49500
 751.95;  178.250;    1.244;    0.000;177.00625
 752.21;  178.920;    2.675;    0.000;176.24500
 752.47;  173.500;    1.139;    0.000;172.36125
 752.73;  166.420;    3.609;    0.000;162.81125
 752.99;  145.860;   -0.211;    0.000;146.07125
 753.25;  164.820;    2.358;    0.000;162.46251
 753.51;  157.670;    1.201;    0.000;156.46875
 753.77;  154.100;    1.548;    0.000;152.55251
 754.03;  158.260;    0.859;    0.000;157.40124
 754.29;  159.330;    1.796;    0.000;157.53375
 754.55;  144.340;    3.635;    0.000;140.70500
 754.81;  147.750;    2.146;    0.000;145.60375
 755.07;  151.040;    0.389;    0.000;150.65124
 755.33;  150.010;    2.674;    0.000;147.33624
 755.59;  135.200;    1.291;    0.000;133.90875
 755.85;  141.820;    1.286;    0.000;140.53376
 756.10;  136.110;    2.474;    0.000;133.63625
 756.36;  134.650;    1.336;    0.000;133.31374
 756.62;  124.690;    1.236;    0.000;123.45375
 756.88;  138.900;    1.444;    0.000;137.45624
 757.14;  125.130;    1.900;    0.000;123.23000
 757.40;  134.710;    3.004;    0.000;131.70626
 757.66;  122.710;    2.839;    0.000;119.87125
 757.92;  127.700;    2.434;    0.000;125.26625
 758.18;  123.900;    1.880;    0.000;122.02000
 758.44;  120.290;    1.215;    0.000;119.07500
 758.70;  112.710;    1.508;    0.000;111.20250
 758.95;  123.560;   -0.256;    0.000;123.81625
 759.21;  104.820;    0.169;    0.000;104.65125
 759.47;  130.540;    4.939;    0.000;125.60124
 759.73;   98.050;    0.292;    0.000;97.75750
 759.99;  113.660;    3.420;    0.000;110.24000
 760.25;   93.090;    0.416;    0.000;92.67375
 760.51;   98.230;   -0.933;    0.000;99.16250
 760.77;  103.920;    3.746;    0.000;100.17375
 761.02;  112.270;    3.771;    0.000;108.49875
 761.28;   99.560;    1.756;    0.000;97.80375
 761.54;  101.340;    3.152;    0.000;98.18750
 761.80;   90.090;    2.394;    0.000;87.69625
 762.06;  106.410;    2.415;    0.000;103.99500
 762.32;   87.680;   -0.226;    0.000;87.90625
 762.58;   95.370;    0.177;    0.000;95.19250
 762.83;   95.950;    2.280;    0.000;93.67000
 763.09;   97.900;    4.425;    0.000;93.47500
 763.35;   80.080;    2.086;    0.000;77.99375
 763.61;   93.450;    3.421;    0.000;90.02875
 763.87;   96.320;    2.898;    0.000;93.42250
 764.13;   84.180;    2.771;    0.000;81.40875
 764.38;   76.660;    0.603;    0.000;76.05750
 764.64;   83.200;    0.809;    0.000;82.39125
 764.90;   82.820;    2.140;    0.000;80.68000
 765.16;   83.130;    2.909;    0.000;80.22125
 765.42;   73.560;    1.378;    0.000;72.18250
 765.68;   82.100;    1.506;    0.000;80.59375
 765.93;   71.580;    0.826;    0.000;70.75375
 766.19;   78.100;    1.595;    0.000;76.50500
 766.45;   64.110;    3.033;    0.000;61.07750
 766.71;   82.860;    1.970;    0.000;80.89000
 766.97;   60.280;    1.930;    0.000;58.35000
 767.22;   75.900;    0.001;    0.000;75.89875
 767.48;   70.390;    2.169;    0.000;68.22125
 767.74;   72.550;    3.239;    0.000;69.31125
 768.00;   64.230;    0.127;    0.000;64.10250
 768.26;   73.560;    2.041;    0.000;71.51875
 768.51;   59.850;    1.921;    0.000;57.92875
 768.77;   74.760;    2.866;    0.000;71.89375
 769.03;   56.580;    1.215;    0.000;55.36500
 769.29;   69.880;    3.609;    0.000;66.27125
 769.54;   53.210;   -1.861;    0.000;55.07125
 769.80;   60.440;    1.023;    0.000;59.41750
 770.06;   52.120;   -2.848;    0.000;54.96750
 770.32;   66.180;    3.336;    0.000;62.84375
 770.57;   51.950;    3.290;    0.000;48.66000
 770.83;   61.710;    2.001;    0.000;59.70875
 771.09;   45.870;    0.305;    0.000;45.56500
 771.35;   54.300;   -0.986;    0.000;55.28625
 771.61;   54.600;    3.224;    0.000;51.37625
 771.86;   68.400;    2.035;    0.000;66.36500
 772.12;   53.000;    2.678;    0.000;50.32250
 772.38;   52.960;    2.819;    0.000;50.14125
 772.63;   39.030;    2.169;    0.000;36.86125
 772.89;   50.390;    1.089;    0.000;49.30125
 773.15;   53.340;    3.095;    0.000;50.24500
 773.41;   45.690;    2.499;    0.000;43.19125
 773.66;   45.060;    2.453;    0.000;42.60750
 773.92;   52.590;    2.392;    0.000;50.19750
 774.18;   51.470;    0.616;    0.000;50.85375
 774.44;   37.810;    2.901;    0.000;34.90875
 774.69;   45.450;    2.365;    0.000;43.08500
 774.95;   38.130;    1.592;    0.000;36.53750
 775.21;   57.080;    3.401;    0.000;53.67875
 775.46;   35.820;    2.118;    0.000;33.70250
 775.72;   39.710;   -0.757;    0.000;40.46750
 775.98;   48.910;    2.870;    0.000;46.04000
 776.24;   33.860;    0.654;    0.000;33.20625
 776.49;   44.370;    0.461;    0.000;43.90875
 776.75;   41.640;   -0.097;    0.000;41.73750
 777.01;   35.830;    2.346;    0.000;33.48375
 777.26;   46.040;   -0.501;    0.000;46.54125
 777.52;   36.870;    3.513;    0.000;33.35750
 777.78;   36.170;    2.825;    0.000;33.34500
 778.03;   48.140;    4.813;    0.000;43.32750
 778.29;   35.920;   -1.135;    0.000;37.05500
 778.55;   39.010;    4.461;    0.000;34.54875
 778.80;   22.690;    4.707;    0.000;17.98250
 779.06;   33.860;    1.582;    0.000;32.27750
 779.32;   30.880;   -1.487;    0.000;32.36750
 779.57;   28.750;    5.735;    0.000;23.01500
 779.83;   23.530;    0.904;    0.000;22.62625
 780.09;   38.870;    4.139;    0.000;34.73125
 780.34;   26.190;    2.516;    0.000;23.67375
 780.60;   36.440;    5.276;    0.000;31.16375
 780.86;   31.640;    1.526;    0.000;30.11375
 781.11;   24.390;    2.318;    0.000;22.07250
 781.37;   14.550;    0.714;    0.000;13.83625
 781.63;   46.290;    0.601;    0.000;45.68875
 781.88;   16.330;    0.507;    0.000;15.82250
 782.14;   28.920;    2.296;    0.000;26.62375
 782.39;   15.900;    1.691;    0.000;14.20875
 782.65;   21.770;    0.065;    0.000;21.70500
 782.91;   14.420;    2.026;    0.000;12.39375
 783.16;   27.990;    1.395;    0.000;26.59500
 783.42;   15.330;    0.733;    0.000;14.59750
 783.67;   29.820;    2.081;    0.000;27.73875
 783.93;    7.280;    0.939;    0.000; 6.34125
 784.19;   19.620;    1.356;    0.000;18.26375
 784.44;   25.520;    2.641;    0.000;22.87875
 784.70;   25.020;    3.922;    0.000;21.09750
 784.96;   13.360;   -0.010;    0.000;13.37000
 785.21;   21.900;    0.863;    0.000;21.03750
 785.47;   20.320;    1.643;    0.000;18.67750
 785.72;    3.590;    0.114;    0.000; 3.47625
 785.98;    3.550;   -0.705;    0.000; 4.25500
 786.23;   12.030;    1.793;    0.000;10.23750
 786.49;    1.120;    0.989;    0.000; 0.13125
 786.75;   14.980;    3.019;    0.000;11.96125
 787.00;   -0.220;    0.529;    0.000;-0.74875
 787.26;   10.610;    1.590;    0.000; 9.02000
 787.51;    7.970;    0.141;    0.000; 7.82875
 787.77;   21.510;    1.200;    0.000;20.31000
 788.02;   13.740;    1.789;    0.000;11.95125
 788.28;    2.700;    0.800;    0.000; 1.90000
 788.54;    7.890;   -0.199;    0.000; 8.08875
 788.79;   15.010;    0.516;    0.000;14.49375
 789.05;   -2.130;    3.386;    0.000;-5.51625
 789.30;    1.760;    5.298;    0.000;-3.53750
 789.56;    3.440;    1.327;    0.000; 2.11250
 789.81;    2.770;    2.234;    0.000; 0.53625
 790.07;   -7.270;   -0.301;    0.000;-6.96875
 790.32;    8.080;    1.149;    0.000; 6.93125
 790.58;   -6.950;    1.655;    0.000;-8.60500
 790.83;    2.880;    5.036;    0.000;-2.15625
 791.09;   -4.130;    0.239;    0.000;-4.36875
 791.35;   -0.270;    0.884;    0.000;-1.15375
 791.60;    0.040;    1.294;    0.000;-1.25375
 791.86;   -0.770;    3.580;    0.000;-4.35000
 792.11;   -0.700;    0.661;    0.000;-1.36125
 792.37;   -0.310;    2.549;    0.000;-2.85875
 792.62;   -0.070;    2.610;    0.000;-2.68000
 792.88;    0.170;    2.671;    0.000;-2.50125
 793.13;   -5.280;    1.554;    0.000;-6.83375
 793.39;   -9.430;    2.964;    0.000;-12.39375
 793.64;  -16.520;    1.725;    0.000;-18.24500
 793.90;   -1.170;    0.824;    0.000;-1.99375
 794.15;   -4.750;    4.068;    0.000;-8.81750
 794.41;    4.870;    2.352;    0.000; 2.51750
 794.66;   -1.700;    1.508;    0.000;-3.20750
 794.92;   -1.390;    4.101;    0.000;-5.49125
 795.17;  -13.420;   -0.748;    0.000;-12.67250
 795.43;  -11.240;    2.310;    0.000;-13.55000
 795.68;    1.140;    1.050;    0.000; 0.09000
 795.94;   -2.400;    2.206;    0.000;-4.60625
 796.19;   -4.350;    2.890;    0.000;-7.24000
 796.44;    3.050;    2.810;    0.000; 0.24000
 796.70;  -17.960;   -0.166;    0.000;-17.79375
 796.95;    4.520;    4.159;    0.000; 0.36125
 797.21;  -14.110;    0.479;    0.000;-14.58875
 797.46;  -22.240;   -2.271;    0.000;-19.96875
 797.72;  -12.420;   -0.439;    0.000;-11.98125
 797.97;  -14.970;    0.895;    0.000;-15.86500
 798.23;  -19.880;    5.259;    0.000;-25.13875
 798.48;   -9.270;    0.045;    0.000;-9.31500
 798.74;  -13.160;    0.639;    0.000;-13.79875
 798.99;   -7.410;    2.686;    0.000;-10.09625
 799.24;  -21.400;    3.122;    0.000;-24.52250
 799.50;  -13.070;    1.000;    0.000;-14.07000
 799.75;  -17.210;   -0.770;    0.000;-16.44000
 800.01;  -14.990;   -0.245;    0.000;-14.74500
 800.26;  -31.840;   -0.215;    0.000;-31.62500
 800.52;  -10.880;    2.511;    0.000;-13.39125
 800.77;  -22.240;    2.716;    0.000;-24.95625
 801.02;  -14.600;    1.580;    0.000;-16.18000
 801.28;  -19.860;   -0.673;    0.000;-19.18750
 801.53;  -10.600;    0.356;    0.000;-10.95625
 801.79;  -27.500;    3.321;    0.000;-30.82125
 802.04;  -15.030;    1.775;    0.000;-16.80500
 802.29;  -23.830;    1.541;    0.000;-25.37125
 802.55;  -13.110;   -0.161;    0.000;-12.94875
 802.80;  -18.710;    1.750;    0.000;-20.46000
 803.06;   -8.400;    1.202;    0.000;-9.60250
 803.31;  -28.890;    2.051;    0.000;-30.94125
 803.56;   -9.580;    1.589;    0.000;-11.16875
 803.82;  -21.330;    1.819;    0.000;-23.14875
 804.07;  -19.150;    1.121;    0.000;-20.27125
 804.32;  -26.500;    2.470;    0.000;-28.97000
 804.58;  -20.930;    0.745;    0.000;-21.67500
 804.83;  -28.320;    2.861;    0.000;-31.18125
 805.09;  -16.550;    2.116;    0.000;-18.66625
 805.34;  -25.690;    2.130;    0.000;-27.82000
 805.59;  -20.350;    1.832;    0.000;-22.18250
 805.85;  -20.700;    2.691;    0.000;-23.39125
 806.10;  -18.110;    4.224;    0.000;-22.33375
 806.35;  -20.400;    1.335;    0.000;-21.73500
 806.61;  -12.440;    3.255;    0.000;-15.69500
 806.86;  -30.250;    2.753;    0.000;-33.00250
 807.11;  -17.780;    2.922;    0.000;-20.70250
 807.37;  -12.670;    2.905;    0.000;-15.57500
 807.62;  -26.130;    1.607;    0.000;-27.73750
 807.87;  -28.940;    6.104;    0.000;-35.04375
 808.13;  -20.190;    0.795;    0.000;-20.98500
 808.38;  -34.250;   -0.554;    0.000;-33.69625
 808.63;  -13.170;    4.699;    0.000;-17.86875
 808.89;  -36.310;   -1.511;    0.000;-34.79875
 809.14;  -28.050;    1.401;    0.000;-29.45125
 809.39;  -35.480;   -2.053;    0.000;-33.42750
 809.65;  -32.580;    1.450;    0.000;-34.03000
 809.90;  -30.290;    3.850;    0.000;-34.14000
 810.15;  -26.760;    2.366;    0.000;-29.12625
 810.41;  -27.040;    0.111;    0.000;-27.15125
 810.66;  -20.230;    1.721;    0.000;-21.95125
 810.91;  -35.710;    0.284;    0.000;-35.99375
 811.16;  -28.210;    3.254;    0.000;-31.46375
 811.42;  -31.160;    1.806;    0.000;-32.96625
 811.67;  -25.500;    5.146;    0.000;-30.64625
 811.92;  -30.520;    1.339;    0.000;-31.85875
 812.18;  -28.020;    3.764;    0.000;-31.78375
 812.43;  -44.410;    0.262;    0.000;-44.67250
 812.68;  -31.800;   -0.415;    0.000;-31.38500
 812.93;  -33.180;   -0.444;    0.000;-32.73625
 813.19;  -23.840;    3.415;    0.000;-27.25500
 813.44;  -35.990;   -0.468;    0.000;-35.52250
 813.69;  -17.280;    3.735;    0.000;-21.01500
 813.95;  -31.730;    0.120;    0.000;-31.85000
 814.20;  -24.090;    1.482;    0.000;-25.57250
 814.45;  -44.970;    1.362;    0.000;-46.33250
 814.70;  -30.540;    2.450;    0.000;-32.99000
 814.96;  -42.720;    1.610;    0.000;-44.33000
 815.21;  -26.430;    0.421;    0.000;-26.85125
 815.46;  -40.890;    3.360;    0.000;-44.25000
 815.71;  -23.680;    1.746;    0.000;-25.42625
 815.96;  -33.610;    1.210;    0.000;-34.82000
 816.22;  -29.280;    3.869;    0.000;-33.14875
 816.47;  -33.840;    1.704;    0.000;-35.54375
 816.72;  -38.430;    2.375;    0.000;-40.80500
 816.97;  -28.240;    0.006;    0.000;-28.24625
 817.23;  -22.510;    2.188;    0.000;-24.69750
 817.48;  -27.600;    0.579;    0.000;-28.17875
 817.73;  -45.680;    1.298;    0.000;-46.97750
 817.98;  -27.720;    4.060;    0.000;-31.78000
 818.23;  -31.440;    2.849;    0.000;-34.28875
 818.49;  -33.850;    2.114;    0.000;-35.96375
 818.74;  -29.390;    3.495;    0.000;-32.88500
 818.99;  -38.620;    3.039;    0.000;-41.65875
 819.24;  -17.220;    4.864;    0.000;-22.08375
 819.50;  -49.800;   -0.814;    0.000;-48.98625
 819.75;  -25.120;    1.827;    0.000;-26.94750
 820.00;  -22.100;    2.721;    0.000;-24.82125
 820.25;  -30.730;    2.957;    0.000;-33.68750
 820.50;  -49.040;    0.806;    0.000;-49.84625
 820.75;  -27.000;    2.321;    0.000;-29.32125
 821.01;  -38.500;   -0.526;    0.000;-37.97375
 821.26;  -36.140;    2.589;    0.000;-38.72875
 821.51;  -36.670;    1.920;    0.000;-38.59000
 821.76;  -35.550;    2.214;    0.000;-37.76375
 822.01;  -45.550;    2.021;    0.000;-47.57125
 822.26;  -37.280;    2.135;    0.000;-39.41500
 822.52;  -36.650;    0.341;    0.000;-36.99125
 822.77;  -37.150;    2.754;    0.000;-39.90375
 823.02;  -44.480;    3.078;    0.000;-47.55750
 823.27;  -42.680;    2.414;    0.000;-45.09375
 823.52;  -48.440;   -1.496;    0.000;-46.94375
 823.77;  -37.820;    2.965;    0.000;-40.78500
 824.03;  -36.840;   -1.638;    0.000;-35.20250
 824.28;  -42.650;    1.317;    0.000;-43.96750
 824.53;  -47.670;    1.336;    0.000;-49.00625
 824.78;  -38.710;    0.855;    0.000;-39.56500
 825.03;  -51.300;    2.570;    0.000;-53.87000
 825.28;  -42.260;    2.166;    0.000;-44.42625
 825.53;  -48.070;    2.836;    0.000;-50.90625
 825.78;  -32.770;    2.856;    0.000;-35.62625
 826.04;  -40.370;   -0.415;    0.000;-39.95500
 826.29;  -37.440;    0.965;    0.000;-38.40500
 826.54;  -47.160;    0.800;    0.000;-47.96000
 826.79;  -27.740;    0.228;    0.000;-27.96750
 827.04;  -48.660;    2.715;    0.000;-51.37500
 827.29;  -40.030;    2.820;    0.000;-42.85000
 827.54;  -43.820;    1.196;    0.000;-45.01625
 827.79;  -41.050;    0.577;    0.000;-41.62750
 828.04;  -33.690;    1.154;    0.000;-34.84375
 828.29;  -36.560;    2.582;    0.000;-39.14250
 828.55;  -46.070;    0.469;    0.000;-46.53875
 828.80;  -36.290;    3.072;    0.000;-39.36250
 829.05;  -40.240;    0.731;    0.000;-40.97125
 829.30;  -43.760;    2.580;    0.000;-46.34000
 829.55;  -44.430;    0.910;    0.000;-45.34000
 829.80;  -38.210;    4.061;    0.000;-42.27125
 830.05;  -45.760;   -0.123;    0.000;-45.63750
 830.30;  -41.490;    2.500;    0.000;-43.99000
 830.55;  -40.060;    1.209;    0.000;-41.26875
 830.80;  -44.150;    0.980;    0.000;-45.13000
 831.05;  -43.070;    1.500;    0.000;-44.57000
 831.30;  -23.610;    2.391;    0.000;-26.00125
 831.55;  -43.980;    2.223;    0.000;-46.20250
 831.80;  -33.790;    2.836;    0.000;-36.62625
 832.05;  -34.880;    1.240;    0.000;-36.12000
 832.30;  -24.150;    2.408;    0.000;-26.55750
 832.56;  -51.290;    2.081;    0.000;-53.37125
 832.81;  -49.490;    1.378;    0.000;-50.86750
 833.06;  -41.030;    4.117;    0.000;-45.14750
 833.31;  -47.030;    2.487;    0.000;-49.51750
 833.56;  -43.150;    0.243;    0.000;-43.39250
 833.81;  -37.020;    2.466;    0.000;-39.48625
 834.06;  -46.470;    1.622;    0.000;-48.09250
 834.31;  -45.900;    3.581;    0.000;-49.48125
 834.56;  -44.590;    4.500;    0.000;-49.09000
 834.81;  -39.650;    1.409;    0.000;-41.05875
 835.06;  -60.190;    0.406;    0.000;-60.59625
 835.31;  -39.890;    3.463;    0.000;-43.35250
 835.56;  -43.890;   -0.016;    0.000;-43.87375
 835.81;  -43.020;    2.260;    0.000;-45.28000
 836.06;  -34.920;    1.614;    0.000;-36.53375
 836.31;  -46.450;    2.148;    0.000;-48.59750
 836.56;  -55.530;    3.629;    0.000;-59.15875
 836.81;  -44.070;    2.047;    0.000;-46.11750
 837.06;  -46.020;    0.816;    0.000;-46.83625
 837.31;  -42.620;    1.456;    0.000;-44.07625
 837.56;  -49.360;    1.783;    0.000;-51.14250
 837.81;  -38.630;    2.975;    0.000;-41.60500
 838.06;  -49.750;    4.039;    0.000;-53.78875
 838.31;  -55.010;    0.147;    0.000;-55.15750
 838.56;  -63.510;    1.841;    0.000;-65.35125
 838.80;  -42.300;    2.314;    0.000;-44.61375
 839.05;  -48.790;    1.386;    0.000;-50.17625
 839.30;  -45.730;    0.001;    0.000;-45.73125
 839.55;  -51.190;    0.301;    0.000;-51.49125
 839.80;  -42.790;    3.539;    0.000;-46.32875
 840.05;  -51.380;    1.010;    0.000;-52.39000
 840.30;  -31.520;    4.226;    0.000;-35.74625
 840.55;  -48.380;    1.514;    0.000;-49.89375
 840.80;  -36.860;    4.875;    0.000;-41.73500
 841.05;  -50.750;    0.784;    0.000;-51.53375
 841.30;  -40.670;    3.494;    0.000;-44.16375
 841.55;  -58.100;   -0.995;    0.000;-57.10500
 841.80;  -48.000;    1.559;    0.000;-49.55875
 842.05;  -56.640;   -1.285;    0.000;-55.35500
 842.30;  -49.590;    2.414;    0.000;-52.00375
 842.55;  -55.420;    1.058;    0.000;-56.47750
 842.79;  -54.190;    1.925;    0.000;-56.11500
 843.04;  -50.420;    0.854;    0.000;-51.27375
 843.29;  -53.130;    2.419;    0.000;-55.54875
 843.54;  -56.460;    4.284;    0.000;-60.74375
 843.79;  -57.490;    1.813;    0.000;-59.30250
 844.04;  -46.970;    4.705;    0.000;-51.67500
 844.29;  -49.470;    2.770;    0.000;-52.24000
 844.54;  -50.770;    1.173;    0.000;-51.94250
 844.79;  -44.880;    3.172;    0.000;-48.05250
 845.04;  -45.400;   -1.031;    0.000;-44.36875
 845.28;  -51.380;    3.310;    0.000;-54.69000
 845.53;  -44.540;    1.750;    0.000;-46.29000
 845.78;  -43.370;    1.957;    0.000;-45.32750
 846.03;  -61.780;    1.346;    0.000;-63.12625
 846.28;  -52.800;    2.110;    0.000;-54.91000
 846.53;  -41.280;    0.154;    0.000;-41.43375
 846.78;  -42.490;    4.660;    0.000;-47.15000
 847.02;  -41.950;    2.714;    0.000;-44.66375
 847.27;  -41.690;    1.837;    0.000;-43.52750
 847.52;  -58.320;    3.047;    0.000;-61.36750
 847.77;  -46.170;    3.314;    0.000;-49.48375
 848.02;  -53.370;   -0.440;    0.000;-52.93000
 848.27;  -52.650;    3.787;    0.000;-56.43750
 848.52;  -54.620;    2.264;    0.000;-56.88375
 848.76;  -40.850;    0.844;    0.000;-41.69375
 849.01;  -57.060;    2.570;    0.000;-59.63000
 849.26;  -58.410;    0.859;    0.000;-59.26875
 849.51;  -49.290;    3.328;    0.000;-52.61750
 849.76;  -54.310;    1.469;    0.000;-55.77875
 850.01;  -65.610;    0.701;    0.000;-66.31125
 850.25;  -55.250;    0.585;    0.000;-55.83500
 850.50;  -48.920;    0.848;    0.000;-49.76750
 850.75;  -47.050;    1.875;    0.000;-48.92500
 851.00;  -51.010;   -0.499;    0.000;-50.51125
 851.25;  -49.050;    3.796;    0.000;-52.84625
 851.49;  -60.670;    3.533;    0.000;-64.20250
 851.74;  -60.340;   -0.102;    0.000;-60.23750
 851.99;  -51.260;    2.578;    0.000;-53.83750
 852.24;  -44.070;    0.231;    0.000;-44.30125
 852.49;  -59.180;    0.465;    0.000;-59.64500
 852.73;  -58.710;    2.121;    0.000;-60.83125
 852.98;  -63.720;    0.601;    0.000;-64.32125
 853.23;  -50.780;    4.595;    0.000;-55.37500
 853.48;  -64.790;   -0.339;    0.000;-64.45125
 853.73;  -53.930;    1.725;    0.000;-55.65500
 853.97;  -63.700;    1.999;    0.000;-65.69875
 854.22;  -52.000;    2.446;    0.000;-54.44625
 854.47;  -69.520;    2.151;    0.000;-71.67125
 854.72;  -60.890;    1.765;    0.000;-62.65500
 854.96;  -60.050;    2.703;    0.000;-62.75250
 855.21;  -48.270;    1.244;    0.000;-49.51375
 855.46;  -53.750;    0.944;    0.000;-54.69375
 855.71;  -60.000;    0.262;    0.000;-60.26250
 855.95;  -59.740;    2.922;    0.000;-62.66250
 856.20;  -64.700;    2.591;    0.000;-67.29125
 856.45;  -62.570;    1.355;    0.000;-63.92500
 856.70;  -59.330;    4.641;    0.000;-63.97125
 856.94;  -56.910;    1.589;    0.000;-58.49875
 857.19;  -45.290;    2.404;    0.000;-47.69375
 857.44;  -63.400;    1.933;    0.000;-65.33250
 857.69;  -51.160;    5.104;    0.000;-56.26375
 857.93;  -61.010;    3.511;    0.000;-64.52125
 858.18;  -56.150;    1.986;    0.000;-58.13625
 858.43;  -64.820;   -0.159;    0.000;-64.66125
 858.67;  -40.240;    5.415;    0.000;-45.65500
 858.92;  -53.770;    1.999;    0.000;-55.76875
 859.17;  -43.430;    4.201;    0.000;-47.63125
 859.42;  -64.750;    0.545;    0.000;-65.29500
 859.66;  -59.350;    3.158;    0.000;-62.50750
 859.91;  -62.640;   -0.270;    0.000;-62.37000
 860.16;  -61.710;    1.684;    0.000;-63.39375
 860.40;  -52.940;    1.197;    0.000;-54.13750
 860.65;  -66.510;    1.515;    0.000;-68.02500
 860.90;  -66.130;   -0.985;    0.000;-65.14500
 861.14;  -50.030;    0.160;    0.000;-50.19000
 861.39;  -65.920;    0.465;    0.000;-66.38500
 861.64;  -57.150;    3.563;    0.000;-60.71250
 861.88;  -65.140;    3.859;    0.000;-68.99875
 862.13;  -60.210;    2.254;    0.000;-62.46375
 862.38;  -66.680;    0.489;    0.000;-67.16875
 862.62;  -55.280;    1.619;    0.000;-56.89875
 862.87;  -62.060;    0.080;    0.000;-62.14000
 863.12;  -63.430;    0.527;    0.000;-63.95750
 863.36;  -65.390;    3.011;    0.000;-68.40125
 863.61;  -54.670;    2.111;    0.000;-56.78125
 863.86;  -70.510;    0.804;    0.000;-71.31375
 864.10;  -57.230;    2.416;    0.000;-59.64625
 864.35;  -59.930;    1.164;    0.000;-61.09375
 864.60;  -62.550;    0.605;    0.000;-63.15500
 864.84;  -73.540;    1.896;    0.000;-75.43625
 865.09;  -62.480;    2.196;    0.000;-64.67625
 865.33;  -72.800;    3.348;    0.000;-76.14750
 865.58;  -59.020;    3.236;    0.000;-62.25625
 865.83;  -63.720;    2.321;    0.000;-66.04125
 866.07;  -69.810;    2.855;    0.000;-72.66500
 866.32;  -40.770;    2.915;    0.000;-43.68500
 866.57;  -53.770;   -1.800;    0.000;-51.97000
 866.81;  -66.880;    1.764;    0.000;-68.64375
 867.06;  -60.380;   -0.352;    0.000;-60.02750
 867.30;  -67.920;   -0.220;    0.000;-67.70000
 867.55;  -59.290;    1.786;    0.000;-61.07625
 867.80;  -57.120;    2.810;    0.000;-59.93000
 868.04;  -58.600;    4.080;    0.000;-62.68000
 868.29;  -63.840;    3.003;    0.000;-66.84250
 868.53;  -57.390;    3.311;    0.000;-60.70125
 868.78;  -68.140;   -0.996;    0.000;-67.14375
 869.03;  -53.590;    2.876;    0.000;-56.46625
 869.27;  -63.990;    2.398;    0.000;-66.38750
 869.52;  -57.460;    3.370;    0.000;-60.83000
 869.76;  -57.350;    2.531;    0.000;-59.88125
 870.01;  -60.160;    3.679;    0.000;-63.83875
 870.25;  -55.640;    3.981;    0.000;-59.62125
 870.50;  -65.890;    2.935;    0.000;-68.82500
 870.75;  -67.000;    0.636;    0.000;-67.63625
 870.99;  -45.920;    0.940;    0.000;-46.86000
 871.24;  -67.630;    0.904;    0.000;-68.53375
 871.48;  -48.510;    5.313;    0.000;-53.82250
 871.73;  -61.300;    2.930;    0.000;-64.23000
 871.97;  -60.390;    2.589;    0.000;-62.97875
 872.22;  -74.100;    3.342;    0.000;-77.44250
 872.46;  -59.230;    2.088;    0.000;-61.31750
 872.71;  -70.580;    0.244;    0.000;-70.82375
 872.95;  -53.950;    2.320;    0.000;-56.27000
 873.20;  -53.450;    2.894;    0.000;-56.34375
 873.44;  -45.600;    4.470;    0.000;-50.07000
 873.69;  -66.640;    2.315;    0.000;-68.95500
 873.94;  -51.910;    3.934;    0.000;-55.84375
 874.18;  -63.990;    1.847;    0.000;-65.83750
 874.43;  -56.270;    2.386;    0.000;-58.65625
 874.67;  -55.450;   -0.515;    0.000;-54.93500
 874.92;  -49.080;    1.961;    0.000;-51.04125
 875.16;  -66.630;    4.129;    0.000;-70.75875
 875.41;  -58.570;    0.016;    0.000;-58.58625
 875.65;  -68.750;   -0.228;    0.000;-68.52250
 875.90;  -46.840;    5.189;    0.000;-52.02875
 876.14;  -67.830;    2.056;    0.000;-69.88625
 876.39;  -63.180;    3.029;    0.000;-66.20875
 876.63;  -65.130;    2.815;    0.000;-67.94500
 876.88;  -60.610;    1.354;    0.000;-61.96375
 877.12;  -61.770;    1.954;    0.000;-63.72375
 877.36;  -63.680;    1.592;    0.000;-65.27250
 877.61;  -71.140;    1.324;    0.000;-72.46375
 877.85;  -54.110;    3.668;    0.000;-57.77750
 878.10;  -59.400;    1.811;    0.000;-61.21125
 878.34;  -50.970;    4.662;    0.000;-55.63250
 878.59;  -67.390;    3.560;    0.000;-70.95000
 878.83;  -62.580;    3.334;    0.000;-65.91375
 879.08;  -57.700;    4.274;    0.000;-61.97375
 879.32;  -55.360;    3.205;    0.000;-58.56500
 879.57;  -55.660;    3.221;    0.000;-58.88125
 879.81;  -58.230;    0.571;    0.000;-58.80125
 880.05;  -54.990;    2.775;    0.000;-57.76500
 880.30;  -49.350;    1.899;    0.000;-51.24875
 880.54;  -68.070;    2.659;    0.000;-70.72875
 880.79;  -68.120;    1.919;    0.000;-70.03875
 881.03;  -63.360;    1.780;    0.000;-65.14000
 881.28;  -56.730;    4.125;    0.000;-60.85500
 881.52;  -65.210;    4.539;    0.000;-69.74875
 881.76;  -51.450;    2.729;    0.000;-54.17875
 882.01;  -65.420;    1.770;    0.000;-67.19000
 882.25;  -61.280;    5.285;    0.000;-66.56500
 882.50;  -65.260;    1.586;    0.000;-66.84625
 882.74;  -55.690;    1.505;    0.000;-57.19500
 882.98;  -67.680;    2.839;    0.000;-70.51875
 883.23;  -58.240;    1.059;    0.000;-59.29875
 883.47;  -53.250;    4.950;    0.000;-58.20000
 883.72;  -48.370;    4.606;    0.000;-52.97625
 883.96;  -62.430;    4.194;    0.000;-66.62375
 884.20;  -60.280;    1.607;    0.000;-61.88750
 884.45;  -59.920;    3.172;    0.000;-63.09250
 884.69;  -46.150;    5.045;    0.000;-51.19500
 884.94;  -45.990;    3.589;    0.000;-49.57875
 885.18;  -54.370;    2.435;    0.000;-56.80500
 885.42;  -59.860;    2.079;    0.000;-61.93875
 885.67;  -49.530;    3.995;    0.000;-53.52500
 885.91;  -69.090;    1.904;    0.000;-70.99375
 886.15;  -48.510;    1.859;    0.000;-50.36875
 886.40;  -58.680;    1.438;    0.000;-60.11750
 886.64;  -59.040;    3.661;    0.000;-62.70125
 886.88;  -65.320;    2.609;    0.000;-67.92875
 887.13;  -51.590;    3.316;    0.000;-54.90625
 887.37;  -64.380;    2.561;    0.000;-66.94125
 887.62;  -46.190;    4.399;    0.000;-50.58875
 887.86;  -59.420;    3.491;    0.000;-62.91125
 888.10;  -41.610;    5.320;    0.000;-46.93000
 888.35;  -48.690;    4.015;    0.000;-52.70500
 888.59;  -57.440;    5.435;    0.000;-62.87500
 888.83;  -53.270;    3.104;    0.000;-56.37375
 889.07;  -44.590;    3.310;    0.000;-47.90000
 889.32;  -55.440;    5.429;    0.000;-60.86875
 889.56;  -59.510;    3.888;    0.000;-63.39750
 889.80;  -53.560;    2.438;    0.000;-55.99750
 890.05;  -55.940;    2.096;    0.000;-58.03625
 890.29;  -61.980;    3.392;    0.000;-65.37250
 890.53;  -51.890;    4.108;    0.000;-55.99750
 890.78;  -54.060;    3.010;    0.000;-57.07000
 891.02;  -53.320;    3.884;    0.000;-57.20375
 891.26;  -65.030;    4.090;    0.000;-69.12000
 891.51;  -43.470;    3.727;    0.000;-47.19750
 891.75;  -51.920;    1.636;    0.000;-53.55625
 891.99;  -53.010;    4.133;    0.000;-57.14250
 892.23;  -54.720;    1.094;    0.000;-55.81375
 892.48;  -40.810;    6.174;    0.000;-46.98375
 892.72;  -55.370;    4.309;    0.000;-59.67875
 892.96;  -41.590;    6.463;    0.000;-48.05250
 893.20;  -52.800;    3.534;    0.000;-56.33375
 893.45;  -55.350;    4.674;    0.000;-60.02375
 893.69;  -58.390;    4.350;    0.000;-62.74000
 893.93;  -27.100;    3.811;    0.000;-30.91125
 894.17;  -53.030;    3.632;    0.000;-56.66250
 894.42;  -41.980;    3.563;    0.000;-45.54250
 894.66;  -48.850;    3.575;    0.000;-52.42500
 894.90;  -43.360;    4.434;    0.000;-47.79375
 895.14;  -41.980;    5.156;    0.000;-47.13625
 895.39;  -39.580;    2.453;    0.000;-42.03250
 895.63;  -42.940;    3.581;    0.000;-46.52125
 895.87;  -48.930;    2.703;    0.000;-51.63250
 896.11;  -40.490;    3.902;    0.000;-44.39250
 896.36;  -32.160;    4.361;    0.000;-36.52125
 896.60;  -52.830;    4.684;    0.000;-57.51375
 896.84;  -29.310;    7.503;    0.000;-36.81250
 897.08;  -33.150;    7.704;    0.000;-40.85375
 897.32;  -34.180;    6.090;    0.000;-40.27000
 897.57;  -31.820;    5.235;    0.000;-37.05500
 897.81;  -35.670;    6.305;    0.000;-41.97500
 898.05;  -29.170;    6.220;    0.000;-35.39000
 898.29;  -28.910;    6.834;    0.000;-35.74375
 898.53;  -27.060;    5.426;    0.000;-32.48625
 898.78;  -14.220;    7.475;    0.000;-21.69500
 899.02;  -25.750;    5.856;    0.000;-31.60625
 899.26;  -24.160;    8.570;    0.000;-32.73000
 899.50;    4.290;    7.455;    0.000;-3.16500
 899.74;  -13.630;    5.930;    0.000;-19.56000
 899.99;  -17.700;    9.002;    0.000;-26.70250
 900.23;    1.950;    9.759;    0.000;-7.80875
 900.47;   -2.270;    9.193;    0.000;-11.46250
 900.71;   -4.210;    9.520;    0.000;-13.73000
 900.95;    4.230;    9.591;    0.000;-5.36125
 901.19;   14.030;    9.936;    0.000; 4.09375
 901.44;   16.400;   11.654;    0.000; 4.74625
 901.68;   30.700;   11.363;    0.000;19.33750
 901.92;   37.270;   12.930;    0.000;24.34000
 902.16;   46.700;   12.275;    0.000;34.42500
 902.40;   60.460;   15.089;    0.000;45.37125
 902.64;   83.250;   18.999;    0.000;64.25125
 902.88;  100.100;   18.346;    0.000;81.75375
 903.13;  108.380;   19.689;    0.000;88.69125

