p3
Integration time [ms]:  20.000
Averaging Nr. [scans]: 50
Smoothing Nr. [pixels]: 0
Data measured with spectrometer [name]: 1307077U2
Wave   ;Sample   ;Dark     ;Reference;Scope Corrected for Dark
[nm]   ;[counts] ;[counts] ;[counts] 

 350.80;   12.620;   -3.950;    0.000;16.57000
 351.10;    6.660;    2.790;    0.000; 3.87000
 351.39;    0.160;   -5.780;    0.000; 5.94000
 351.69;    0.360;   -6.710;    0.000; 7.07000
 351.99;    4.320;  -10.760;    0.000;15.08000
 352.28;   -9.540;  -11.870;    0.000; 2.33000
 352.58;   -5.260;    2.640;    0.000;-7.90000
 352.88;   -5.280;   -3.560;    0.000;-1.72000
 353.17;   13.860;   -1.460;    0.000;15.32000
 353.47;   -6.940;   -7.300;    0.000; 0.36000
 353.76;    5.560;    3.730;    0.000; 1.83000
 354.06;   10.160;    1.480;    0.000; 8.68000
 354.36;    3.160;    2.120;    0.000; 1.04000
 354.65;   12.640;   12.260;    0.000; 0.38000
 354.95;    1.960;    1.380;    0.000; 0.58000
 355.24;    2.360;   -7.520;    0.000; 9.88000
 355.54;   -1.600;   -6.140;    0.000; 4.54000
 355.84;    7.420;    1.010;    0.000; 6.41000
 356.13;   22.280;    1.060;    0.000;21.22000
 356.43;   -8.280;   -3.280;    0.000;-5.00000
 356.72;   -6.160;   -7.820;    0.000; 1.66000
 357.02;    9.700;    1.340;    0.000; 8.36000
 357.31;   22.280;    4.400;    0.000;17.88000
 357.61;   18.920;    0.390;    0.000;18.53000
 357.91;   -8.260;   -9.460;    0.000; 1.20000
 358.20;   -3.280;   -6.210;    0.000; 2.93000
 358.50;    4.080;   -0.320;    0.000; 4.40000
 358.79;    6.720;   -0.240;    0.000; 6.96000
 359.09;   19.800;    4.600;    0.000;15.20000
 359.38;    9.220;   -4.910;    0.000;14.13000
 359.68;  -15.060;   -6.920;    0.000;-8.14000
 359.98;   -0.580;   -3.210;    0.000; 2.63000
 360.27;    3.220;   -5.880;    0.000; 9.10000
 360.57;   -0.760;   -6.850;    0.000; 6.09000
 360.86;    9.600;   -3.030;    0.000;12.63000
 361.16;   -1.780;  -10.940;    0.000; 9.16000
 361.45;    1.900;   -3.610;    0.000; 5.51000
 361.75;   -4.340;   -6.330;    0.000; 1.99000
 362.04;   35.620;    7.330;    0.000;28.29000
 362.34;    1.160;   -8.080;    0.000; 9.24000
 362.64;   16.940;   -4.150;    0.000;21.09000
 362.93;   -6.820;  -11.650;    0.000; 4.83000
 363.23;   -9.800;   -3.380;    0.000;-6.42000
 363.52;    1.880;   -7.930;    0.000; 9.81000
 363.82;   14.660;   -3.630;    0.000;18.29000
 364.11;    1.500;   -3.640;    0.000; 5.14000
 364.41;  -14.100;   -7.090;    0.000;-7.01000
 364.70;   -5.420;   -9.000;    0.000; 3.58000
 365.00;   11.420;    0.260;    0.000;11.16000
 365.29;   -0.400;   -7.370;    0.000; 6.97000
 365.59;    4.540;   -3.180;    0.000; 7.72000
 365.88;   -5.640;  -15.140;    0.000; 9.50000
 366.18;   11.400;   -3.430;    0.000;14.83000
 366.47;   -3.680;   -8.280;    0.000; 4.60000
 366.77;   11.860;   -6.540;    0.000;18.40000
 367.06;    1.600;   -3.040;    0.000; 4.64000
 367.36;    4.080;   -6.830;    0.000;10.91000
 367.65;    2.500;   -1.150;    0.000; 3.65000
 367.95;    7.280;   -6.850;    0.000;14.13000
 368.24;    3.520;   -4.930;    0.000; 8.45000
 368.54;   -3.700;  -13.980;    0.000;10.28000
 368.83;   17.600;   -1.360;    0.000;18.96000
 369.13;    5.060;   -2.650;    0.000; 7.71000
 369.42;    0.780;   -5.530;    0.000; 6.31000
 369.72;    9.340;   -9.410;    0.000;18.75000
 370.01;   -3.440;   -1.870;    0.000;-1.57000
 370.31;   16.780;    2.490;    0.000;14.29000
 370.60;   22.640;   -0.490;    0.000;23.13000
 370.90;    6.840;   -4.910;    0.000;11.75000
 371.19;   -5.340;   -8.640;    0.000; 3.30000
 371.49;   -8.220;  -15.270;    0.000; 7.05000
 371.78;    3.560;  -12.190;    0.000;15.75000
 372.08;   13.460;   -4.150;    0.000;17.61000
 372.37;   -8.280;   -7.430;    0.000;-0.85000
 372.67;   11.780;   -1.910;    0.000;13.69000
 372.96;   -7.120;   -4.090;    0.000;-3.03000
 373.26;    2.080;  -11.210;    0.000;13.29000
 373.55;    3.140;   -3.340;    0.000; 6.48000
 373.85;   -8.020;  -14.000;    0.000; 5.98000
 374.14;    2.500;   -0.440;    0.000; 2.94000
 374.43;   -3.420;   -4.860;    0.000; 1.44000
 374.73;   -1.300;   -5.870;    0.000; 4.57000
 375.02;   12.140;   -6.640;    0.000;18.78000
 375.32;  -14.540;   -8.860;    0.000;-5.68000
 375.61;    5.080;   -4.690;    0.000; 9.77000
 375.91;   -5.460;   -6.400;    0.000; 0.94000
 376.20;  -12.960;   -8.800;    0.000;-4.16000
 376.50;    4.440;   -2.750;    0.000; 7.19000
 376.79;  -11.820;  -12.990;    0.000; 1.17000
 377.08;  -14.120;   -9.810;    0.000;-4.31000
 377.38;  -13.100;   -9.410;    0.000;-3.69000
 377.67;   -7.220;  -15.820;    0.000; 8.60000
 377.97;   -5.840;  -12.430;    0.000; 6.59000
 378.26;   -8.820;   -3.550;    0.000;-5.27000
 378.56;  -11.100;  -11.760;    0.000; 0.66000
 378.85;   10.440;   -6.770;    0.000;17.21000
 379.14;    4.000;  -10.870;    0.000;14.87000
 379.44;   -1.480;   -7.950;    0.000; 6.47000
 379.73;    0.420;  -12.070;    0.000;12.49000
 380.03;    5.220;  -10.640;    0.000;15.86000
 380.32;   -9.720;  -10.740;    0.000; 1.02000
 380.62;   -4.120;  -11.160;    0.000; 7.04000
 380.91;   11.100;   -2.790;    0.000;13.89000
 381.20;   -6.140;   -6.380;    0.000; 0.24000
 381.50;    1.700;   -6.110;    0.000; 7.81000
 381.79;   -7.700;   -7.870;    0.000; 0.17000
 382.09;   -1.400;   -7.030;    0.000; 5.63000
 382.38;   -9.420;  -10.330;    0.000; 0.91000
 382.67;   -3.280;  -10.730;    0.000; 7.45000
 382.97;   -6.740;   -5.370;    0.000;-1.37000
 383.26;    4.300;   -3.260;    0.000; 7.56000
 383.56;    5.820;   -3.260;    0.000; 9.08000
 383.85;    1.360;  -12.650;    0.000;14.01000
 384.14;    5.100;    0.820;    0.000; 4.28000
 384.44;    2.420;   -6.530;    0.000; 8.95000
 384.73;   -7.460;   -5.430;    0.000;-2.03000
 385.02;    1.420;   -6.450;    0.000; 7.87000
 385.32;    6.820;   -4.570;    0.000;11.39000
 385.61;   -9.720;  -16.270;    0.000; 6.55000
 385.91;    2.440;   -9.440;    0.000;11.88000
 386.20;   -3.120;  -10.110;    0.000; 6.99000
 386.49;  -18.920;  -14.900;    0.000;-4.02000
 386.79;    3.300;   -7.340;    0.000;10.64000
 387.08;   -6.800;   -6.300;    0.000;-0.50000
 387.37;   -1.780;   -8.420;    0.000; 6.64000
 387.67;   -9.160;   -6.130;    0.000;-3.03000
 387.96;    0.240;   -9.280;    0.000; 9.52000
 388.25;   -7.580;   -1.410;    0.000;-6.17000
 388.55;   -7.360;  -10.080;    0.000; 2.72000
 388.84;   -9.860;  -12.690;    0.000; 2.83000
 389.14;   10.400;  -11.090;    0.000;21.49000
 389.43;   -9.280;   -9.030;    0.000;-0.25000
 389.72;   -6.300;  -13.300;    0.000; 7.00000
 390.02;   -8.280;   -9.420;    0.000; 1.14000
 390.31;    5.440;   -2.070;    0.000; 7.51000
 390.60;    4.780;   -4.250;    0.000; 9.03000
 390.90;    0.820;  -15.000;    0.000;15.82000
 391.19;  -16.720;   -8.270;    0.000;-8.45000
 391.48;   -5.220;  -13.200;    0.000; 7.98000
 391.78;    0.860;   -9.570;    0.000;10.43000
 392.07;   61.480;   16.810;    0.000;44.67000
 392.36;    7.320;   -1.800;    0.000; 9.12000
 392.66;   -3.600;  -11.850;    0.000; 8.25000
 392.95;   -8.700;  -10.380;    0.000; 1.68000
 393.24;  -10.560;  -20.110;    0.000; 9.55000
 393.53;   -6.380;   -8.500;    0.000; 2.12000
 393.83;   -7.360;  -10.870;    0.000; 3.51000
 394.12;   -3.600;  -16.700;    0.000;13.10000
 394.41;   -2.820;  -13.050;    0.000;10.23000
 394.71;    8.380;   -7.960;    0.000;16.34000
 395.00;   -5.660;  -12.500;    0.000; 6.84000
 395.29;   -1.320;   -8.400;    0.000; 7.08000
 395.59;   -9.960;  -20.950;    0.000;10.99000
 395.88;   -7.540;  -16.060;    0.000; 8.52000
 396.17;  -13.340;   -8.460;    0.000;-4.88000
 396.46;   10.620;   -3.560;    0.000;14.18000
 396.76;   -9.700;  -13.050;    0.000; 3.35000
 397.05;   25.740;    2.180;    0.000;23.56000
 397.34;  -11.400;  -20.090;    0.000; 8.69000
 397.64;   -7.820;   -9.050;    0.000; 1.23000
 397.93;   -7.500;  -18.420;    0.000;10.92000
 398.22;  -14.220;  -12.920;    0.000;-1.30000
 398.51;   -6.660;   -9.770;    0.000; 3.11000
 398.81;  -10.040;  -12.510;    0.000; 2.47000
 399.10;   -8.560;   -2.690;    0.000;-5.87000
 399.39;   -1.200;  -11.900;    0.000;10.70000
 399.69;   -0.260;  -13.740;    0.000;13.48000
 399.98;    8.480;   -4.100;    0.000;12.58000
 400.27;  -11.880;  -13.520;    0.000; 1.64000
 400.56;    5.740;  -16.060;    0.000;21.80000
 400.86;   -2.100;  -13.820;    0.000;11.72000
 401.15;    3.440;   -4.180;    0.000; 7.62000
 401.44;   -9.680;  -15.730;    0.000; 6.05000
 401.73;    3.760;   -2.540;    0.000; 6.30000
 402.03;   17.240;  -10.300;    0.000;27.54000
 402.32;  -21.340;  -17.030;    0.000;-4.31000
 402.61;   -7.400;   -9.950;    0.000; 2.55000
 402.90;  -11.480;  -11.420;    0.000;-0.06000
 403.20;   -3.220;   -6.220;    0.000; 3.00000
 403.49;    4.100;   -6.030;    0.000;10.13000
 403.78;   -2.920;  -11.040;    0.000; 8.12000
 404.07;  -17.940;  -18.650;    0.000; 0.71000
 404.37;   -9.140;  -10.470;    0.000; 1.33000
 404.66;   -2.280;  -14.960;    0.000;12.68000
 404.95;    3.020;   -0.330;    0.000; 3.35000
 405.24;   -5.640;  -15.620;    0.000; 9.98000
 405.53;  -15.320;  -15.660;    0.000; 0.34000
 405.83;    0.040;   -4.700;    0.000; 4.74000
 406.12;   -3.760;  -10.900;    0.000; 7.14000
 406.41;   20.980;   -6.740;    0.000;27.72000
 406.70;   -1.860;  -12.650;    0.000;10.79000
 407.00;    9.540;   -5.150;    0.000;14.69000
 407.29;  -14.720;  -10.150;    0.000;-4.57000
 407.58;  -10.060;  -15.850;    0.000; 5.79000
 407.87;    1.760;  -15.280;    0.000;17.04000
 408.16;  -11.560;  -17.930;    0.000; 6.37000
 408.46;   -4.660;  -11.550;    0.000; 6.89000
 408.75;  -10.760;  -11.910;    0.000; 1.15000
 409.04;   -5.540;   -9.380;    0.000; 3.84000
 409.33;    4.500;   -5.530;    0.000;10.03000
 409.62;   14.940;   -9.060;    0.000;24.00000
 409.92;    1.480;   -7.890;    0.000; 9.37000
 410.21;  -14.020;  -11.510;    0.000;-2.51000
 410.50;   -8.020;  -15.240;    0.000; 7.22000
 410.79;   14.500;   -3.910;    0.000;18.41000
 411.08;   -2.260;  -18.230;    0.000;15.97000
 411.37;   -9.580;  -12.950;    0.000; 3.37000
 411.67;   -6.480;  -15.120;    0.000; 8.64000
 411.96;  -10.140;  -13.530;    0.000; 3.39000
 412.25;  -10.160;  -11.720;    0.000; 1.56000
 412.54;   -4.900;  -14.570;    0.000; 9.67000
 412.83;   -1.680;  -15.690;    0.000;14.01000
 413.13;    1.080;  -12.520;    0.000;13.60000
 413.42;   -8.480;  -11.540;    0.000; 3.06000
 413.71;    5.280;  -16.160;    0.000;21.44000
 414.00;  -18.260;  -15.050;    0.000;-3.21000
 414.29;    4.720;  -10.400;    0.000;15.12000
 414.58;  -18.740;  -20.050;    0.000; 1.31000
 414.87;   -6.460;  -11.570;    0.000; 5.11000
 415.17;   -5.300;  -14.460;    0.000; 9.16000
 415.46;   -8.720;  -14.740;    0.000; 6.02000
 415.75;   -4.140;  -15.050;    0.000;10.91000
 416.04;   -3.280;  -19.580;    0.000;16.30000
 416.33;   -1.240;  -10.240;    0.000; 9.00000
 416.62;   -3.060;  -16.750;    0.000;13.69000
 416.91;   -7.740;   -9.630;    0.000; 1.89000
 417.21;   -2.960;   -9.770;    0.000; 6.81000
 417.50;  -15.700;  -22.390;    0.000; 6.69000
 417.79;   -4.260;  -14.440;    0.000;10.18000
 418.08;   -3.360;  -16.260;    0.000;12.90000
 418.37;  -10.660;  -12.710;    0.000; 2.05000
 418.66;  -17.200;  -14.780;    0.000;-2.42000
 418.95;    8.800;  -12.220;    0.000;21.02000
 419.24;  -12.080;  -16.910;    0.000; 4.83000
 419.54;   -0.060;  -14.290;    0.000;14.23000
 419.83;   -4.520;   -7.000;    0.000; 2.48000
 420.12;   -4.660;  -17.080;    0.000;12.42000
 420.41;   15.840;   -6.120;    0.000;21.96000
 420.70;  -11.860;  -15.970;    0.000; 4.11000
 420.99;  -13.760;   -7.860;    0.000;-5.90000
 421.28;    2.340;  -14.590;    0.000;16.93000
 421.57;   -1.800;  -13.670;    0.000;11.87000
 421.86;   16.720;   -3.720;    0.000;20.44000
 422.16;    3.300;   -4.790;    0.000; 8.09000
 422.45;   -3.880;   -7.870;    0.000; 3.99000
 422.74;  -13.060;  -11.510;    0.000;-1.55000
 423.03;    5.020;   -8.230;    0.000;13.25000
 423.32;  -10.640;  -16.280;    0.000; 5.64000
 423.61;   18.180;  -10.700;    0.000;28.88000
 423.90;    3.340;  -18.810;    0.000;22.15000
 424.19;   35.540;    3.040;    0.000;32.50000
 424.48;    4.140;  -13.640;    0.000;17.78000
 424.77;    3.140;  -15.110;    0.000;18.25000
 425.06;   -0.960;   -8.550;    0.000; 7.59000
 425.35;    5.220;  -12.070;    0.000;17.29000
 425.65;   -6.440;  -12.850;    0.000; 6.41000
 425.94;  -11.800;  -13.500;    0.000; 1.70000
 426.23;  -22.740;  -18.630;    0.000;-4.11000
 426.52;  -12.680;  -18.760;    0.000; 6.08000
 426.81;   21.840;   -4.960;    0.000;26.80000
 427.10;  -15.960;  -18.640;    0.000; 2.68000
 427.39;   -1.880;  -17.730;    0.000;15.85000
 427.68;    5.280;   -6.060;    0.000;11.34000
 427.97;    9.800;   -9.970;    0.000;19.77000
 428.26;   -1.380;  -21.550;    0.000;20.17000
 428.55;   14.980;   -7.010;    0.000;21.99000
 428.84;   -2.620;  -15.510;    0.000;12.89000
 429.13;   -5.800;  -21.800;    0.000;16.00000
 429.42;   -2.900;   -6.430;    0.000; 3.53000
 429.71;    5.740;  -12.900;    0.000;18.64000
 430.00;   -1.300;  -27.260;    0.000;25.96000
 430.29;  -16.220;  -18.790;    0.000; 2.57000
 430.58;   -4.800;  -19.950;    0.000;15.15000
 430.87;   -1.820;  -18.710;    0.000;16.89000
 431.16;  -20.100;  -27.130;    0.000; 7.03000
 431.46;   -1.640;  -12.580;    0.000;10.94000
 431.75;   -6.700;  -16.460;    0.000; 9.76000
 432.04;   15.960;  -12.750;    0.000;28.71000
 432.33;   -4.820;  -15.960;    0.000;11.14000
 432.62;   -4.700;  -16.610;    0.000;11.91000
 432.91;  -10.860;  -15.280;    0.000; 4.42000
 433.20;   -6.540;  -14.090;    0.000; 7.55000
 433.49;    1.920;  -21.180;    0.000;23.10000
 433.78;   -7.660;  -15.380;    0.000; 7.72000
 434.07;   -6.980;  -18.570;    0.000;11.59000
 434.36;   -6.060;  -18.360;    0.000;12.30000
 434.65;  -19.120;  -19.110;    0.000;-0.01000
 434.94;   -7.880;  -16.660;    0.000; 8.78000
 435.23;    0.880;  -14.870;    0.000;15.75000
 435.52;   -1.960;  -15.280;    0.000;13.32000
 435.81;   -3.420;  -19.590;    0.000;16.17000
 436.10;    7.580;   -8.920;    0.000;16.50000
 436.39;   12.240;   -9.090;    0.000;21.33000
 436.68;   -2.060;   -9.150;    0.000; 7.09000
 436.97;  -10.560;  -17.940;    0.000; 7.38000
 437.26;   -4.740;  -11.060;    0.000; 6.32000
 437.55;   -2.260;  -14.150;    0.000;11.89000
 437.83;  -21.780;  -20.360;    0.000;-1.42000
 438.12;  -21.420;  -19.980;    0.000;-1.44000
 438.41;  -10.760;  -18.690;    0.000; 7.93000
 438.70;   25.320;   -6.450;    0.000;31.77000
 438.99;    9.180;   -3.000;    0.000;12.18000
 439.28;   -5.400;  -13.960;    0.000; 8.56000
 439.57;  -10.300;   -8.660;    0.000;-1.64000
 439.86;   -2.080;  -20.460;    0.000;18.38000
 440.15;   -5.740;  -10.490;    0.000; 4.75000
 440.44;   -3.660;  -14.790;    0.000;11.13000
 440.73;  -14.760;  -19.990;    0.000; 5.23000
 441.02;   -8.120;  -18.940;    0.000;10.82000
 441.31;    0.320;  -17.020;    0.000;17.34000
 441.60;    0.760;  -10.820;    0.000;11.58000
 441.89;  -17.380;  -18.180;    0.000; 0.80000
 442.18;   -9.560;  -11.380;    0.000; 1.82000
 442.47;   -7.480;  -20.660;    0.000;13.18000
 442.76;   -6.900;  -17.440;    0.000;10.54000
 443.05;    9.980;   -6.670;    0.000;16.65000
 443.34;    0.480;  -21.050;    0.000;21.53000
 443.63;  -15.920;  -21.060;    0.000; 5.14000
 443.91;   12.060;  -24.010;    0.000;36.07000
 444.20;   -2.040;  -15.210;    0.000;13.17000
 444.49;  -29.180;  -17.150;    0.000;-12.03000
 444.78;   -7.240;  -10.890;    0.000; 3.65000
 445.07;   15.680;  -13.040;    0.000;28.72000
 445.36;  -26.780;  -25.850;    0.000;-0.93000
 445.65;    3.220;  -13.460;    0.000;16.68000
 445.94;  -10.160;  -17.420;    0.000; 7.26000
 446.23;    5.200;  -14.150;    0.000;19.35000
 446.52;    1.600;  -19.520;    0.000;21.12000
 446.81;    0.580;  -16.560;    0.000;17.14000
 447.10;   -6.300;  -13.040;    0.000; 6.74000
 447.38;   -8.120;  -16.320;    0.000; 8.20000
 447.67;   -1.480;  -14.960;    0.000;13.48000
 447.96;    2.140;  -20.220;    0.000;22.36000
 448.25;   -6.760;  -17.610;    0.000;10.85000
 448.54;   -7.460;  -20.490;    0.000;13.03000
 448.83;   -0.100;  -21.650;    0.000;21.55000
 449.12;   -6.860;  -24.330;    0.000;17.47000
 449.41;   -0.120;  -17.380;    0.000;17.26000
 449.70;   -8.180;  -19.200;    0.000;11.02000
 449.98;   -8.120;  -18.990;    0.000;10.87000
 450.27;    4.140;  -10.630;    0.000;14.77000
 450.56;  -10.140;  -19.350;    0.000; 9.21000
 450.85;   -3.040;  -18.980;    0.000;15.94000
 451.14;  -14.360;  -18.310;    0.000; 3.95000
 451.43;  -22.540;  -19.640;    0.000;-2.90000
 451.72;  -14.860;  -20.630;    0.000; 5.77000
 452.01;   -2.040;  -12.200;    0.000;10.16000
 452.29;  -17.140;  -18.350;    0.000; 1.21000
 452.58;  -16.720;  -25.270;    0.000; 8.55000
 452.87;  -12.920;  -19.090;    0.000; 6.17000
 453.16;   -9.160;  -11.330;    0.000; 2.17000
 453.45;    6.320;  -14.720;    0.000;21.04000
 453.74;   -2.140;  -10.690;    0.000; 8.55000
 454.03;    3.400;  -21.930;    0.000;25.33000
 454.31;  -21.300;  -22.490;    0.000; 1.19000
 454.60;  -18.500;  -21.160;    0.000; 2.66000
 454.89;    6.640;  -12.560;    0.000;19.20000
 455.18;  -13.220;  -24.060;    0.000;10.84000
 455.47;  -17.040;  -26.150;    0.000; 9.11000
 455.76;   -8.600;  -27.400;    0.000;18.80000
 456.04;    2.620;  -25.580;    0.000;28.20000
 456.33;   -7.840;  -25.270;    0.000;17.43000
 456.62;   -2.040;  -18.480;    0.000;16.44000
 456.91;  -11.820;  -23.960;    0.000;12.14000
 457.20;   12.980;  -15.140;    0.000;28.12000
 457.49;   -5.200;  -14.830;    0.000; 9.63000
 457.77;   -8.140;  -20.000;    0.000;11.86000
 458.06;    1.160;  -12.460;    0.000;13.62000
 458.35;  -13.940;  -24.180;    0.000;10.24000
 458.64;  -13.020;  -11.000;    0.000;-2.02000
 458.93;   -3.400;  -15.890;    0.000;12.49000
 459.21;  -10.340;  -21.440;    0.000;11.10000
 459.50;    2.160;  -22.030;    0.000;24.19000
 459.79;  -12.900;  -19.740;    0.000; 6.84000
 460.08;  -10.160;  -20.210;    0.000;10.05000
 460.37;  -13.380;  -17.330;    0.000; 3.95000
 460.65;   -5.520;  -20.980;    0.000;15.46000
 460.94;   -0.540;  -24.100;    0.000;23.56000
 461.23;   -5.900;  -16.720;    0.000;10.82000
 461.52;   23.660;  -10.800;    0.000;34.46000
 461.81;  -11.000;  -18.200;    0.000; 7.20000
 462.09;    2.260;  -16.530;    0.000;18.79000
 462.38;  -16.500;  -21.390;    0.000; 4.89000
 462.67;  -12.700;  -25.110;    0.000;12.41000
 462.96;   -4.060;  -24.230;    0.000;20.17000
 463.24;   -6.180;  -23.650;    0.000;17.47000
 463.53;    3.240;  -17.480;    0.000;20.72000
 463.82;   -2.220;  -19.800;    0.000;17.58000
 464.11;   -8.580;  -21.730;    0.000;13.15000
 464.40;   -8.360;  -22.130;    0.000;13.77000
 464.68;  -14.840;  -21.480;    0.000; 6.64000
 464.97;  -16.420;  -19.470;    0.000; 3.05000
 465.26;   -0.820;  -17.460;    0.000;16.64000
 465.55;   -3.020;  -20.890;    0.000;17.87000
 465.83;   -7.200;  -20.920;    0.000;13.72000
 466.12;  -16.640;  -22.340;    0.000; 5.70000
 466.41;    1.040;  -21.380;    0.000;22.42000
 466.70;  -13.720;  -23.610;    0.000; 9.89000
 466.98;  -15.320;  -20.090;    0.000; 4.77000
 467.27;    3.760;  -18.760;    0.000;22.52000
 467.56;    6.780;  -20.980;    0.000;27.76000
 467.85;   -6.720;  -15.930;    0.000; 9.21000
 468.13;   -5.360;  -14.330;    0.000; 8.97000
 468.42;   -6.020;  -17.700;    0.000;11.68000
 468.71;    5.620;  -20.100;    0.000;25.72000
 468.99;   -7.600;  -17.320;    0.000; 9.72000
 469.28;  -16.300;  -22.330;    0.000; 6.03000
 469.57;  -14.900;  -21.170;    0.000; 6.27000
 469.86;   -4.560;  -18.660;    0.000;14.10000
 470.14;  -18.820;  -24.400;    0.000; 5.58000
 470.43;   15.340;  -16.250;    0.000;31.59000
 470.72;   -7.740;  -27.700;    0.000;19.96000
 471.00;  -11.440;  -21.470;    0.000;10.03000
 471.29;   23.100;  -12.190;    0.000;35.29000
 471.58;   12.880;  -14.440;    0.000;27.32000
 471.87;    1.960;  -20.260;    0.000;22.22000
 472.15;  -10.000;  -27.280;    0.000;17.28000
 472.44;    8.080;  -13.550;    0.000;21.63000
 472.73;  -14.560;  -28.340;    0.000;13.78000
 473.01;   -7.300;  -26.320;    0.000;19.02000
 473.30;    2.180;  -23.100;    0.000;25.28000
 473.59;   -0.660;  -19.590;    0.000;18.93000
 473.87;   -1.640;  -19.240;    0.000;17.60000
 474.16;  -16.900;  -20.110;    0.000; 3.21000
 474.45;   -6.780;  -30.440;    0.000;23.66000
 474.74;  -15.940;  -22.750;    0.000; 6.81000
 475.02;    6.520;  -15.460;    0.000;21.98000
 475.31;    0.700;  -20.200;    0.000;20.90000
 475.60;    1.020;  -27.200;    0.000;28.22000
 475.88;   -8.140;  -25.920;    0.000;17.78000
 476.17;   20.860;  -16.890;    0.000;37.75000
 476.46;   -1.700;  -20.900;    0.000;19.20000
 476.74;  -17.380;  -23.070;    0.000; 5.69000
 477.03;  -19.400;  -22.890;    0.000; 3.49000
 477.32;    3.120;  -21.040;    0.000;24.16000
 477.60;   -5.420;  -24.890;    0.000;19.47000
 477.89;   12.120;  -14.910;    0.000;27.03000
 478.18;   -4.060;  -15.900;    0.000;11.84000
 478.46;    5.640;  -19.520;    0.000;25.16000
 478.75;   -0.580;  -18.520;    0.000;17.94000
 479.03;   -5.740;  -17.330;    0.000;11.59000
 479.32;   -1.880;  -26.670;    0.000;24.79000
 479.61;   -9.640;  -32.440;    0.000;22.80000
 479.89;  -10.200;  -24.740;    0.000;14.54000
 480.18;   -1.920;  -21.450;    0.000;19.53000
 480.47;   -6.260;  -18.220;    0.000;11.96000
 480.75;   -6.220;  -29.820;    0.000;23.60000
 481.04;   11.000;  -20.400;    0.000;31.40000
 481.33;    5.920;  -16.240;    0.000;22.16000
 481.61;   -2.500;  -20.830;    0.000;18.33000
 481.90;   -0.860;  -33.240;    0.000;32.38000
 482.18;    8.040;  -23.490;    0.000;31.53000
 482.47;   13.140;  -18.580;    0.000;31.72000
 482.76;    1.500;  -24.650;    0.000;26.15000
 483.04;   10.060;  -22.560;    0.000;32.62000
 483.33;   -5.000;  -27.450;    0.000;22.45000
 483.61;   11.600;  -18.390;    0.000;29.99000
 483.90;    5.900;  -22.630;    0.000;28.53000
 484.19;  -10.380;  -31.890;    0.000;21.51000
 484.47;   19.160;  -27.650;    0.000;46.81000
 484.76;    8.200;  -22.480;    0.000;30.68000
 485.05;   16.760;  -15.900;    0.000;32.66000
 485.33;   13.220;  -20.520;    0.000;33.74000
 485.62;    8.540;  -23.220;    0.000;31.76000
 485.90;   21.960;  -19.330;    0.000;41.29000
 486.19;   20.920;  -21.960;    0.000;42.88000
 486.47;   51.500;  -17.750;    0.000;69.25000
 486.76;   25.600;  -32.110;    0.000;57.71000
 487.05;   54.160;  -21.590;    0.000;75.75000
 487.33;   41.340;  -24.120;    0.000;65.46000
 487.62;   34.360;  -27.370;    0.000;61.73000
 487.90;   59.860;  -24.640;    0.000;84.50000
 488.19;   77.240;  -17.250;    0.000;94.49000
 488.47;   84.140;  -20.280;    0.000;104.42000
 488.76;   80.900;  -22.200;    0.000;103.10000
 489.05;   98.780;  -13.720;    0.000;112.50000
 489.33;   99.880;  -24.060;    0.000;123.94000
 489.62;  102.360;  -27.760;    0.000;130.12000
 489.90;  105.400;  -29.230;    0.000;134.63000
 490.19;  129.220;  -20.080;    0.000;149.30000
 490.47;  141.640;  -27.170;    0.000;168.81000
 490.76;  157.860;  -30.390;    0.000;188.25000
 491.05;  193.800;  -18.700;    0.000;212.50000
 491.33;  193.320;  -19.160;    0.000;212.48001
 491.62;  201.760;  -30.080;    0.000;231.83999
 491.90;  222.680;  -24.970;    0.000;247.64999
 492.19;  235.660;  -29.880;    0.000;265.54000
 492.47;  271.680;  -26.010;    0.000;297.68999
 492.76;  303.780;  -25.800;    0.000;329.58000
 493.04;  322.820;  -23.090;    0.000;345.91001
 493.33;  358.780;  -29.680;    0.000;388.46000
 493.61;  384.100;  -28.280;    0.000;412.38001
 493.90;  434.700;  -25.470;    0.000;460.17001
 494.18;  454.440;  -21.360;    0.000;475.80000
 494.47;  474.000;  -21.500;    0.000;495.50000
 494.75;  515.040;  -25.740;    0.000;540.77998
 495.04;  576.020;  -25.010;    0.000;601.03002
 495.32;  600.160;  -24.280;    0.000;624.43997
 495.61;  645.120;  -26.390;    0.000;671.50999
 495.89;  688.040;  -25.210;    0.000;713.24998
 496.18;  725.160;  -24.900;    0.000;750.05997
 496.46;  780.520;  -25.570;    0.000;806.09002
 496.75;  827.500;  -19.200;    0.000;846.70000
 497.03;  898.440;  -21.850;    0.000;920.29000
 497.32;  964.160;  -28.930;    0.000;993.08997
 497.60;  998.460;  -27.460;    0.000;1025.92002
 497.89; 1072.960;  -26.060;    0.000;1099.01996
 498.17; 1152.580;  -23.200;    0.000;1175.77996
 498.46; 1217.600;  -31.150;    0.000;1248.74998
 498.74; 1292.260;  -21.420;    0.000;1313.68001
 499.03; 1386.080;  -27.500;    0.000;1413.57996
 499.31; 1418.660;  -33.980;    0.000;1452.64003
 499.60; 1524.600;  -26.560;    0.000;1551.15998
 499.88; 1620.540;  -13.310;    0.000;1633.85004
 500.17; 1662.420;  -32.950;    0.000;1695.37004
 500.45; 1756.440;  -26.850;    0.000;1783.28994
 500.74; 1862.800;  -32.110;    0.000;1894.91005
 501.02; 1928.640;  -28.340;    0.000;1956.98001
 501.31; 2039.000;  -30.740;    0.000;2069.74000
 501.59; 2139.700;  -22.990;    0.000;2162.68995
 501.88; 2250.020;  -24.540;    0.000;2274.56002
 502.16; 2338.120;  -33.190;    0.000;2371.31012
 502.45; 2466.540;  -27.850;    0.000;2494.39004
 502.73; 2568.700;  -30.030;    0.000;2598.72995
 503.01; 2660.480;  -26.800;    0.000;2687.27998
 503.30; 2771.740;  -26.540;    0.000;2798.27999
 503.58; 2899.860;  -37.970;    0.000;2937.83011
 503.87; 3007.940;  -21.070;    0.000;3029.00994
 504.15; 3138.300;  -31.700;    0.000;3170.00005
 504.44; 3221.280;  -22.380;    0.000;3243.66003
 504.72; 3376.240;  -16.240;    0.000;3392.47999
 505.00; 3494.920;  -31.090;    0.000;3526.00992
 505.29; 3649.320;  -18.750;    0.000;3668.07007
 505.57; 3775.440;  -26.120;    0.000;3801.55994
 505.86; 3875.040;  -30.130;    0.000;3905.17004
 506.14; 4027.720;  -40.580;    0.000;4068.29997
 506.43; 4175.540;  -16.980;    0.000;4192.52004
 506.71; 4285.100;  -26.380;    0.000;4311.48010
 506.99; 4434.200;  -33.030;    0.000;4467.23019
 507.28; 4598.600;  -27.620;    0.000;4626.22010
 507.56; 4720.660;  -28.400;    0.000;4749.06016
 507.85; 4867.880;  -26.630;    0.000;4894.50988
 508.13; 5020.960;  -23.390;    0.000;5044.34996
 508.41; 5147.700;  -13.300;    0.000;5161.00020
 508.70; 5333.100;  -30.090;    0.000;5363.19010
 508.98; 5454.740;  -29.260;    0.000;5484.00023
 509.27; 5611.180;  -34.820;    0.000;5646.00018
 509.55; 5761.700;  -20.900;    0.000;5782.60019
 509.83; 5910.980;  -32.250;    0.000;5943.22998
 510.12; 6070.960;  -25.080;    0.000;6096.03996
 510.40; 6262.540;  -26.530;    0.000;6289.07004
 510.69; 6364.120;  -26.360;    0.000;6390.48012
 510.97; 6537.320;  -25.960;    0.000;6563.27982
 511.25; 6718.040;  -25.560;    0.000;6743.60004
 511.54; 6859.180;  -32.180;    0.000;6891.36018
 511.82; 7029.060;  -23.410;    0.000;7052.47006
 512.11; 7179.620;  -28.130;    0.000;7207.75012
 512.39; 7287.300;  -32.100;    0.000;7319.39980
 512.67; 7479.640;  -23.390;    0.000;7503.03014
 512.96; 7644.600;  -27.360;    0.000;7671.96010
 513.24; 7776.140;  -25.540;    0.000;7801.68014
 513.52; 7947.440;  -20.710;    0.000;7968.14994
 513.81; 8057.020;  -27.450;    0.000;8084.47002
 514.09; 8194.180;  -31.630;    0.000;8225.80969
 514.37; 8349.100;  -28.900;    0.000;8377.99961
 514.66; 8526.620;  -26.830;    0.000;8553.45012
 514.94; 8633.720;  -30.930;    0.000;8664.64973
 515.22; 8761.560;  -20.740;    0.000;8782.29957
 515.51; 8948.340;  -28.110;    0.000;8976.44984
 515.79; 9149.460;  -30.680;    0.000;9180.13996
 516.07; 9276.460;  -21.420;    0.000;9297.87996
 516.36; 9421.080;  -30.450;    0.000;9451.53008
 516.64; 9604.300;  -27.560;    0.000;9631.85980
 516.92; 9693.800;  -28.140;    0.000;9721.93980
 517.21; 9913.260;  -33.670;    0.000;9946.92976
 517.49;10103.760;  -21.660;    0.000;10125.41977
 517.77;10271.880;  -23.850;    0.000;10295.72988
 518.06;10410.600;  -35.280;    0.000;10445.87961
 518.34;10555.320;  -22.260;    0.000;10577.58031
 518.62;10740.220;  -18.090;    0.000;10758.30973
 518.91;10842.360;  -25.090;    0.000;10867.45035
 519.19;10968.320;  -29.320;    0.000;10997.64031
 519.47;11184.940;  -25.890;    0.000;11210.83043
 519.76;11252.420;  -20.890;    0.000;11273.30992
 520.04;11447.760;  -27.100;    0.000;11474.85977
 520.32;11617.620;  -24.040;    0.000;11641.66012
 520.61;11728.040;  -17.280;    0.000;11745.32004
 520.89;11841.780;  -26.150;    0.000;11867.93027
 521.17;11992.080;  -27.250;    0.000;12019.33008
 521.45;12122.400;  -26.190;    0.000;12148.59039
 521.74;12226.820;  -27.770;    0.000;12254.59031
 522.02;12370.760;  -32.340;    0.000;12403.09977
 522.30;12547.240;  -30.190;    0.000;12577.43023
 522.59;12656.840;  -17.950;    0.000;12674.78984
 522.87;12739.260;  -35.830;    0.000;12775.08977
 523.15;12953.960;  -22.330;    0.000;12976.28996
 523.43;12961.560;  -36.850;    0.000;12998.40957
 523.72;13120.120;  -22.470;    0.000;13142.59012
 524.00;13301.180;  -26.840;    0.000;13328.01969
 524.28;13412.480;  -30.100;    0.000;13442.58047
 524.57;13503.420;  -28.250;    0.000;13531.66992
 524.85;13563.440;  -33.210;    0.000;13596.65043
 525.13;13705.980;  -28.900;    0.000;13734.88047
 525.41;13761.460;  -26.930;    0.000;13788.38996
 525.70;13937.780;  -39.770;    0.000;13977.55027
 525.98;14087.960;  -28.770;    0.000;14116.72996
 526.26;14158.820;  -28.530;    0.000;14187.35031
 526.54;14266.620;  -37.240;    0.000;14303.86012
 526.83;14349.560;  -31.260;    0.000;14380.81957
 527.11;14460.720;  -29.840;    0.000;14490.55973
 527.39;14613.480;  -27.920;    0.000;14641.40047
 527.67;14719.140;  -33.060;    0.000;14752.19965
 527.96;14752.700;  -33.590;    0.000;14786.29020
 528.24;14909.540;  -30.660;    0.000;14940.20004
 528.52;15031.820;  -24.870;    0.000;15056.69031
 528.80;15158.080;  -28.750;    0.000;15186.83008
 529.08;15183.360;  -34.880;    0.000;15218.24035
 529.37;15295.100;  -25.970;    0.000;15321.06961
 529.65;15443.420;  -21.850;    0.000;15465.26992
 529.93;15531.280;  -27.970;    0.000;15559.25027
 530.21;15557.000;  -33.080;    0.000;15590.08000
 530.50;15713.020;  -30.560;    0.000;15743.57953
 530.78;15813.280;  -27.290;    0.000;15840.57027
 531.06;15888.160;  -32.640;    0.000;15920.80016
 531.34;15963.440;  -31.410;    0.000;15994.85043
 531.62;16082.060;  -29.810;    0.000;16111.86957
 531.91;16152.080;  -33.270;    0.000;16185.35008
 532.19;16207.760;  -28.780;    0.000;16236.53977
 532.47;16290.620;  -30.330;    0.000;16320.95012
 532.75;16446.500;  -25.280;    0.000;16471.78000
 533.03;16510.461;  -26.860;    0.000;16537.32094
 533.32;16598.520;  -23.280;    0.000;16621.79953
 533.60;16621.400;  -34.090;    0.000;16655.49039
 533.88;16715.600;  -20.750;    0.000;16736.34961
 534.16;16742.039;  -30.960;    0.000;16772.99906
 534.44;16918.400;  -26.490;    0.000;16944.89039
 534.72;16976.619;  -32.560;    0.000;17009.17914
 535.01;16940.199;  -25.270;    0.000;16965.46922
 535.29;17000.801;  -23.350;    0.000;17024.15078
 535.57;17100.461;  -25.910;    0.000;17126.37094
 535.85;17220.721;  -23.170;    0.000;17243.89070
 536.13;17333.580;  -28.940;    0.000;17362.52008
 536.42;17295.961;  -27.660;    0.000;17323.62094
 536.70;17408.381;  -35.120;    0.000;17443.50086
 536.98;17421.900;  -22.910;    0.000;17444.81039
 537.26;17560.221;  -19.290;    0.000;17579.51070
 537.54;17629.961;  -26.340;    0.000;17656.30094
 537.82;17716.000;  -21.930;    0.000;17737.93000
 538.10;17794.500;  -27.700;    0.000;17822.20000
 538.39;17872.301;  -28.600;    0.000;17900.90078
 538.67;17901.500;  -27.310;    0.000;17928.81000
 538.95;17972.279;  -30.120;    0.000;18002.39930
 539.23;18018.520;  -22.970;    0.000;18041.48953
 539.51;18136.240;  -22.060;    0.000;18158.30023
 539.79;18160.039;  -26.640;    0.000;18186.67906
 540.07;18164.119;  -22.100;    0.000;18186.21914
 540.36;18304.500;  -30.750;    0.000;18335.25000
 540.64;18327.100;  -22.510;    0.000;18349.60961
 540.92;18386.801;  -30.820;    0.000;18417.62078
 541.20;18457.260;  -29.640;    0.000;18486.89977
 541.48;18549.779;  -12.470;    0.000;18562.24930
 541.76;18587.980;  -26.780;    0.000;18614.76047
 542.04;18619.221;  -23.270;    0.000;18642.49070
 542.32;18691.119;  -24.220;    0.000;18715.33914
 542.61;18699.160;  -33.520;    0.000;18732.68016
 542.89;18757.359;  -17.240;    0.000;18774.59937
 543.17;18848.980;  -25.240;    0.000;18874.22047
 543.45;18899.199;  -24.660;    0.000;18923.85922
 543.73;18951.160;  -28.070;    0.000;18979.23016
 544.01;18950.080;  -29.250;    0.000;18979.33008
 544.29;19022.740;  -19.640;    0.000;19042.38023
 544.57;19065.840;  -34.410;    0.000;19100.24984
 544.85;19105.240;  -23.490;    0.000;19128.73023
 545.13;19172.600;  -25.150;    0.000;19197.74961
 545.42;19183.119;  -24.120;    0.000;19207.23914
 545.70;19216.480;  -20.880;    0.000;19237.36047
 545.98;19223.301;  -22.690;    0.000;19245.99078
 546.26;19278.859;  -22.680;    0.000;19301.53938
 546.54;19342.561;  -26.680;    0.000;19369.24055
 546.82;19307.881;  -22.560;    0.000;19330.44086
 547.10;19377.260;  -25.490;    0.000;19402.74977
 547.38;19406.141;  -18.460;    0.000;19424.60062
 547.66;19435.619;  -24.450;    0.000;19460.06914
 547.94;19589.520;  -22.110;    0.000;19611.62953
 548.22;19521.740;  -28.020;    0.000;19549.76023
 548.50;19505.920;  -35.840;    0.000;19541.75992
 548.78;19571.881;  -28.210;    0.000;19600.09086
 549.06;19608.359;  -25.700;    0.000;19634.05938
 549.34;19582.480;  -30.930;    0.000;19613.41047
 549.63;19603.539;  -17.470;    0.000;19621.00906
 549.91;19590.061;  -26.020;    0.000;19616.08055
 550.19;19679.279;  -30.840;    0.000;19710.11930
 550.47;19658.119;  -33.570;    0.000;19691.68914
 550.75;19653.221;  -29.150;    0.000;19682.37070
 551.03;19611.980;  -31.230;    0.000;19643.21047
 551.31;19754.920;  -27.700;    0.000;19782.61992
 551.59;19763.500;  -27.320;    0.000;19790.82000
 551.87;19843.580;  -25.060;    0.000;19868.64008
 552.15;19763.400;  -29.650;    0.000;19793.05039
 552.43;19854.080;  -17.690;    0.000;19871.77008
 552.71;19869.539;  -26.730;    0.000;19896.26906
 552.99;19859.359;  -27.320;    0.000;19886.67937
 553.27;19923.061;  -33.900;    0.000;19956.96055
 553.55;19901.881;  -29.130;    0.000;19931.01086
 553.83;19912.480;  -34.100;    0.000;19946.58047
 554.11;19989.080;  -29.070;    0.000;20018.15008
 554.39;19955.699;  -17.350;    0.000;19973.04922
 554.67;19998.439;  -31.140;    0.000;20029.57945
 554.95;20038.141;  -15.790;    0.000;20053.93062
 555.23;19927.439;  -19.190;    0.000;19946.62945
 555.51;19891.900;  -23.860;    0.000;19915.76039
 555.79;19908.840;  -26.610;    0.000;19935.44984
 556.07;19970.039;  -33.750;    0.000;20003.78906
 556.35;19846.020;  -33.080;    0.000;19879.09953
 556.63;19842.160;  -23.190;    0.000;19865.35016
 556.91;19869.180;  -20.140;    0.000;19889.31969
 557.19;19889.320;  -33.420;    0.000;19922.74031
 557.47;19885.020;  -26.860;    0.000;19911.87953
 557.75;19919.820;  -27.600;    0.000;19947.42031
 558.03;19927.381;  -23.720;    0.000;19951.10086
 558.31;19958.340;  -32.820;    0.000;19991.15984
 558.59;19911.801;  -28.200;    0.000;19940.00078
 558.87;19946.779;  -31.300;    0.000;19978.07930
 559.15;19943.580;  -29.920;    0.000;19973.50008
 559.43;19952.039;  -31.700;    0.000;19983.73906
 559.71;19963.240;  -29.390;    0.000;19992.63023
 559.99;19892.180;  -29.950;    0.000;19922.12969
 560.27;19947.119;  -31.860;    0.000;19978.97914
 560.55;19954.199;  -27.330;    0.000;19981.52922
 560.82;19895.301;  -30.590;    0.000;19925.89078
 561.10;19969.881;  -35.810;    0.000;20005.69086
 561.38;19866.119;  -27.550;    0.000;19893.66914
 561.66;19832.439;  -27.770;    0.000;19860.20945
 561.94;19792.561;  -36.790;    0.000;19829.35055
 562.22;19807.420;  -29.270;    0.000;19836.68992
 562.50;19848.619;  -25.730;    0.000;19874.34914
 562.78;19769.900;  -28.210;    0.000;19798.11039
 563.06;19748.439;  -32.200;    0.000;19780.63945
 563.34;19692.240;  -32.310;    0.000;19724.55024
 563.62;19685.561;  -26.420;    0.000;19711.98055
 563.90;19650.221;  -33.310;    0.000;19683.53070
 564.18;19634.840;  -30.050;    0.000;19664.88984
 564.46;19570.779;  -33.070;    0.000;19603.84930
 564.74;19630.840;  -26.370;    0.000;19657.20984
 565.01;19550.539;  -34.630;    0.000;19585.16906
 565.29;19569.381;  -30.890;    0.000;19600.27086
 565.57;19506.061;  -27.770;    0.000;19533.83055
 565.85;19467.600;  -26.540;    0.000;19494.13961
 566.13;19429.740;  -35.020;    0.000;19464.76023
 566.41;19433.859;  -27.970;    0.000;19461.82937
 566.69;19403.539;  -26.850;    0.000;19430.38906
 566.97;19372.980;  -35.710;    0.000;19408.69047
 567.25;19366.539;  -26.920;    0.000;19393.45906
 567.53;19305.580;  -31.550;    0.000;19337.13008
 567.80;19217.961;  -29.830;    0.000;19247.79094
 568.08;19249.900;  -23.950;    0.000;19273.85039
 568.36;19117.920;  -39.610;    0.000;19157.52992
 568.64;19102.080;  -31.690;    0.000;19133.77008
 568.92;19064.240;  -24.250;    0.000;19088.49023
 569.20;19060.561;  -32.220;    0.000;19092.78055
 569.48;18958.359;  -33.550;    0.000;18991.90937
 569.76;18909.119;  -41.820;    0.000;18950.93914
 570.03;18896.000;  -26.520;    0.000;18922.52000
 570.31;18796.539;  -33.390;    0.000;18829.92906
 570.59;18846.561;  -29.380;    0.000;18875.94055
 570.87;18761.080;  -30.810;    0.000;18791.89008
 571.15;18755.520;  -35.650;    0.000;18791.16953
 571.43;18640.100;  -28.530;    0.000;18668.62961
 571.71;18601.920;  -40.130;    0.000;18642.04992
 571.98;18532.600;  -30.700;    0.000;18563.29961
 572.26;18492.900;  -33.520;    0.000;18526.42039
 572.54;18446.779;  -36.750;    0.000;18483.52930
 572.82;18428.600;  -35.020;    0.000;18463.61961
 573.10;18424.740;  -32.420;    0.000;18457.16023
 573.38;18303.859;  -33.880;    0.000;18337.73938
 573.66;18247.660;  -34.190;    0.000;18281.85015
 573.93;18225.480;  -33.870;    0.000;18259.35047
 574.21;18211.500;  -31.820;    0.000;18243.32000
 574.49;18130.039;  -31.910;    0.000;18161.94906
 574.77;18101.619;  -29.890;    0.000;18131.50914
 575.05;18055.199;  -22.870;    0.000;18078.06922
 575.33;17986.180;  -31.620;    0.000;18017.79969
 575.60;17859.420;  -29.990;    0.000;17889.40992
 575.88;17804.180;  -30.640;    0.000;17834.81969
 576.16;17760.301;  -31.370;    0.000;17791.67078
 576.44;17762.080;  -30.170;    0.000;17792.25008
 576.72;17614.500;  -30.330;    0.000;17644.83000
 576.99;17544.420;  -35.380;    0.000;17579.79992
 577.27;17594.240;  -32.010;    0.000;17626.25023
 577.55;17491.439;  -20.740;    0.000;17512.17945
 577.83;17347.301;  -38.350;    0.000;17385.65078
 578.11;17381.699;  -30.600;    0.000;17412.29922
 578.38;17252.779;  -33.300;    0.000;17286.07930
 578.66;17232.439;  -33.190;    0.000;17265.62945
 578.94;17114.420;  -34.250;    0.000;17148.66992
 579.22;17091.260;  -36.890;    0.000;17128.14977
 579.50;17035.381;  -16.500;    0.000;17051.88086
 579.77;17002.000;  -27.820;    0.000;17029.82000
 580.05;16945.920;  -33.860;    0.000;16979.77992
 580.33;16901.301;  -36.230;    0.000;16937.53078
 580.61;16832.359;  -31.810;    0.000;16864.16937
 580.88;16717.641;  -31.550;    0.000;16749.19062
 581.16;16702.439;  -30.380;    0.000;16732.81945
 581.44;16579.240;  -26.740;    0.000;16605.98023
 581.72;16519.260;  -36.870;    0.000;16556.12976
 581.99;16442.961;  -28.000;    0.000;16470.96094
 582.27;16317.020;  -32.620;    0.000;16349.63953
 582.55;16298.640;  -39.650;    0.000;16338.28965
 582.83;16220.220;  -31.420;    0.000;16251.63973
 583.10;16077.780;  -34.040;    0.000;16111.82027
 583.38;16037.460;  -33.790;    0.000;16071.24996
 583.66;15959.160;  -23.360;    0.000;15982.52016
 583.94;15928.060;  -37.120;    0.000;15965.17957
 584.21;15811.880;  -36.200;    0.000;15848.07988
 584.49;15697.360;  -31.210;    0.000;15728.57035
 584.77;15663.400;  -41.490;    0.000;15704.89039
 585.05;15647.340;  -41.880;    0.000;15689.21984
 585.32;15553.460;  -40.900;    0.000;15594.35996
 585.60;15443.440;  -35.320;    0.000;15478.76043
 585.88;15369.520;  -36.100;    0.000;15405.61953
 586.16;15276.520;  -33.460;    0.000;15309.97953
 586.43;15239.500;  -23.040;    0.000;15262.54000
 586.71;15138.860;  -33.020;    0.000;15171.88035
 586.99;15062.700;  -38.700;    0.000;15101.40020
 587.26;14997.600;  -39.100;    0.000;15036.69961
 587.54;14865.500;  -29.820;    0.000;14895.32000
 587.82;14755.320;  -31.730;    0.000;14787.05031
 588.10;14782.260;  -35.850;    0.000;14818.10976
 588.37;14595.800;  -41.630;    0.000;14637.42981
 588.65;14533.280;  -32.470;    0.000;14565.75027
 588.93;14517.280;  -32.150;    0.000;14549.43027
 589.20;14360.140;  -34.030;    0.000;14394.16965
 589.48;14296.920;  -34.930;    0.000;14331.84992
 589.76;14275.520;  -15.830;    0.000;14291.34953
 590.03;14106.460;  -40.290;    0.000;14146.74996
 590.31;14019.160;  -33.480;    0.000;14052.64016
 590.59;14030.300;  -33.000;    0.000;14063.29980
 590.86;13877.040;  -31.500;    0.000;13908.54004
 591.14;13803.240;  -37.450;    0.000;13840.69024
 591.42;13724.960;  -37.920;    0.000;13762.87996
 591.70;13654.780;  -32.300;    0.000;13687.08027
 591.97;13601.480;  -26.470;    0.000;13627.95047
 592.25;13491.320;  -31.490;    0.000;13522.81031
 592.53;13389.720;  -39.370;    0.000;13429.08973
 592.80;13284.880;  -30.970;    0.000;13315.84988
 593.08;13273.400;  -28.190;    0.000;13301.59039
 593.36;13146.680;  -33.690;    0.000;13180.36969
 593.63;13064.420;  -28.510;    0.000;13092.92992
 593.91;12995.360;  -39.300;    0.000;13034.66035
 594.18;12907.840;  -30.740;    0.000;12938.57984
 594.46;12838.840;  -37.200;    0.000;12876.03984
 594.74;12751.100;  -35.270;    0.000;12786.36961
 595.01;12673.280;  -39.910;    0.000;12713.19027
 595.29;12526.160;  -37.830;    0.000;12563.99016
 595.57;12495.300;  -30.310;    0.000;12525.60980
 595.84;12390.980;  -34.070;    0.000;12425.05047
 596.12;12295.700;  -35.950;    0.000;12331.65020
 596.40;12223.700;  -47.400;    0.000;12271.10020
 596.67;12135.480;  -33.240;    0.000;12168.72047
 596.95;11977.720;  -31.840;    0.000;12009.55973
 597.22;12018.860;  -42.200;    0.000;12061.06035
 597.50;11941.480;  -33.310;    0.000;11974.79047
 597.78;11817.920;  -35.870;    0.000;11853.78992
 598.05;11676.060;  -42.370;    0.000;11718.42957
 598.33;11653.420;  -31.360;    0.000;11684.77992
 598.61;11570.200;  -34.100;    0.000;11604.30019
 598.88;11468.420;  -43.010;    0.000;11511.42992
 599.16;11418.340;  -38.270;    0.000;11456.60984
 599.43;11285.740;  -44.250;    0.000;11329.99023
 599.71;11284.880;  -31.350;    0.000;11316.22988
 599.99;11206.580;  -40.440;    0.000;11247.02008
 600.26;11059.780;  -34.480;    0.000;11094.26027
 600.54;11018.080;  -35.880;    0.000;11053.96008
 600.81;10914.280;  -30.800;    0.000;10945.08027
 601.09;10861.420;  -38.420;    0.000;10899.83992
 601.36;10756.100;  -43.640;    0.000;10799.73961
 601.64;10640.420;  -36.270;    0.000;10676.68992
 601.92;10603.240;  -40.290;    0.000;10643.53024
 602.19;10528.280;  -43.490;    0.000;10571.77028
 602.47;10443.260;  -41.720;    0.000;10484.97977
 602.74;10328.200;  -33.580;    0.000;10361.78020
 603.02;10306.920;  -30.880;    0.000;10337.79992
 603.29;10234.940;  -30.150;    0.000;10265.09043
 603.57;10143.140;  -38.680;    0.000;10181.81965
 603.85;10059.380;  -36.240;    0.000;10095.61988
 604.12;10062.860;  -25.740;    0.000;10088.60035
 604.40; 9958.920;  -37.040;    0.000;9995.95992
 604.67; 9908.180;  -31.720;    0.000;9939.89969
 604.95; 9797.620;  -36.850;    0.000;9834.47012
 605.22; 9785.020;  -36.400;    0.000;9821.41953
 605.50; 9675.520;  -42.480;    0.000;9717.99953
 605.77; 9571.760;  -37.250;    0.000;9609.00977
 606.05; 9503.180;  -39.640;    0.000;9542.81969
 606.33; 9498.540;  -35.100;    0.000;9533.64004
 606.60; 9401.380;  -44.280;    0.000;9445.65988
 606.88; 9364.080;  -33.550;    0.000;9397.63008
 607.15; 9294.860;  -35.810;    0.000;9330.67035
 607.43; 9248.520;  -38.570;    0.000;9287.08953
 607.70; 9187.760;  -33.540;    0.000;9221.29977
 607.98; 9049.720;  -38.040;    0.000;9087.75973
 608.25; 9010.120;  -39.360;    0.000;9049.48012
 608.53; 8952.900;  -46.700;    0.000;8999.60039
 608.80; 8894.140;  -39.200;    0.000;8933.33965
 609.08; 8823.260;  -41.820;    0.000;8865.07977
 609.35; 8854.580;  -35.520;    0.000;8890.10008
 609.63; 8756.840;  -44.390;    0.000;8801.22984
 609.90; 8708.680;  -36.930;    0.000;8745.60969
 610.18; 8669.900;  -28.100;    0.000;8698.00039
 610.45; 8555.400;  -47.230;    0.000;8602.63039
 610.73; 8538.820;  -40.590;    0.000;8579.41031
 611.00; 8484.260;  -28.940;    0.000;8513.19977
 611.28; 8417.520;  -41.770;    0.000;8459.28953
 611.55; 8382.080;  -47.150;    0.000;8429.23008
 611.83; 8343.320;  -42.410;    0.000;8385.73031
 612.10; 8299.140;  -47.870;    0.000;8347.00965
 612.38; 8177.040;  -43.330;    0.000;8220.37004
 612.65; 8177.200;  -38.760;    0.000;8215.96019
 612.93; 8109.560;  -46.440;    0.000;8156.00006
 613.20; 8079.900;  -40.520;    0.000;8120.41990
 613.48; 8033.840;  -42.680;    0.000;8076.51984
 613.75; 7953.500;  -49.140;    0.000;8002.64000
 614.03; 7922.200;  -35.760;    0.000;7957.96019
 614.30; 7858.180;  -49.280;    0.000;7907.46017
 614.57; 7866.520;  -47.070;    0.000;7913.59002
 614.85; 7782.960;  -40.710;    0.000;7823.66996
 615.12; 7803.160;  -40.130;    0.000;7843.29016
 615.40; 7678.300;  -45.350;    0.000;7723.64980
 615.67; 7651.640;  -41.120;    0.000;7692.76014
 615.95; 7648.520;  -42.780;    0.000;7691.30002
 616.22; 7599.700;  -39.310;    0.000;7639.01020
 616.50; 7541.140;  -36.190;    0.000;7577.33014
 616.77; 7450.840;  -39.210;    0.000;7490.04984
 617.05; 7436.140;  -40.130;    0.000;7476.27014
 617.32; 7338.900;  -41.510;    0.000;7380.40990
 617.59; 7243.120;  -39.270;    0.000;7282.39012
 617.87; 7178.240;  -46.440;    0.000;7224.68023
 618.14; 7090.520;  -39.430;    0.000;7129.95002
 618.42; 7023.660;  -48.270;    0.000;7071.93016
 618.69; 6989.220;  -42.280;    0.000;7031.50021
 618.97; 6857.080;  -50.160;    0.000;6907.24008
 619.24; 6815.440;  -46.580;    0.000;6862.01994
 619.51; 6714.060;  -37.650;    0.000;6751.71006
 619.79; 6572.240;  -40.650;    0.000;6612.89024
 620.06; 6484.360;  -36.470;    0.000;6520.82986
 620.34; 6385.600;  -42.190;    0.000;6427.79010
 620.61; 6298.680;  -36.840;    0.000;6335.52018
 620.88; 6251.340;  -52.820;    0.000;6304.15984
 621.16; 6336.800;  -38.520;    0.000;6375.31981
 621.43; 6386.200;  -40.070;    0.000;6426.27020
 621.71; 6406.060;  -40.440;    0.000;6446.50006
 621.98; 6311.260;  -42.920;    0.000;6354.17976
 622.25; 6241.260;  -42.110;    0.000;6283.36977
 622.53; 6252.160;  -43.900;    0.000;6296.06016
 622.80; 6189.620;  -48.280;    0.000;6237.90012
 623.08; 6153.300;  -48.410;    0.000;6201.70980
 623.35; 6081.980;  -42.130;    0.000;6124.10998
 623.62; 6052.180;  -41.870;    0.000;6094.05017
 623.90; 5996.200;  -44.400;    0.000;6040.60020
 624.17; 6014.840;  -45.690;    0.000;6060.52984
 624.44; 5934.080;  -37.610;    0.000;5971.69008
 624.72; 5933.520;  -46.110;    0.000;5979.63002
 624.99; 5867.620;  -46.780;    0.000;5914.40012
 625.26; 5920.720;  -48.840;    0.000;5969.56021
 625.54; 5956.260;  -34.500;    0.000;5990.75977
 625.81; 5942.340;  -39.400;    0.000;5981.73985
 626.09; 5938.980;  -42.260;    0.000;5981.23998
 626.36; 5921.440;  -45.970;    0.000;5967.40994
 626.63; 5912.660;  -41.260;    0.000;5953.92015
 626.91; 5900.200;  -45.500;    0.000;5945.70020
 627.18; 5905.660;  -36.360;    0.000;5942.02016
 627.45; 5870.980;  -44.240;    0.000;5915.21998
 627.73; 5848.340;  -37.730;    0.000;5886.06984
 628.00; 5806.880;  -50.130;    0.000;5857.00988
 628.27; 5796.280;  -40.330;    0.000;5836.60979
 628.55; 5750.920;  -44.630;    0.000;5795.54992
 628.82; 5753.860;  -48.870;    0.000;5802.72986
 629.09; 5687.780;  -49.850;    0.000;5737.62978
 629.37; 5715.840;  -48.480;    0.000;5764.31984
 629.64; 5703.980;  -48.280;    0.000;5752.25998
 629.91; 5659.120;  -45.620;    0.000;5704.74012
 630.18; 5661.280;  -51.830;    0.000;5713.10979
 630.46; 5657.480;  -36.850;    0.000;5694.32998
 630.73; 5668.540;  -39.860;    0.000;5708.40004
 631.00; 5618.240;  -47.900;    0.000;5666.14024
 631.28; 5540.300;  -49.040;    0.000;5589.33981
 631.55; 5546.920;  -43.760;    0.000;5590.67992
 631.82; 5577.820;  -44.290;    0.000;5622.10983
 632.10; 5483.320;  -39.890;    0.000;5523.20982
 632.37; 5482.080;  -43.540;    0.000;5525.62008
 632.64; 5515.900;  -40.290;    0.000;5556.18990
 632.91; 5439.400;  -40.250;    0.000;5479.64990
 633.19; 5416.760;  -41.720;    0.000;5458.47977
 633.46; 5417.140;  -51.730;    0.000;5468.87014
 633.73; 5408.440;  -38.000;    0.000;5446.43994
 634.01; 5373.400;  -45.300;    0.000;5418.69990
 634.28; 5397.880;  -41.280;    0.000;5439.15988
 634.55; 5404.800;  -41.150;    0.000;5445.94981
 634.82; 5365.080;  -47.530;    0.000;5412.61008
 635.10; 5316.560;  -39.270;    0.000;5355.83006
 635.37; 5280.020;  -47.120;    0.000;5327.14002
 635.64; 5296.980;  -54.360;    0.000;5351.33998
 635.91; 5323.720;  -48.020;    0.000;5371.74022
 636.19; 5276.500;  -44.600;    0.000;5321.10000
 636.46; 5272.840;  -48.800;    0.000;5321.63984
 636.73; 5305.520;  -39.570;    0.000;5345.09002
 637.00; 5283.540;  -42.160;    0.000;5325.70004
 637.28; 5301.880;  -50.320;    0.000;5352.19988
 637.55; 5327.320;  -43.570;    0.000;5370.88982
 637.82; 5238.720;  -46.760;    0.000;5285.48021
 638.09; 5183.320;  -39.060;    0.000;5222.37983
 638.37; 5058.780;  -46.470;    0.000;5105.24979
 638.64; 4994.260;  -47.310;    0.000;5041.56977
 638.91; 5029.580;  -41.310;    0.000;5070.89008
 639.18; 5026.620;  -43.470;    0.000;5070.09012
 639.46; 4942.060;  -48.390;    0.000;4990.45006
 639.73; 4912.940;  -39.780;    0.000;4952.71994
 640.00; 4886.340;  -45.530;    0.000;4931.86984
 640.27; 4855.880;  -46.560;    0.000;4902.43988
 640.54; 4820.420;  -51.660;    0.000;4872.07992
 640.82; 4784.300;  -48.560;    0.000;4832.85981
 641.09; 4787.100;  -48.760;    0.000;4835.86010
 641.36; 4732.720;  -46.200;    0.000;4778.92022
 641.63; 4650.600;  -55.600;    0.000;4706.20010
 641.91; 4632.460;  -46.400;    0.000;4678.85996
 642.18; 4573.620;  -52.210;    0.000;4625.83012
 642.45; 4532.640;  -52.490;    0.000;4585.13014
 642.72; 4519.380;  -53.360;    0.000;4572.73988
 642.99; 4466.660;  -36.570;    0.000;4503.23016
 643.26; 4405.900;  -47.650;    0.000;4453.54990
 643.54; 4385.500;  -40.710;    0.000;4426.21000
 643.81; 4357.960;  -55.630;    0.000;4413.58996
 644.08; 4318.420;  -47.930;    0.000;4366.34992
 644.35; 4282.320;  -48.850;    0.000;4331.16982
 644.62; 4237.480;  -49.000;    0.000;4286.47998
 644.90; 4223.120;  -43.820;    0.000;4266.94012
 645.17; 4197.620;  -51.370;    0.000;4248.99012
 645.44; 4167.140;  -47.130;    0.000;4214.27014
 645.71; 4116.180;  -49.200;    0.000;4165.38018
 645.98; 4117.220;  -46.690;    0.000;4163.91021
 646.25; 4081.160;  -46.940;    0.000;4128.09991
 646.53; 4066.900;  -50.370;    0.000;4117.26990
 646.80; 4040.060;  -42.780;    0.000;4082.84006
 647.07; 4024.880;  -59.170;    0.000;4084.04988
 647.34; 4003.080;  -47.590;    0.000;4050.67008
 647.61; 3973.720;  -45.690;    0.000;4019.40997
 647.88; 3972.820;  -38.410;    0.000;4011.23007
 648.15; 3900.440;  -51.900;    0.000;3952.33994
 648.43; 3870.700;  -52.460;    0.000;3923.15995
 648.70; 3844.100;  -50.870;    0.000;3894.97010
 648.97; 3875.300;  -44.090;    0.000;3919.39005
 649.24; 3809.960;  -46.570;    0.000;3856.52996
 649.51; 3780.540;  -56.440;    0.000;3836.98004
 649.78; 3772.960;  -48.510;    0.000;3821.46996
 650.05; 3731.700;  -44.310;    0.000;3776.00995
 650.32; 3777.080;  -21.090;    0.000;3798.17008
 650.60; 3704.460;  -47.320;    0.000;3751.77996
 650.87; 3680.200;  -50.640;    0.000;3730.83995
 651.14; 3633.560;  -54.410;    0.000;3687.97006
 651.41; 3628.160;  -54.500;    0.000;3682.65991
 651.68; 3569.280;  -50.510;    0.000;3619.79003
 651.95; 3571.700;  -48.670;    0.000;3620.36995
 652.22; 3545.720;  -53.000;    0.000;3598.71997
 652.49; 3527.180;  -58.480;    0.000;3585.65993
 652.76; 3516.260;  -53.540;    0.000;3569.80001
 653.03; 3489.900;  -48.460;    0.000;3538.35990
 653.31; 3474.880;  -50.850;    0.000;3525.72988
 653.58; 3444.880;  -50.660;    0.000;3495.53988
 653.85; 3432.840;  -53.770;    0.000;3486.61009
 654.12; 3418.100;  -52.700;    0.000;3470.80010
 654.39; 3373.160;  -49.080;    0.000;3422.23991
 654.66; 3399.620;  -44.350;    0.000;3443.97012
 654.93; 3354.440;  -40.020;    0.000;3394.45994
 655.20; 3297.080;  -51.700;    0.000;3348.78008
 655.47; 3300.140;  -52.020;    0.000;3352.15989
 655.74; 3312.720;  -46.170;    0.000;3358.88997
 656.01; 3243.320;  -53.270;    0.000;3296.59007
 656.28; 3261.600;  -53.920;    0.000;3315.52010
 656.55; 3223.920;  -44.780;    0.000;3268.69992
 656.83; 3160.640;  -54.700;    0.000;3215.33989
 657.10; 3155.460;  -54.950;    0.000;3210.40996
 657.37; 3155.920;  -45.470;    0.000;3201.38992
 657.64; 3147.420;  -50.040;    0.000;3197.45992
 657.91; 3093.720;  -54.530;    0.000;3148.24997
 658.18; 3131.420;  -48.090;    0.000;3179.50992
 658.45; 3045.200;  -53.800;    0.000;3098.99995
 658.72; 3063.540;  -49.560;    0.000;3113.10004
 658.99; 3033.280;  -52.810;    0.000;3086.09003
 659.26; 3079.240;  -44.460;    0.000;3123.69999
 659.53; 2997.400;  -53.390;    0.000;3050.78990
 659.80; 2938.040;  -50.980;    0.000;2989.02004
 660.07; 2965.520;  -41.400;    0.000;3006.92002
 660.34; 2922.780;  -52.590;    0.000;2975.37003
 660.61; 2923.120;  -54.010;    0.000;2977.13012
 660.88; 2880.080;  -49.010;    0.000;2929.09008
 661.15; 2906.820;  -45.510;    0.000;2952.33007
 661.42; 2889.300;  -52.000;    0.000;2941.30005
 661.69; 2812.060;  -51.660;    0.000;2863.72006
 661.96; 2830.740;  -53.540;    0.000;2884.27999
 662.23; 2815.880;  -54.210;    0.000;2870.08988
 662.50; 2763.940;  -55.200;    0.000;2819.13994
 662.77; 2743.340;  -57.340;    0.000;2800.68009
 663.04; 2759.040;  -55.460;    0.000;2814.50004
 663.31; 2763.100;  -53.020;    0.000;2816.12010
 663.58; 2700.320;  -53.790;    0.000;2754.11007
 663.85; 2701.880;  -48.190;    0.000;2750.06988
 664.12; 2678.160;  -49.170;    0.000;2727.32991
 664.39; 2664.200;  -57.490;    0.000;2721.68995
 664.66; 2632.680;  -56.420;    0.000;2689.09993
 664.93; 2625.040;  -57.810;    0.000;2682.85004
 665.20; 2576.220;  -45.510;    0.000;2621.72997
 665.47; 2594.560;  -47.500;    0.000;2642.06006
 665.74; 2554.700;  -56.240;    0.000;2610.93995
 666.01; 2555.340;  -52.970;    0.000;2608.31009
 666.28; 2511.200;  -53.610;    0.000;2564.80995
 666.55; 2498.500;  -48.340;    0.000;2546.84000
 666.82; 2488.740;  -58.560;    0.000;2547.29999
 667.09; 2481.860;  -54.770;    0.000;2536.63011
 667.36; 2469.800;  -51.960;    0.000;2521.76005
 667.63; 2462.160;  -48.120;    0.000;2510.27991
 667.90; 2396.100;  -50.500;    0.000;2446.60010
 668.16; 2417.600;  -51.760;    0.000;2469.36010
 668.43; 2392.380;  -52.290;    0.000;2444.66988
 668.70; 2369.900;  -50.190;    0.000;2420.08990
 668.97; 2333.140;  -54.900;    0.000;2388.03989
 669.24; 2355.660;  -50.670;    0.000;2406.32991
 669.51; 2319.560;  -47.280;    0.000;2366.84006
 669.78; 2292.180;  -57.020;    0.000;2349.19993
 670.05; 2311.520;  -53.780;    0.000;2365.30002
 670.32; 2294.540;  -47.630;    0.000;2342.17004
 670.59; 2247.380;  -59.380;    0.000;2306.75988
 670.86; 2243.500;  -54.490;    0.000;2297.99000
 671.13; 2215.840;  -53.370;    0.000;2269.21009
 671.40; 2201.900;  -52.030;    0.000;2253.92990
 671.67; 2211.000;  -50.040;    0.000;2261.04000
 671.93; 2172.780;  -55.350;    0.000;2228.13003
 672.20; 2140.700;  -58.000;    0.000;2198.69995
 672.47; 2133.980;  -49.890;    0.000;2183.86998
 672.74; 2131.340;  -48.940;    0.000;2180.28009
 673.01; 2070.240;  -62.990;    0.000;2133.22999
 673.28; 2081.160;  -53.910;    0.000;2135.06991
 673.55; 2091.480;  -54.610;    0.000;2146.08998
 673.82; 2046.820;  -51.100;    0.000;2097.91994
 674.09; 2057.420;  -52.250;    0.000;2109.66992
 674.35; 2045.120;  -58.740;    0.000;2103.86000
 674.62; 2043.700;  -44.900;    0.000;2088.59995
 674.89; 2014.160;  -53.110;    0.000;2067.27003
 675.16; 2002.620;  -47.910;    0.000;2050.52999
 675.43; 1957.440;  -52.020;    0.000;2009.45994
 675.70; 1982.020;  -36.370;    0.000;2018.39002
 675.97; 1940.400;  -55.340;    0.000;1995.74002
 676.24; 1924.000;  -47.960;    0.000;1971.96000
 676.50; 1908.900;  -59.330;    0.000;1968.23003
 676.77; 1893.360;  -60.020;    0.000;1953.37999
 677.04; 1898.240;  -47.110;    0.000;1945.34999
 677.31; 1863.420;  -55.920;    0.000;1919.34004
 677.58; 1852.360;  -52.120;    0.000;1904.47998
 677.85; 1869.000;  -48.990;    0.000;1917.99000
 678.12; 1839.940;  -52.160;    0.000;1892.09994
 678.38; 1842.120;  -54.140;    0.000;1896.25999
 678.65; 1787.460;  -60.680;    0.000;1848.13996
 678.92; 1784.840;  -53.340;    0.000;1838.17997
 679.19; 1807.200;  -39.870;    0.000;1847.06995
 679.46; 1781.120;  -46.760;    0.000;1827.87999
 679.73; 1752.800;  -59.180;    0.000;1811.98005
 679.99; 1710.680;  -56.270;    0.000;1766.95005
 680.26; 1690.220;  -54.520;    0.000;1744.73997
 680.53; 1690.580;  -59.650;    0.000;1750.22996
 680.80; 1704.760;  -56.750;    0.000;1761.51001
 681.07; 1697.000;  -55.340;    0.000;1752.34000
 681.33; 1686.480;  -54.670;    0.000;1741.14998
 681.60; 1650.280;  -52.230;    0.000;1702.51003
 681.87; 1674.080;  -54.620;    0.000;1728.69995
 682.14; 1640.940;  -52.270;    0.000;1693.20994
 682.41; 1613.620;  -57.990;    0.000;1671.61000
 682.67; 1627.140;  -50.450;    0.000;1677.59002
 682.94; 1573.860;  -59.360;    0.000;1633.21999
 683.21; 1575.980;  -53.700;    0.000;1629.67998
 683.48; 1588.460;  -55.450;    0.000;1643.90996
 683.75; 1585.940;  -47.950;    0.000;1633.88994
 684.01; 1579.380;  -46.370;    0.000;1625.75000
 684.28; 1557.420;  -57.410;    0.000;1614.83004
 684.55; 1528.800;  -54.400;    0.000;1583.20005
 684.82; 1514.600;  -62.610;    0.000;1577.20998
 685.09; 1518.580;  -45.320;    0.000;1563.89996
 685.35; 1501.760;  -50.950;    0.000;1552.71001
 685.62; 1495.700;  -53.810;    0.000;1549.50995
 685.89; 1485.020;  -50.790;    0.000;1535.81002
 686.16; 1431.680;  -60.890;    0.000;1492.57005
 686.42; 1460.040;  -53.860;    0.000;1513.90004
 686.69; 1453.300;  -49.770;    0.000;1503.07005
 686.96; 1405.080;  -58.350;    0.000;1463.42995
 687.23; 1428.760;  -53.370;    0.000;1482.13001
 687.49; 1426.900;  -46.350;    0.000;1473.25002
 687.76; 1400.660;  -56.190;    0.000;1456.85003
 688.03; 1392.040;  -57.270;    0.000;1449.31004
 688.30; 1375.760;  -63.910;    0.000;1439.67001
 688.56; 1362.840;  -49.760;    0.000;1412.59996
 688.83; 1339.220;  -58.260;    0.000;1397.47997
 689.10; 1350.740;  -59.880;    0.000;1410.61999
 689.37; 1317.540;  -60.250;    0.000;1377.79004
 689.63; 1301.780;  -58.120;    0.000;1359.90003
 689.90; 1298.660;  -42.960;    0.000;1341.62003
 690.17; 1322.140;  -57.170;    0.000;1379.31001
 690.44; 1269.480;  -53.100;    0.000;1322.57998
 690.70; 1256.440;  -64.370;    0.000;1320.80994
 690.97; 1257.500;  -52.060;    0.000;1309.56000
 691.24; 1270.860;  -45.640;    0.000;1316.49998
 691.50; 1230.120;  -63.810;    0.000;1293.93000
 691.77; 1239.180;  -61.380;    0.000;1300.56005
 692.04; 1221.060;  -50.390;    0.000;1271.45006
 692.30; 1203.840;  -61.100;    0.000;1264.93996
 692.57; 1201.660;  -55.730;    0.000;1257.39003
 692.84; 1175.740;  -60.990;    0.000;1236.72999
 693.11; 1163.100;  -51.860;    0.000;1214.95998
 693.37; 1173.820;  -50.850;    0.000;1224.66994
 693.64; 1167.040;  -63.550;    0.000;1230.59004
 693.91; 1133.020;  -52.450;    0.000;1185.47002
 694.17; 1136.360;  -52.150;    0.000;1188.50999
 694.44; 1119.680;  -55.600;    0.000;1175.28005
 694.71; 1099.880;  -66.220;    0.000;1166.10001
 694.97; 1104.840;  -60.180;    0.000;1165.01997
 695.24; 1083.520;  -60.420;    0.000;1143.94002
 695.51; 1067.300;  -64.250;    0.000;1131.55005
 695.77; 1069.460;  -53.070;    0.000;1122.52996
 696.04; 1042.100;  -57.450;    0.000;1099.54998
 696.31; 1047.000;  -55.850;    0.000;1102.85000
 696.57; 1068.160;  -48.360;    0.000;1116.52003
 696.84; 1024.460;  -56.540;    0.000;1080.99996
 697.11; 1024.680;  -49.450;    0.000;1074.13005
 697.37; 1030.380;  -52.390;    0.000;1082.77000
 697.64;  987.460;  -50.550;    0.000;1038.01002
 697.91;  983.420;  -63.040;    0.000;1046.45998
 698.17;  968.340;  -58.460;    0.000;1026.80003
 698.44;  969.660;  -54.420;    0.000;1024.07997
 698.71;  946.100;  -60.630;    0.000;1006.72998
 698.97;  922.440;  -56.130;    0.000;978.57000
 699.24;  933.460;  -57.190;    0.000;990.65002
 699.50;  897.200;  -63.610;    0.000;960.81001
 699.77;  909.580;  -63.480;    0.000;973.06002
 700.04;  896.520;  -56.390;    0.000;952.91002
 700.30;  868.700;  -57.580;    0.000;926.28001
 700.57;  856.720;  -57.160;    0.000;913.87997
 700.84;  847.460;  -52.700;    0.000;900.16002
 701.10;  845.940;  -55.650;    0.000;901.59000
 701.37;  850.640;  -57.060;    0.000;907.70002
 701.63;  799.920;  -60.840;    0.000;860.75998
 701.90;  836.440;  -55.460;    0.000;891.90000
 702.17;  805.880;  -46.530;    0.000;852.41000
 702.43;  786.880;  -56.900;    0.000;843.78001
 702.70;  809.380;  -43.080;    0.000;852.46001
 702.96;  778.580;  -57.550;    0.000;836.13002
 703.23;  751.720;  -63.900;    0.000;815.61997
 703.50;  740.660;  -57.740;    0.000;798.39997
 703.76;  751.360;  -60.140;    0.000;811.49998
 704.03;  740.860;  -62.000;    0.000;802.85999
 704.29;  712.060;  -56.620;    0.000;768.68000
 704.56;  692.820;  -66.340;    0.000;759.16000
 704.82;  690.880;  -61.140;    0.000;752.02000
 705.09;  689.100;  -50.240;    0.000;739.33998
 705.36;  665.560;  -63.730;    0.000;729.29000
 705.62;  695.440;  -45.100;    0.000;740.54000
 705.89;  654.200;  -57.710;    0.000;711.91001
 706.15;  638.120;  -52.660;    0.000;690.77999
 706.42;  643.280;  -49.750;    0.000;693.03003
 706.68;  607.880;  -59.540;    0.000;667.42001
 706.95;  608.660;  -55.380;    0.000;664.03997
 707.21;  596.540;  -63.590;    0.000;660.12998
 707.48;  586.240;  -61.770;    0.000;648.00999
 707.75;  574.080;  -54.600;    0.000;628.68002
 708.01;  571.740;  -64.580;    0.000;636.31999
 708.28;  570.660;  -55.470;    0.000;626.12997
 708.54;  554.600;  -64.490;    0.000;619.08997
 708.81;  565.960;  -52.630;    0.000;618.59002
 709.07;  539.900;  -58.430;    0.000;598.33002
 709.34;  512.020;  -63.150;    0.000;575.17002
 709.60;  522.000;  -59.760;    0.000;581.76000
 709.87;  522.760;  -51.730;    0.000;574.49001
 710.13;  495.060;  -58.250;    0.000;553.31000
 710.40;  484.120;  -67.870;    0.000;551.99000
 710.66;  486.800;  -58.170;    0.000;544.96999
 710.93;  498.220;  -58.390;    0.000;556.61000
 711.19;  457.480;  -60.660;    0.000;518.14001
 711.46;  486.860;  -53.110;    0.000;539.96999
 711.72;  470.880;  -53.100;    0.000;523.98000
 711.99;  469.020;  -64.700;    0.000;533.71999
 712.25;  462.500;  -54.480;    0.000;516.98000
 712.52;  466.660;  -51.400;    0.000;518.06001
 712.78;  442.600;  -54.830;    0.000;497.43001
 713.05;  422.120;  -61.310;    0.000;483.43000
 713.31;  432.340;  -54.880;    0.000;487.22000
 713.58;  432.400;  -56.790;    0.000;489.18999
 713.84;  419.140;  -53.100;    0.000;472.24001
 714.11;  398.400;  -62.430;    0.000;460.82999
 714.37;  432.940;  -52.180;    0.000;485.12000
 714.64;  406.760;  -54.400;    0.000;461.16001
 714.90;  399.020;  -53.310;    0.000;452.32999
 715.17;  394.680;  -57.550;    0.000;452.22999
 715.43;  382.780;  -50.260;    0.000;433.04000
 715.70;  379.320;  -55.710;    0.000;435.03001
 715.96;  381.860;  -54.690;    0.000;436.54998
 716.22;  373.700;  -61.380;    0.000;435.08001
 716.49;  379.020;  -58.790;    0.000;437.80999
 716.75;  361.820;  -62.550;    0.000;424.37001
 717.02;  381.940;  -58.140;    0.000;440.08000
 717.28;  365.120;  -63.690;    0.000;428.80999
 717.55;  356.280;  -62.720;    0.000;419.00000
 717.81;  352.120;  -56.110;    0.000;408.23000
 718.08;  369.980;  -58.860;    0.000;428.84001
 718.34;  363.480;  -65.190;    0.000;428.67001
 718.60;  357.200;  -51.960;    0.000;409.16001
 718.87;  361.320;  -58.480;    0.000;419.80001
 719.13;  343.620;  -63.390;    0.000;407.00999
 719.40;  350.460;  -57.650;    0.000;408.10999
 719.66;  343.280;  -60.260;    0.000;403.54000
 719.93;  340.600;  -56.900;    0.000;397.50001
 720.19;  326.680;  -67.380;    0.000;394.05999
 720.45;  344.960;  -62.750;    0.000;407.70999
 720.72;  351.160;  -57.950;    0.000;409.11000
 720.98;  341.280;  -55.200;    0.000;396.48000
 721.25;  330.880;  -64.310;    0.000;395.19000
 721.51;  324.920;  -68.290;    0.000;393.21001
 721.77;  334.840;  -60.350;    0.000;395.18999
 722.04;  351.620;  -45.030;    0.000;396.64999
 722.30;  332.400;  -55.770;    0.000;388.16999
 722.57;  335.220;  -60.430;    0.000;395.65000
 722.83;  331.740;  -62.410;    0.000;394.14999
 723.09;  312.080;  -64.170;    0.000;376.24998
 723.36;  324.600;  -64.180;    0.000;388.78001
 723.62;  340.040;  -58.620;    0.000;398.66001
 723.88;  340.040;  -56.860;    0.000;396.90001
 724.15;  313.380;  -56.520;    0.000;369.90001
 724.41;  325.100;  -63.620;    0.000;388.72001
 724.68;  332.320;  -62.790;    0.000;395.11001
 724.94;  337.760;  -49.670;    0.000;387.43001
 725.20;  326.000;  -59.760;    0.000;385.76000
 725.47;  316.460;  -61.790;    0.000;378.24999
 725.73;  322.800;  -57.560;    0.000;380.35999
 725.99;  324.920;  -62.280;    0.000;387.20001
 726.26;  320.940;  -48.740;    0.000;369.68000
 726.52;  319.340;  -52.300;    0.000;371.64000
 726.78;  310.100;  -64.050;    0.000;374.15001
 727.05;  305.260;  -58.610;    0.000;363.87001
 727.31;  330.340;  -65.490;    0.000;395.82999
 727.57;  308.700;  -61.120;    0.000;369.82001
 727.84;  312.880;  -54.090;    0.000;366.97001
 728.10;  316.860;  -57.090;    0.000;373.94999
 728.36;  291.040;  -62.130;    0.000;353.17001
 728.63;  318.020;  -64.770;    0.000;382.78999
 728.89;  289.580;  -68.210;    0.000;357.78999
 729.15;  292.120;  -60.940;    0.000;353.05999
 729.42;  282.160;  -64.380;    0.000;346.54000
 729.68;  305.020;  -59.120;    0.000;364.13999
 729.94;  278.120;  -61.710;    0.000;339.82999
 730.21;  291.320;  -63.750;    0.000;355.07001
 730.47;  274.700;  -65.420;    0.000;340.12001
 730.73;  291.760;  -62.120;    0.000;353.88001
 731.00;  295.960;  -57.710;    0.000;353.66999
 731.26;  293.320;  -55.830;    0.000;349.15001
 731.52;  286.740;  -65.480;    0.000;352.21999
 731.78;  271.580;  -64.150;    0.000;335.72999
 732.05;  269.700;  -63.760;    0.000;333.46001
 732.31;  273.040;  -66.150;    0.000;339.19001
 732.57;  275.280;  -62.040;    0.000;337.32000
 732.84;  264.900;  -65.060;    0.000;329.95999
 733.10;  263.660;  -61.680;    0.000;325.34000
 733.36;  266.500;  -65.560;    0.000;332.06000
 733.62;  265.960;  -68.590;    0.000;334.54999
 733.89;  262.660;  -60.690;    0.000;323.35000
 734.15;  263.240;  -62.020;    0.000;325.25999
 734.41;  260.120;  -59.170;    0.000;319.28999
 734.67;  259.740;  -65.610;    0.000;325.34999
 734.94;  249.740;  -64.100;    0.000;313.84000
 735.20;  268.080;  -64.260;    0.000;332.33999
 735.46;  252.060;  -61.760;    0.000;313.82000
 735.73;  255.380;  -62.280;    0.000;317.66000
 735.99;  247.460;  -63.580;    0.000;311.04001
 736.25;  248.860;  -65.330;    0.000;314.19000
 736.51;  240.980;  -64.780;    0.000;305.75999
 736.77;  239.180;  -59.870;    0.000;299.04999
 737.04;  240.480;  -62.400;    0.000;302.88000
 737.30;  236.160;  -60.030;    0.000;296.19000
 737.56;  241.400;  -57.690;    0.000;299.08999
 737.82;  231.920;  -62.400;    0.000;294.32000
 738.09;  225.600;  -61.080;    0.000;286.68001
 738.35;  223.880;  -65.060;    0.000;288.94000
 738.61;  240.260;  -60.770;    0.000;301.02999
 738.87;  229.720;  -61.660;    0.000;291.38000
 739.14;  227.000;  -59.450;    0.000;286.45000
 739.40;  213.960;  -66.620;    0.000;280.58001
 739.66;  218.420;  -65.480;    0.000;283.90000
 739.92;  211.560;  -64.110;    0.000;275.67000
 740.18;  214.380;  -58.910;    0.000;273.29000
 740.45;  205.340;  -66.570;    0.000;271.91000
 740.71;  216.720;  -64.190;    0.000;280.91000
 740.97;  209.260;  -61.620;    0.000;270.87999
 741.23;  203.900;  -64.440;    0.000;268.34000
 741.49;  198.500;  -61.870;    0.000;260.37000
 741.76;  191.240;  -69.670;    0.000;260.91000
 742.02;  190.580;  -70.580;    0.000;261.16000
 742.28;  210.300;  -67.810;    0.000;278.11000
 742.54;  194.500;  -67.320;    0.000;261.82000
 742.80;  178.560;  -66.940;    0.000;245.50000
 743.06;  207.000;  -60.220;    0.000;267.22000
 743.33;  187.800;  -60.250;    0.000;248.05000
 743.59;  186.020;  -71.210;    0.000;257.23000
 743.85;  179.220;  -63.280;    0.000;242.50000
 744.11;  180.340;  -65.520;    0.000;245.85999
 744.37;  183.080;  -63.300;    0.000;246.38000
 744.63;  162.500;  -62.430;    0.000;224.93000
 744.90;  166.500;  -61.300;    0.000;227.80000
 745.16;  155.920;  -61.400;    0.000;217.32000
 745.42;  172.640;  -69.410;    0.000;242.05000
 745.68;  170.540;  -62.770;    0.000;233.30999
 745.94;  194.520;  -54.740;    0.000;249.26001
 746.20;  167.380;  -62.940;    0.000;230.32000
 746.46;  186.180;  -58.490;    0.000;244.66999
 746.72;  170.260;  -60.020;    0.000;230.27999
 746.99;  156.180;  -59.340;    0.000;215.51999
 747.25;  173.840;  -54.110;    0.000;227.95000
 747.51;  157.960;  -63.240;    0.000;221.20001
 747.77;  162.140;  -66.010;    0.000;228.15000
 748.03;  149.420;  -65.590;    0.000;215.00999
 748.29;  142.160;  -63.300;    0.000;205.46000
 748.55;  151.480;  -63.610;    0.000;215.09000
 748.81;  139.280;  -65.400;    0.000;204.68000
 749.08;  152.960;  -61.140;    0.000;214.10001
 749.34;  144.360;  -61.020;    0.000;205.38000
 749.60;  146.840;  -61.090;    0.000;207.93000
 749.86;  152.520;  -62.460;    0.000;214.98000
 750.12;  140.800;  -58.080;    0.000;198.88000
 750.38;  140.540;  -66.740;    0.000;207.27999
 750.64;  119.460;  -64.990;    0.000;184.45000
 750.90;  142.620;  -61.010;    0.000;203.62999
 751.16;  128.400;  -66.030;    0.000;194.42999
 751.42;  111.020;  -63.820;    0.000;174.84000
 751.68;  128.100;  -57.490;    0.000;185.59001
 751.95;  110.480;  -66.360;    0.000;176.84000
 752.21;  109.100;  -68.570;    0.000;177.67000
 752.47;  108.080;  -59.310;    0.000;167.39000
 752.73;  107.620;  -72.150;    0.000;179.77000
 752.99;  110.160;  -62.330;    0.000;172.49001
 753.25;  110.160;  -68.210;    0.000;178.37000
 753.51;   90.780;  -66.540;    0.000;157.32000
 753.77;  107.480;  -65.250;    0.000;172.73000
 754.03;   97.780;  -63.310;    0.000;161.09000
 754.29;   97.840;  -69.830;    0.000;167.67000
 754.55;   90.920;  -73.220;    0.000;164.14000
 754.81;  112.300;  -65.730;    0.000;178.03001
 755.07;   95.540;  -60.480;    0.000;156.02000
 755.33;   92.220;  -68.640;    0.000;160.86000
 755.59;   85.940;  -69.750;    0.000;155.69000
 755.85;   89.860;  -61.550;    0.000;151.41000
 756.11;   82.520;  -66.180;    0.000;148.70000
 756.37;   75.280;  -68.200;    0.000;143.48000
 756.63;  116.120;  -52.880;    0.000;169.00000
 756.89;   82.600;  -77.540;    0.000;160.14000
 757.15;   76.940;  -67.220;    0.000;144.16000
 757.41;  101.580;  -51.850;    0.000;153.43000
 757.68;   75.020;  -69.940;    0.000;144.96000
 757.94;   83.500;  -61.100;    0.000;144.60000
 758.20;   97.520;  -60.850;    0.000;158.37000
 758.46;   67.320;  -65.120;    0.000;132.44000
 758.72;   61.600;  -70.550;    0.000;132.15000
 758.98;   83.420;  -58.450;    0.000;141.87000
 759.24;   73.700;  -62.840;    0.000;136.54000
 759.50;   76.740;  -60.370;    0.000;137.11000
 759.76;   75.960;  -58.150;    0.000;134.11000
 760.02;   58.440;  -64.840;    0.000;123.27999
 760.27;   76.060;  -64.360;    0.000;140.42000
 760.53;   78.980;  -61.770;    0.000;140.75000
 760.79;   79.400;  -58.420;    0.000;137.82000
 761.05;   60.680;  -59.730;    0.000;120.41000
 761.31;   71.980;  -68.970;    0.000;140.95000
 761.57;   78.340;  -64.760;    0.000;143.10000
 761.83;   65.480;  -63.850;    0.000;129.33000
 762.09;   51.960;  -60.800;    0.000;112.76000
 762.35;   50.120;  -73.160;    0.000;123.28000
 762.61;   53.100;  -65.790;    0.000;118.89000
 762.87;   66.760;  -64.790;    0.000;131.55000
 763.13;   45.760;  -65.200;    0.000;110.96000
 763.39;   74.720;  -58.510;    0.000;133.23000
 763.65;   43.780;  -65.790;    0.000;109.57000
 763.91;   41.200;  -68.850;    0.000;110.05000
 764.17;   59.280;  -61.550;    0.000;120.83000
 764.43;   55.120;  -65.120;    0.000;120.24000
 764.69;   47.440;  -67.690;    0.000;115.13000
 764.95;   51.680;  -65.290;    0.000;116.97000
 765.21;   41.160;  -64.710;    0.000;105.87000
 765.47;   58.880;  -60.070;    0.000;118.95000
 765.73;   42.880;  -63.090;    0.000;105.97000
 765.98;   65.940;  -62.060;    0.000;128.00000
 766.24;   37.800;  -71.710;    0.000;109.51000
 766.50;   29.940;  -70.390;    0.000;100.33000
 766.76;   55.280;  -59.140;    0.000;114.42000
 767.02;   35.980;  -67.650;    0.000;103.63000
 767.28;   35.440;  -62.770;    0.000;98.21000
 767.54;   35.580;  -65.130;    0.000;100.71000
 767.80;   39.080;  -67.980;    0.000;107.06001
 768.06;   46.320;  -57.150;    0.000;103.47000
 768.32;   54.080;  -55.090;    0.000;109.17000
 768.58;   34.260;  -72.460;    0.000;106.72000
 768.83;   33.980;  -67.770;    0.000;101.75000
 769.09;   27.920;  -63.610;    0.000;91.53000
 769.35;   36.160;  -63.310;    0.000;99.47000
 769.61;   35.540;  -65.500;    0.000;101.04000
 769.87;   34.940;  -60.230;    0.000;95.17000
 770.13;   39.400;  -65.920;    0.000;105.32000
 770.39;   21.380;  -67.330;    0.000;88.71000
 770.65;   31.940;  -65.630;    0.000;97.57000
 770.90;   25.140;  -71.040;    0.000;96.18000
 771.16;   21.060;  -65.650;    0.000;86.71000
 771.42;   14.220;  -60.610;    0.000;74.83000
 771.68;   16.240;  -72.120;    0.000;88.36000
 771.94;   31.300;  -64.270;    0.000;95.57000
 772.20;   21.120;  -71.570;    0.000;92.69000
 772.46;   13.360;  -70.450;    0.000;83.81000
 772.71;   27.240;  -62.790;    0.000;90.03000
 772.97;   30.600;  -61.450;    0.000;92.05000
 773.23;   16.000;  -66.880;    0.000;82.88000
 773.49;   43.560;  -61.900;    0.000;105.46000
 773.75;   17.260;  -66.690;    0.000;83.95000
 774.01;   16.840;  -66.730;    0.000;83.57000
 774.26;   -6.920;  -70.110;    0.000;63.19000
 774.52;   35.560;  -57.630;    0.000;93.19000
 774.78;    5.580;  -67.870;    0.000;73.45000
 775.04;   44.560;  -57.380;    0.000;101.94000
 775.30;   17.180;  -70.620;    0.000;87.80000
 775.56;    3.840;  -62.130;    0.000;65.97000
 775.81;   25.180;  -62.360;    0.000;87.54000
 776.07;    0.740;  -63.320;    0.000;64.06000
 776.33;   14.780;  -66.810;    0.000;81.59000
 776.59;   -3.720;  -72.310;    0.000;68.59000
 776.85;   -6.580;  -72.330;    0.000;65.75000
 777.10;   10.540;  -66.910;    0.000;77.45000
 777.36;   10.320;  -70.350;    0.000;80.67000
 777.62;   14.860;  -66.270;    0.000;81.13000
 777.88;    2.560;  -66.450;    0.000;69.01000
 778.14;    4.340;  -67.860;    0.000;72.20000
 778.39;    5.160;  -69.450;    0.000;74.61000
 778.65;    1.700;  -66.470;    0.000;68.17000
 778.91;   -5.260;  -72.700;    0.000;67.44000
 779.17;    8.300;  -59.560;    0.000;67.86000
 779.42;   -0.480;  -73.390;    0.000;72.91000
 779.68;   -5.940;  -69.660;    0.000;63.72000
 779.94;   11.900;  -68.700;    0.000;80.60000
 780.20;   -0.600;  -73.010;    0.000;72.41000
 780.46;   -2.160;  -73.730;    0.000;71.57000
 780.71;    7.140;  -65.500;    0.000;72.64000
 780.97;   -0.960;  -67.720;    0.000;66.76000
 781.23;   -4.400;  -68.470;    0.000;64.07000
 781.49;    3.120;  -65.070;    0.000;68.19000
 781.74;   -3.140;  -62.670;    0.000;59.53000
 782.00;   -8.880;  -71.050;    0.000;62.17000
 782.26;    3.600;  -61.940;    0.000;65.54000
 782.52;    3.020;  -67.400;    0.000;70.42000
 782.77;    1.300;  -63.130;    0.000;64.43000
 783.03;  -10.100;  -72.070;    0.000;61.97000
 783.29;  -12.820;  -67.470;    0.000;54.65000
 783.54;   -8.800;  -69.510;    0.000;60.71000
 783.80;   -0.880;  -61.520;    0.000;60.64000
 784.06;  -11.440;  -72.390;    0.000;60.95000
 784.32;  -10.320;  -69.850;    0.000;59.53000
 784.57;   13.980;  -57.390;    0.000;71.37000
 784.83;  -21.680;  -75.500;    0.000;53.82000
 785.09;  -13.320;  -75.670;    0.000;62.35000
 785.34;  -13.700;  -67.830;    0.000;54.13000
 785.60;   -4.340;  -68.990;    0.000;64.65000
 785.86;  -18.700;  -65.770;    0.000;47.07000
 786.12;    4.320;  -64.000;    0.000;68.32000
 786.37;    1.100;  -58.590;    0.000;59.69000
 786.63;  -22.140;  -70.160;    0.000;48.02000
 786.89;  -12.700;  -64.130;    0.000;51.43000
 787.14;    0.000;  -68.600;    0.000;68.60000
 787.40;   -6.760;  -65.120;    0.000;58.36000
 787.66;  -12.540;  -69.570;    0.000;57.03000
 787.91;   10.420;  -54.980;    0.000;65.40000
 788.17;  -14.220;  -74.240;    0.000;60.02000
 788.43;  -29.920;  -65.670;    0.000;35.75000
 788.68;  -32.120;  -66.800;    0.000;34.68000
 788.94;  -13.700;  -64.460;    0.000;50.76000
 789.20;   -1.440;  -67.690;    0.000;66.25000
 789.45;  -20.760;  -75.860;    0.000;55.10000
 789.71;  -29.440;  -77.270;    0.000;47.83000
 789.97;   -9.180;  -62.650;    0.000;53.47000
 790.22;  -17.560;  -70.660;    0.000;53.10000
 790.48;  -18.660;  -66.280;    0.000;47.62000
 790.74;  -16.700;  -69.070;    0.000;52.37000
 790.99;  -19.620;  -67.310;    0.000;47.69000
 791.25;   -8.320;  -72.320;    0.000;64.00000
 791.51;  -34.960;  -69.110;    0.000;34.15000
 791.76;  -10.160;  -60.800;    0.000;50.64000
 792.02;  -22.540;  -69.930;    0.000;47.39000
 792.27;  -10.980;  -63.120;    0.000;52.14000
 792.53;  -19.880;  -67.640;    0.000;47.76000
 792.79;  -22.200;  -74.900;    0.000;52.70000
 793.04;  -19.280;  -66.410;    0.000;47.13000
 793.30;  -20.700;  -72.290;    0.000;51.59000
 793.56;  -22.600;  -64.850;    0.000;42.25000
 793.81;  -14.560;  -64.930;    0.000;50.37000
 794.07;  -36.040;  -78.310;    0.000;42.27000
 794.32;  -13.560;  -65.850;    0.000;52.29000
 794.58;  -22.300;  -64.290;    0.000;41.99000
 794.84;  -29.180;  -73.370;    0.000;44.19000
 795.09;  -17.580;  -63.290;    0.000;45.71000
 795.35;  -11.560;  -68.300;    0.000;56.74000
 795.60;  -15.800;  -67.650;    0.000;51.85000
 795.86;  -28.900;  -68.830;    0.000;39.93000
 796.12;  -29.640;  -75.900;    0.000;46.26000
 796.37;  -36.620;  -66.550;    0.000;29.93000
 796.63;  -18.480;  -68.700;    0.000;50.22000
 796.88;  -28.800;  -72.950;    0.000;44.15000
 797.14;  -26.040;  -65.230;    0.000;39.19000
 797.39;  -20.160;  -61.460;    0.000;41.30000
 797.65;  -21.240;  -68.500;    0.000;47.26000
 797.91;  -21.280;  -79.560;    0.000;58.28000
 798.16;  -27.020;  -69.310;    0.000;42.29000
 798.42;  -29.000;  -73.060;    0.000;44.06000
 798.67;  -30.720;  -75.160;    0.000;44.44000
 798.93;  -42.360;  -72.820;    0.000;30.46000
 799.18;  -40.660;  -69.660;    0.000;29.00000
 799.44;  -38.500;  -74.410;    0.000;35.91000
 799.69;  -18.880;  -72.570;    0.000;53.69000
 799.95;  -44.780;  -76.750;    0.000;31.97000
 800.21;  -33.280;  -71.490;    0.000;38.21000
 800.46;   -2.120;  -60.670;    0.000;58.55000
 800.72;  -45.720;  -74.550;    0.000;28.83000
 800.97;  -39.600;  -66.080;    0.000;26.48000
 801.23;  -38.640;  -69.050;    0.000;30.41000
 801.48;  -44.420;  -80.230;    0.000;35.81001
 801.74;  -43.500;  -70.650;    0.000;27.15000
 801.99;  -20.240;  -69.570;    0.000;49.33000
 802.25;  -21.640;  -68.120;    0.000;46.48000
 802.50;  -30.180;  -69.760;    0.000;39.58000
 802.76;  -25.920;  -68.390;    0.000;42.47000
 803.01;  -41.940;  -73.710;    0.000;31.77000
 803.27;  -45.460;  -68.660;    0.000;23.20000
 803.52;  -38.820;  -67.380;    0.000;28.56000
 803.78;  -30.960;  -65.800;    0.000;34.84000
 804.03;  -35.660;  -64.730;    0.000;29.07000
 804.29;  -54.300;  -73.690;    0.000;19.39000
 804.54;  -23.920;  -72.140;    0.000;48.22000
 804.80;  -35.360;  -70.710;    0.000;35.35000
 805.05;  -36.680;  -78.700;    0.000;42.02000
 805.31;  -28.540;  -64.860;    0.000;36.32000
 805.56;  -21.660;  -61.820;    0.000;40.16000
 805.82;  -48.640;  -75.510;    0.000;26.87000
 806.07;  -24.780;  -71.590;    0.000;46.81000
 806.33;  -37.520;  -63.430;    0.000;25.91000
 806.58;  -44.780;  -76.420;    0.000;31.64000
 806.84;  -33.500;  -67.110;    0.000;33.61000
 807.09;  -29.560;  -70.810;    0.000;41.25000
 807.34;  -33.520;  -71.760;    0.000;38.24000
 807.60;  -27.220;  -72.510;    0.000;45.29000
 807.85;  -27.000;  -66.100;    0.000;39.10000
 808.11;  -34.660;  -65.900;    0.000;31.24000
 808.36;  -20.940;  -56.490;    0.000;35.55000
 808.62;  -45.640;  -69.320;    0.000;23.68000
 808.87;  -41.940;  -69.730;    0.000;27.79000
 809.13;  -42.800;  -72.860;    0.000;30.06000
 809.38;  -19.360;  -63.580;    0.000;44.22000
 809.63;  -44.460;  -74.820;    0.000;30.36000
 809.89;  -25.340;  -65.740;    0.000;40.40000
 810.14;  -36.620;  -75.130;    0.000;38.51000
 810.40;  -33.640;  -66.270;    0.000;32.63000
 810.65;  -26.480;  -71.440;    0.000;44.96000
 810.91;  -61.800;  -76.930;    0.000;15.13000
 811.16;  -30.640;  -65.800;    0.000;35.16000
 811.41;  -30.420;  -58.080;    0.000;27.66000
 811.67;  -34.860;  -71.200;    0.000;36.34000
 811.92;  -33.960;  -67.900;    0.000;33.94000
 812.18;  -46.200;  -70.620;    0.000;24.42000
 812.43;  -45.020;  -69.170;    0.000;24.15000
 812.68;  -48.020;  -72.250;    0.000;24.23000
 812.94;  -43.840;  -70.010;    0.000;26.17000
 813.19;  -39.380;  -73.690;    0.000;34.31000
 813.45;   -9.260;  -54.460;    0.000;45.20000
 813.70;  -41.040;  -73.310;    0.000;32.27000
 813.95;  -35.780;  -69.970;    0.000;34.19000
 814.21;  -44.460;  -72.990;    0.000;28.53000
 814.46;  -31.420;  -66.200;    0.000;34.78000
 814.71;  -53.600;  -77.220;    0.000;23.62000
 814.97;  -42.260;  -71.610;    0.000;29.35000
 815.22;  -50.100;  -73.660;    0.000;23.56001
 815.48;  -41.120;  -74.930;    0.000;33.81000
 815.73;  -44.360;  -70.320;    0.000;25.96000
 815.98;  -46.080;  -72.260;    0.000;26.18000
 816.24;  -39.960;  -73.690;    0.000;33.73000
 816.49;  -39.280;  -67.570;    0.000;28.29000
 816.74;  -36.660;  -66.060;    0.000;29.40000
 817.00;  -21.360;  -65.110;    0.000;43.75000
 817.25;  -42.280;  -64.360;    0.000;22.08000
 817.50;  -50.500;  -71.190;    0.000;20.69000
 817.76;  -48.200;  -73.870;    0.000;25.67000
 818.01;  -50.580;  -74.140;    0.000;23.56000
 818.26;  -47.800;  -77.660;    0.000;29.86000
 818.52;  -53.860;  -71.160;    0.000;17.30000
 818.77;  -47.940;  -70.450;    0.000;22.51000
 819.02;  138.260;   -1.560;    0.000;139.81999
 819.28;  -39.700;  -76.850;    0.000;37.15000
 819.53;  -59.820;  -76.810;    0.000;16.99000
 819.78;  -37.380;  -71.320;    0.000;33.94000
 820.04;  -51.120;  -76.120;    0.000;25.00000
 820.29;  -43.600;  -69.520;    0.000;25.92000
 820.54;  -41.180;  -71.830;    0.000;30.65000
 820.79;  -41.220;  -68.430;    0.000;27.21000
 821.05;  -62.940;  -73.180;    0.000;10.24000
 821.30;  -20.440;  -60.740;    0.000;40.30000
 821.55;  -32.160;  -56.870;    0.000;24.71000
 821.81;  -45.460;  -72.250;    0.000;26.79000
 822.06;  -42.860;  -64.240;    0.000;21.38000
 822.31;  -18.360;  -64.090;    0.000;45.73000
 822.56;  -46.620;  -71.570;    0.000;24.95000
 822.82;  -44.820;  -74.760;    0.000;29.94000
 823.07;  -65.940;  -77.000;    0.000;11.06000
 823.32;  -61.500;  -86.470;    0.000;24.97000
 823.58;  -47.040;  -70.830;    0.000;23.79000
 823.83;  -62.120;  -68.440;    0.000; 6.32000
 824.08;  -53.600;  -68.700;    0.000;15.10000
 824.33;  -65.060;  -78.080;    0.000;13.02000
 824.59;  -63.880;  -75.110;    0.000;11.23000
 824.84;  -53.980;  -73.820;    0.000;19.84000
 825.09;  -53.900;  -71.350;    0.000;17.45000
 825.34;  -54.100;  -78.610;    0.000;24.51000
 825.60;  -57.960;  -76.840;    0.000;18.88000
 825.85;  -58.760;  -72.800;    0.000;14.04000
 826.10;  -71.260;  -75.820;    0.000; 4.56000
 826.35;  -52.640;  -78.380;    0.000;25.74000
 826.61;  -48.320;  -69.170;    0.000;20.85000
 826.86;  -61.320;  -74.300;    0.000;12.98000
 827.11;  -50.720;  -73.210;    0.000;22.49000
 827.36;  -63.980;  -79.440;    0.000;15.46000
 827.61;  -67.760;  -77.970;    0.000;10.21000
 827.87;  -46.460;  -73.890;    0.000;27.43000
 828.12;  -55.380;  -78.790;    0.000;23.41000
 828.37;  -49.300;  -76.470;    0.000;27.17000
 828.62;  -50.920;  -66.780;    0.000;15.86000
 828.88;  -43.260;  -68.950;    0.000;25.69000
 829.13;  -34.640;  -65.460;    0.000;30.82000
 829.38;  -48.000;  -74.310;    0.000;26.31000
 829.63;  -63.240;  -76.380;    0.000;13.14000
 829.88;  -60.760;  -77.840;    0.000;17.08000
 830.14;  -51.260;  -68.400;    0.000;17.14000
 830.39;  -50.560;  -67.150;    0.000;16.59000
 830.64;  -65.580;  -73.500;    0.000; 7.92000
 830.89;  -40.880;  -63.930;    0.000;23.05000
 831.14;  -60.440;  -65.130;    0.000; 4.69000
 831.39;  -69.080;  -80.200;    0.000;11.12000
 831.65;  -69.060;  -73.680;    0.000; 4.62000
 831.90;  -49.140;  -76.450;    0.000;27.31000
 832.15;  -51.380;  -74.460;    0.000;23.08000
 832.40;  -59.960;  -71.070;    0.000;11.11000
 832.65;  -59.340;  -65.920;    0.000; 6.58000
 832.90;  -59.240;  -71.420;    0.000;12.18000
 833.16;  -55.220;  -70.920;    0.000;15.70000
 833.41;  -59.000;  -68.270;    0.000; 9.27000
 833.66;  -67.340;  -80.480;    0.000;13.14001
 833.91;  -59.560;  -69.470;    0.000; 9.91000
 834.16;  -64.720;  -74.480;    0.000; 9.76000
 834.41;  -59.620;  -78.330;    0.000;18.71000
 834.66;  -60.800;  -73.780;    0.000;12.98000
 834.92;  -54.060;  -76.420;    0.000;22.36000
 835.17;  -60.640;  -79.700;    0.000;19.06000
 835.42;  -48.140;  -74.750;    0.000;26.61000
 835.67;  -55.800;  -67.620;    0.000;11.82000
 835.92;  -66.580;  -76.180;    0.000; 9.60000
 836.17;  -68.120;  -73.070;    0.000; 4.95000
 836.42;  -73.480;  -80.720;    0.000; 7.24000
 836.67;  -62.460;  -72.910;    0.000;10.45000
 836.93;  -61.160;  -67.370;    0.000; 6.21000
 837.18;  -54.000;  -68.480;    0.000;14.48000
 837.43;  -54.280;  -77.570;    0.000;23.29000
 837.68;  -47.080;  -75.250;    0.000;28.17000
 837.93;  -79.640;  -77.620;    0.000;-2.02000
 838.18;  -67.740;  -72.720;    0.000; 4.98000
 838.43;  -59.560;  -77.330;    0.000;17.77000
 838.68;  -65.000;  -75.400;    0.000;10.40000
 838.93;  -73.120;  -76.840;    0.000; 3.71999
 839.18;  -43.360;  -68.870;    0.000;25.51000
 839.43;  -46.680;  -68.920;    0.000;22.24000
 839.69;  -74.740;  -75.200;    0.000; 0.46000
 839.94;  -76.820;  -75.060;    0.000;-1.76000
 840.19;  -53.380;  -64.900;    0.000;11.52000
 840.44;  -60.280;  -74.590;    0.000;14.31000
 840.69;  -57.080;  -67.680;    0.000;10.60000
 840.94;  -55.760;  -78.800;    0.000;23.04000
 841.19;  -45.400;  -66.410;    0.000;21.01000
 841.44;  -61.600;  -70.390;    0.000; 8.79000
 841.69;  -46.760;  -69.710;    0.000;22.95000
 841.94;  -74.580;  -72.650;    0.000;-1.93000
 842.19;  -65.620;  -74.280;    0.000; 8.66000
 842.44;  -67.900;  -72.650;    0.000; 4.75000
 842.69;  -72.540;  -68.330;    0.000;-4.21000
 842.94;  -54.120;  -71.610;    0.000;17.49000
 843.19;  -69.500;  -78.190;    0.000; 8.69000
 843.44;  -51.860;  -74.710;    0.000;22.85000
 843.69;  -66.280;  -76.520;    0.000;10.24000
 843.94;   15.980;  -44.550;    0.000;60.53000
 844.19;  -63.060;  -77.910;    0.000;14.85000
 844.44;  -51.600;  -71.510;    0.000;19.91000
 844.69;  -65.380;  -73.310;    0.000; 7.93000
 844.95;  -57.460;  -74.630;    0.000;17.17000
 845.20;  -71.960;  -82.130;    0.000;10.17000
 845.45;  -50.240;  -68.000;    0.000;17.76000
 845.70;  -63.440;  -72.870;    0.000; 9.43000
 845.95;  -69.480;  -74.560;    0.000; 5.07999
 846.20;  -58.760;  -71.730;    0.000;12.97001
 846.45;  -68.200;  -77.390;    0.000; 9.19000
 846.70;  -63.740;  -65.790;    0.000; 2.05000
 846.95;  -63.660;  -75.980;    0.000;12.32000
 847.20;  -60.260;  -73.000;    0.000;12.74000
 847.44;  -35.400;  -61.130;    0.000;25.73000
 847.69;  -71.800;  -79.180;    0.000; 7.38000
 847.94;  -61.560;  -71.950;    0.000;10.39000
 848.19;  -60.180;  -73.590;    0.000;13.41000
 848.44;  -58.640;  -70.960;    0.000;12.32000
 848.69;  -64.180;  -73.670;    0.000; 9.49000
 848.94;  -57.940;  -69.750;    0.000;11.81000
 849.19;  -69.340;  -80.480;    0.000;11.14001
 849.44;  -58.860;  -73.190;    0.000;14.33000
 849.69;  -60.700;  -78.510;    0.000;17.81000
 849.94;  -73.300;  -72.940;    0.000;-0.36000
 850.19;  -46.940;  -63.930;    0.000;16.99000
 850.44;  -53.860;  -76.610;    0.000;22.75000
 850.69;  -74.540;  -69.690;    0.000;-4.85000
 850.94;  -78.320;  -77.600;    0.000;-0.72000
 851.19;  -72.680;  -72.230;    0.000;-0.45000
 851.44;  -61.340;  -76.080;    0.000;14.74000
 851.69;  -78.060;  -76.040;    0.000;-2.02000
 851.94;  -67.780;  -79.190;    0.000;11.41000
 852.19;  -70.760;  -76.300;    0.000; 5.54000
 852.44;  -67.200;  -74.760;    0.000; 7.56001
 852.68;  -77.080;  -75.620;    0.000;-1.46000
 852.93;  -59.760;  -70.590;    0.000;10.83000
 853.18;  -73.320;  -77.250;    0.000; 3.93000
 853.43;  -72.600;  -76.120;    0.000; 3.52000
 853.68;  -67.720;  -77.810;    0.000;10.09000
 853.93;  -56.740;  -67.550;    0.000;10.81000
 854.18;  -63.160;  -66.630;    0.000; 3.47000
 854.43;  -64.380;  -77.970;    0.000;13.59000
 854.68;  -64.160;  -75.490;    0.000;11.32999
 854.93;  -53.260;  -66.450;    0.000;13.19000
 855.18;  -63.540;  -74.650;    0.000;11.11000
 855.42;  -56.580;  -72.230;    0.000;15.65000
 855.67;  -61.300;  -71.310;    0.000;10.01000
 855.92;  -64.060;  -74.510;    0.000;10.45000
 856.17;  -62.420;  -67.440;    0.000; 5.02000
 856.42;  -58.360;  -76.160;    0.000;17.80000
 856.67;  -63.360;  -77.970;    0.000;14.61000
 856.92;  -64.580;  -79.620;    0.000;15.04000
 857.17;  -85.320;  -77.870;    0.000;-7.45000
 857.41;  -64.880;  -71.030;    0.000; 6.15000
 857.66;  -61.840;  -73.290;    0.000;11.45000
 857.91;  -62.040;  -73.290;    0.000;11.25000
 858.16;  -67.200;  -82.520;    0.000;15.32000
 858.41;  -68.540;  -72.320;    0.000; 3.78000
 858.66;  -69.300;  -69.160;    0.000;-0.14000
 858.91;  -56.820;  -77.930;    0.000;21.11000
 859.15;  -55.060;  -76.870;    0.000;21.81000
 859.40;  -37.000;  -68.270;    0.000;31.27000
 859.65;  -68.060;  -84.460;    0.000;16.40000
 859.90;  -72.280;  -79.390;    0.000; 7.11000
 860.15;  -72.880;  -69.890;    0.000;-2.99000
 860.40;  -64.960;  -69.890;    0.000; 4.93000
 860.64;  -46.900;  -70.370;    0.000;23.47000
 860.89;  -82.080;  -74.750;    0.000;-7.33000
 861.14;  -67.780;  -70.090;    0.000; 2.31000
 861.39;  -58.500;  -69.870;    0.000;11.37000
 861.64;  -67.540;  -75.520;    0.000; 7.98000
 861.88;  -54.960;  -72.380;    0.000;17.42000
 862.13;  -60.800;  -76.230;    0.000;15.43000
 862.38;  -72.260;  -72.450;    0.000; 0.18999
 862.63;  -68.940;  -74.260;    0.000; 5.32000
 862.88;  -48.060;  -69.530;    0.000;21.47000
 863.12;  -55.320;  -67.960;    0.000;12.64000
 863.37;  -71.900;  -71.990;    0.000; 0.09000
 863.62;  -72.620;  -77.420;    0.000; 4.80000
 863.87;  -80.760;  -78.180;    0.000;-2.58000
 864.12;  -62.400;  -73.600;    0.000;11.20000
 864.36;  -68.400;  -69.580;    0.000; 1.18000
 864.61;  -72.380;  -73.260;    0.000; 0.88000
 864.86;  -75.680;  -78.780;    0.000; 3.10000
 865.11;  -58.260;  -68.440;    0.000;10.18000
 865.35;  -60.000;  -68.810;    0.000; 8.81000
 865.60;  -60.740;  -71.930;    0.000;11.19000
 865.85;  -50.160;  -72.600;    0.000;22.44000
 866.10;  -77.680;  -75.090;    0.000;-2.59000
 866.34;  -65.020;  -74.150;    0.000; 9.13000
 866.59;  -47.960;  -67.290;    0.000;19.33000
 866.84;  -66.380;  -74.630;    0.000; 8.25000
 867.09;  -66.360;  -80.380;    0.000;14.02000
 867.33;  -71.680;  -74.040;    0.000; 2.36000
 867.58;  -74.600;  -71.470;    0.000;-3.13000
 867.83;  -75.540;  -74.280;    0.000;-1.26000
 868.08;  -62.760;  -76.090;    0.000;13.33000
 868.32;  -60.880;  -68.010;    0.000; 7.13000
 868.57;  -70.960;  -81.500;    0.000;10.54000
 868.82;  -60.020;  -72.920;    0.000;12.90000
 869.07;  -78.620;  -81.160;    0.000; 2.54000
 869.31;  -61.060;  -69.490;    0.000; 8.43000
 869.56;  -73.320;  -84.440;    0.000;11.12000
 869.81;  -61.800;  -83.050;    0.000;21.25000
 870.05;  -71.360;  -79.990;    0.000; 8.63000
 870.30;  -56.380;  -76.070;    0.000;19.69000
 870.55;  -55.760;  -69.170;    0.000;13.41000
 870.80;  -60.240;  -74.860;    0.000;14.62000
 871.04;  -61.400;  -69.280;    0.000; 7.88000
 871.29;  -58.960;  -73.970;    0.000;15.01000
 871.54;  -64.180;  -72.650;    0.000; 8.47000
 871.78;  -72.620;  -75.650;    0.000; 3.03000
 872.03;  -62.940;  -76.460;    0.000;13.52000
 872.28;  -70.600;  -75.610;    0.000; 5.01000
 872.52;  -63.880;  -63.940;    0.000; 0.06000
 872.77;  -63.300;  -68.280;    0.000; 4.98000
 873.02;  -76.360;  -78.210;    0.000; 1.85000
 873.26;  -65.600;  -75.910;    0.000;10.31001
 873.51;  -50.060;  -67.060;    0.000;17.00000
 873.76;  -59.140;  -69.910;    0.000;10.77000
 874.00;  -39.960;  -67.690;    0.000;27.73000
 874.25;  -77.360;  -75.800;    0.000;-1.56000
 874.50;  -69.520;  -80.100;    0.000;10.58000
 874.74;  -71.400;  -73.380;    0.000; 1.98000
 874.99;  -62.320;  -77.690;    0.000;15.37000
 875.24;  -40.440;  -71.860;    0.000;31.42000
 875.48;  -67.600;  -75.510;    0.000; 7.91000
 875.73;  -62.120;  -71.020;    0.000; 8.90000
 875.98;  -66.940;  -72.290;    0.000; 5.35000
 876.22;  -59.860;  -74.020;    0.000;14.16000
 876.47;  -63.080;  -73.180;    0.000;10.10000
 876.71;  -52.140;  -66.650;    0.000;14.51000
 876.96;  -49.000;  -68.040;    0.000;19.04000
 877.21;  -74.640;  -80.560;    0.000; 5.92000
 877.45;  -77.720;  -79.740;    0.000; 2.02000
 877.70;  -55.800;  -68.150;    0.000;12.35000
 877.95;  -54.720;  -71.420;    0.000;16.70000
 878.19;  -39.980;  -66.290;    0.000;26.31000
 878.44;  -49.380;  -73.630;    0.000;24.25000
 878.68;  -28.300;  -58.820;    0.000;30.52000
 878.93;  -47.060;  -67.350;    0.000;20.29000
 879.18;  -53.680;  -71.350;    0.000;17.67000
 879.42;  -44.140;  -70.170;    0.000;26.03000
 879.67;  -69.920;  -73.850;    0.000; 3.93000
 879.91;  -38.800;  -67.960;    0.000;29.16000
 880.16;  -44.940;  -78.060;    0.000;33.12000
 880.40;  -59.260;  -65.360;    0.000; 6.10000
 880.65;  -58.300;  -71.790;    0.000;13.49000
 880.90;  -46.980;  -69.720;    0.000;22.74000
 881.14;  -47.140;  -65.060;    0.000;17.92000
 881.39;  -63.800;  -72.620;    0.000; 8.82000
 881.63;  -55.640;  -68.980;    0.000;13.34000
 881.88;  -56.380;  -70.790;    0.000;14.41000
 882.12;  -60.420;  -76.190;    0.000;15.77000
 882.37;  -52.880;  -72.930;    0.000;20.05000
 882.62;  -59.860;  -70.810;    0.000;10.95000
 882.86;  -62.080;  -75.020;    0.000;12.93999
 883.11;  -60.820;  -74.980;    0.000;14.16000
 883.35;  -60.580;  -71.230;    0.000;10.65000
 883.60;  -34.400;  -67.200;    0.000;32.80000
 883.84;  -52.440;  -73.170;    0.000;20.73000
 884.09;  -56.400;  -72.690;    0.000;16.29000
 884.33;  -61.420;  -71.050;    0.000; 9.63000
 884.58;  -51.640;  -70.670;    0.000;19.03000
 884.82;  -58.500;  -73.840;    0.000;15.34000
 885.07;  -57.120;  -75.950;    0.000;18.83000
 885.31;  -56.260;  -74.400;    0.000;18.14000
 885.56;  -36.620;  -65.280;    0.000;28.66000
 885.80;  -61.040;  -79.420;    0.000;18.38000
 886.05;  -61.120;  -70.300;    0.000; 9.18000
 886.29;  -36.260;  -61.930;    0.000;25.67000
 886.54;  -54.020;  -68.310;    0.000;14.29000
 886.78;  -43.880;  -71.060;    0.000;27.18000
 887.03;  -52.520;  -67.810;    0.000;15.29000
 887.27;  -30.100;  -61.920;    0.000;31.82000
 887.52;  -59.440;  -70.160;    0.000;10.72001
 887.76;  -49.580;  -70.980;    0.000;21.40000
 888.01;  -46.340;  -70.270;    0.000;23.93000
 888.25;  -54.320;  -74.180;    0.000;19.86000
 888.50;  -45.440;  -70.460;    0.000;25.02000
 888.74;  -46.820;  -65.070;    0.000;18.25000
 888.99;  -46.100;  -75.410;    0.000;29.31001
 889.23;  -36.880;  -73.760;    0.000;36.88000
 889.48;  -57.960;  -67.050;    0.000; 9.09000
 889.72;  -36.120;  -61.140;    0.000;25.02000
 889.97;  -35.500;  -67.890;    0.000;32.39000
 890.21;  -47.600;  -71.660;    0.000;24.06001
 890.46;  -31.360;  -67.310;    0.000;35.95000
 890.70;  -53.680;  -66.540;    0.000;12.86000
 890.94;  -43.380;  -66.690;    0.000;23.31000
 891.19;  -48.580;  -67.720;    0.000;19.14000
 891.43;  -36.040;  -60.230;    0.000;24.19000
 891.68;  -25.100;  -60.880;    0.000;35.78000
 891.92;  -33.640;  -66.740;    0.000;33.10000
 892.17;  -41.220;  -63.670;    0.000;22.45000
 892.41;  -37.000;  -64.550;    0.000;27.55000
 892.66;  -47.700;  -72.780;    0.000;25.08000
 892.90;    0.380;  -53.850;    0.000;54.23000
 893.14;  -42.080;  -67.700;    0.000;25.62000
 893.39;  -27.780;  -61.520;    0.000;33.74000
 893.63;  -42.340;  -66.090;    0.000;23.75000
 893.88;  -50.640;  -64.750;    0.000;14.11000
 894.12;  -35.620;  -60.690;    0.000;25.07000
 894.36;  -28.280;  -52.460;    0.000;24.18000
 894.61;  -26.420;  -59.430;    0.000;33.01000
 894.85;  -21.520;  -59.970;    0.000;38.45000
 895.10;  -25.720;  -64.360;    0.000;38.64000
 895.34;  -42.000;  -59.380;    0.000;17.38000
 895.58;  -29.260;  -69.260;    0.000;40.00000
 895.83;  -17.780;  -62.800;    0.000;45.02000
 896.07;  -29.480;  -66.320;    0.000;36.84000
 896.32;  -21.720;  -58.720;    0.000;37.00000
 896.56;  -29.000;  -59.080;    0.000;30.08000
 896.80;  -28.100;  -64.120;    0.000;36.02000
 897.05;  -40.860;  -66.340;    0.000;25.48000
 897.29;  -21.280;  -51.230;    0.000;29.95000
 897.53;  -37.360;  -64.490;    0.000;27.13000
 897.78;  -32.160;  -59.400;    0.000;27.24000
 898.02;  -16.120;  -53.570;    0.000;37.45000
 898.26;  -37.740;  -63.930;    0.000;26.19000
 898.51;  -24.180;  -52.040;    0.000;27.86000
 898.75;  -23.940;  -56.010;    0.000;32.07000
 898.99;   -8.980;  -55.790;    0.000;46.81000
 899.24;  -17.940;  -49.180;    0.000;31.24000
 899.48;   -7.540;  -48.260;    0.000;40.72000
 899.73;  -15.480;  -54.040;    0.000;38.56000
 899.97;   -0.280;  -42.750;    0.000;42.47000
 900.21;    6.360;  -44.210;    0.000;50.57000
 900.46;   10.020;  -41.230;    0.000;51.25000
 900.70;    6.960;  -40.060;    0.000;47.02000
 900.94;    7.800;  -49.340;    0.000;57.14000
 901.18;   21.880;  -43.690;    0.000;65.57000
 901.43;   14.980;  -40.290;    0.000;55.27000
 901.67;   25.240;  -38.410;    0.000;63.65000
 901.91;   36.800;  -29.050;    0.000;65.85000
 902.16;   21.520;  -39.250;    0.000;60.77000
 902.40;   48.120;  -35.010;    0.000;83.13000
 902.64;   42.140;  -28.700;    0.000;70.84000
 902.89;   40.120;  -28.120;    0.000;68.24000
 903.13;   57.520;  -20.830;    0.000;78.35000
 903.37;   68.660;  -22.230;    0.000;90.89000
 903.61;   74.440;   -7.810;    0.000;82.25000
 903.86;   78.880;   -9.670;    0.000;88.55000
 904.10;  105.240;   -7.290;    0.000;112.53000
 904.34;  109.380;    5.810;    0.000;103.57000
 904.59;  129.460;   17.270;    0.000;112.19001
 904.83;  133.700;   23.940;    0.000;109.76000
 905.07;  184.720;   39.780;    0.000;144.94000
 905.31;  193.760;   43.380;    0.000;150.37999
 905.56;  218.120;   56.080;    0.000;162.03999
 905.80;  264.280;   75.520;    0.000;188.76000

