p4
Integration time [ms]:  10.000
Averaging Nr. [scans]: 100
Smoothing Nr. [pixels]: 0
Data measured with spectrometer [name]: 1307078U2
Wave   ;Sample   ;Dark     ;Reference;Scope Corrected for Dark
[nm]   ;[counts] ;[counts] ;[counts] 

 351.07;   23.230;    0.420;    0.000;22.81000
 351.37;   14.890;    2.109;    0.000;12.78125
 351.66;   20.460;    2.484;    0.000;17.97625
 351.95;   17.750;    0.324;    0.000;17.42625
 352.24;   12.750;    1.910;    0.000;10.84000
 352.54;   11.420;    1.401;    0.000;10.01875
 352.83;    8.300;   -0.629;    0.000; 8.92875
 353.12;   25.180;    1.364;    0.000;23.81625
 353.42;   10.700;   -0.535;    0.000;11.23500
 353.71;   15.710;    2.263;    0.000;13.44750
 354.00;   20.620;    3.929;    0.000;16.69125
 354.30;   21.110;    1.025;    0.000;20.08500
 354.59;   18.000;   -0.266;    0.000;18.26625
 354.88;   15.900;    5.190;    0.000;10.71000
 355.17;   11.010;   -0.014;    0.000;11.02375
 355.47;   13.620;    2.134;    0.000;11.48625
 355.76;   14.720;    0.416;    0.000;14.30375
 356.05;   15.830;    1.192;    0.000;14.63750
 356.35;   23.550;    1.587;    0.000;21.96250
 356.64;   18.750;    1.753;    0.000;16.99750
 356.93;    7.290;    1.768;    0.000; 5.52250
 357.22;   33.060;    1.366;    0.000;31.69375
 357.52;   11.310;    3.320;    0.000; 7.99000
 357.81;   18.130;    1.643;    0.000;16.48750
 358.10;   20.270;   -0.600;    0.000;20.87000
 358.39;   18.310;    1.461;    0.000;16.84875
 358.69;   13.990;    1.997;    0.000;11.99250
 358.98;   10.610;    0.317;    0.000;10.29250
 359.27;   15.520;    1.446;    0.000;14.07375
 359.57;   20.560;    2.324;    0.000;18.23625
 359.86;   11.350;   -0.700;    0.000;12.05000
 360.15;   24.680;    1.474;    0.000;23.20625
 360.44;    8.370;   -0.946;    0.000; 9.31625
 360.74;   23.280;    1.480;    0.000;21.80000
 361.03;   17.460;   -0.345;    0.000;17.80500
 361.32;   10.170;    2.919;    0.000; 7.25125
 361.61;   13.190;    2.338;    0.000;10.85250
 361.91;   20.670;    2.645;    0.000;18.02500
 362.20;   11.130;    1.590;    0.000; 9.54000
 362.49;   22.530;    1.854;    0.000;20.67625
 362.78;   16.680;    0.435;    0.000;16.24500
 363.08;   14.020;    1.149;    0.000;12.87125
 363.37;   19.590;    0.004;    0.000;19.58625
 363.66;   24.420;    3.439;    0.000;20.98125
 363.95;    6.890;    2.359;    0.000; 4.53125
 364.24;   16.070;    2.213;    0.000;13.85750
 364.54;   12.880;   -0.068;    0.000;12.94750
 364.83;   10.390;    2.066;    0.000; 8.32375
 365.12;   15.730;   -0.624;    0.000;16.35375
 365.41;   19.890;    3.152;    0.000;16.73750
 365.71;   12.560;    0.161;    0.000;12.39875
 366.00;    8.160;    1.484;    0.000; 6.67625
 366.29;    0.710;    0.876;    0.000;-0.16625
 366.58;    6.910;    2.200;    0.000; 4.71000
 366.87;   26.360;    3.334;    0.000;23.02625
 367.17;   26.260;    4.057;    0.000;22.20250
 367.46;   11.150;    1.112;    0.000;10.03750
 367.75;   13.790;    0.207;    0.000;13.58250
 368.04;   14.320;    2.296;    0.000;12.02375
 368.34;   10.940;    3.155;    0.000; 7.78500
 368.63;    9.390;    1.982;    0.000; 7.40750
 368.92;   21.090;    4.579;    0.000;16.51125
 369.21;   20.040;    0.301;    0.000;19.73875
 369.50;   28.720;    4.056;    0.000;24.66375
 369.80;   11.230;    3.011;    0.000; 8.21875
 370.09;   18.210;    2.666;    0.000;15.54375
 370.38;   10.480;    1.489;    0.000; 8.99125
 370.67;    8.730;    2.949;    0.000; 5.78125
 370.96;   13.250;    1.915;    0.000;11.33500
 371.26;   14.370;    3.515;    0.000;10.85500
 371.55;    8.970;   -0.750;    0.000; 9.72000
 371.84;    8.460;    1.237;    0.000; 7.22250
 372.13;    6.440;    0.486;    0.000; 5.95375
 372.42;   17.880;    4.290;    0.000;13.59000
 372.71;   14.710;    2.305;    0.000;12.40500
 373.01;   20.240;    2.734;    0.000;17.50625
 373.30;   21.030;    0.909;    0.000;20.12125
 373.59;   21.360;    4.401;    0.000;16.95875
 373.88;    8.750;    0.729;    0.000; 8.02125
 374.17;   21.120;    5.426;    0.000;15.69375
 374.46;   16.830;    2.037;    0.000;14.79250
 374.76;   17.440;    3.602;    0.000;13.83750
 375.05;   27.150;    4.131;    0.000;23.01875
 375.34;   14.660;    4.778;    0.000; 9.88250
 375.63;   12.590;   -1.367;    0.000;13.95750
 375.92;   16.960;    1.354;    0.000;15.60625
 376.21;    9.670;    0.181;    0.000; 9.48875
 376.51;    3.320;    0.475;    0.000; 2.84500
 376.80;   14.950;    3.346;    0.000;11.60375
 377.09;   10.170;    1.947;    0.000; 8.22250
 377.38;   13.290;    1.015;    0.000;12.27500
 377.67;   22.920;    2.574;    0.000;20.34625
 377.96;    7.810;    0.863;    0.000; 6.94750
 378.25;   25.960;    3.033;    0.000;22.92750
 378.55;    7.520;    1.080;    0.000; 6.44000
 378.84;   12.300;    4.383;    0.000; 7.91750
 379.13;   21.080;    1.696;    0.000;19.38375
 379.42;   16.610;    4.142;    0.000;12.46750
 379.71;   19.160;    1.695;    0.000;17.46500
 380.00;   19.660;    4.409;    0.000;15.25125
 380.29;   11.020;    0.924;    0.000;10.09625
 380.59;    7.140;    2.340;    0.000; 4.80000
 380.88;   11.700;    1.253;    0.000;10.44750
 381.17;    5.900;    2.536;    0.000; 3.36375
 381.46;   18.760;    2.259;    0.000;16.50125
 381.75;   22.980;    3.750;    0.000;19.23000
 382.04;   12.520;    3.304;    0.000; 9.21625
 382.33;    2.080;    1.438;    0.000; 0.64250
 382.62;    7.400;    2.980;    0.000; 4.42000
 382.91;   21.280;    3.025;    0.000;18.25500
 383.21;   16.180;   -1.186;    0.000;17.36625
 383.50;    8.770;    1.279;    0.000; 7.49125
 383.79;   14.180;    3.581;    0.000;10.59875
 384.08;   13.320;    1.620;    0.000;11.70000
 384.37;   12.170;    2.861;    0.000; 9.30875
 384.66;   15.580;    0.262;    0.000;15.31750
 384.95;    5.130;    1.033;    0.000; 4.09750
 385.24;   14.900;    0.772;    0.000;14.12750
 385.53;    3.590;   -1.732;    0.000; 5.32250
 385.83;    4.740;    0.712;    0.000; 4.02750
 386.12;   16.410;    1.009;    0.000;15.40125
 386.41;   14.770;    2.080;    0.000;12.69000
 386.70;    2.460;    0.155;    0.000; 2.30500
 386.99;   12.230;    0.820;    0.000;11.41000
 387.28;   24.730;    3.057;    0.000;21.67250
 387.57;   18.630;    2.020;    0.000;16.61000
 387.86;   10.590;    1.317;    0.000; 9.27250
 388.15;    9.030;    2.237;    0.000; 6.79250
 388.44;    8.770;    1.854;    0.000; 6.91625
 388.73;   17.090;    1.639;    0.000;15.45125
 389.02;   17.770;    1.174;    0.000;16.59625
 389.31;    6.250;    3.336;    0.000; 2.91375
 389.61;   15.190;    1.742;    0.000;13.44750
 389.90;   17.180;    2.181;    0.000;14.99875
 390.19;   18.950;    0.252;    0.000;18.69750
 390.48;   16.190;    3.714;    0.000;12.47625
 390.77;    7.210;    2.156;    0.000; 5.05375
 391.06;    2.330;    0.019;    0.000; 2.31125
 391.35;   11.520;    0.766;    0.000;10.75375
 391.64;   17.960;    4.639;    0.000;13.32125
 391.93;    3.860;    0.449;    0.000; 3.41125
 392.22;   14.660;    2.592;    0.000;12.06750
 392.51;   20.320;    1.247;    0.000;19.07250
 392.80;   17.010;    2.735;    0.000;14.27500
 393.09;    8.810;    1.086;    0.000; 7.72375
 393.38;   20.450;    0.229;    0.000;20.22125
 393.67;   18.290;    1.561;    0.000;16.72875
 393.96;   15.840;    1.930;    0.000;13.91000
 394.25;   11.970;    0.956;    0.000;11.01375
 394.54;   12.750;    1.622;    0.000;11.12750
 394.83;   12.530;    0.440;    0.000;12.09000
 395.13;   16.390;    2.201;    0.000;14.18875
 395.42;   17.550;    2.457;    0.000;15.09250
 395.71;   13.150;    4.305;    0.000; 8.84500
 396.00;   19.410;    1.222;    0.000;18.18750
 396.29;   26.020;    1.178;    0.000;24.84250
 396.58;    4.350;    0.967;    0.000; 3.38250
 396.87;   16.150;    1.986;    0.000;14.16375
 397.16;    3.580;    1.911;    0.000; 1.66875
 397.45;   16.150;    3.014;    0.000;13.13625
 397.74;   10.680;    2.689;    0.000; 7.99125
 398.03;   18.820;    2.170;    0.000;16.65000
 398.32;    6.520;    1.844;    0.000; 4.67625
 398.61;   13.430;    3.154;    0.000;10.27625
 398.90;   13.910;    1.420;    0.000;12.49000
 399.19;   20.800;    3.316;    0.000;17.48375
 399.48;    6.260;    0.412;    0.000; 5.84750
 399.77;   12.740;    1.786;    0.000;10.95375
 400.06;   25.990;    2.120;    0.000;23.87000
 400.35;   20.780;    3.961;    0.000;16.81875
 400.64;    9.950;    2.411;    0.000; 7.53875
 400.93;   22.570;    3.304;    0.000;19.26625
 401.22;   11.180;    1.479;    0.000; 9.70125
 401.51;   16.230;    3.400;    0.000;12.83000
 401.80;   11.790;    1.049;    0.000;10.74125
 402.09;   11.510;    1.710;    0.000; 9.80000
 402.38;    7.190;    1.655;    0.000; 5.53500
 402.67;    8.720;    2.055;    0.000; 6.66500
 402.96;    9.670;    1.381;    0.000; 8.28875
 403.25;   26.530;    4.099;    0.000;22.43125
 403.54;   12.570;    2.920;    0.000; 9.65000
 403.83;   19.510;    1.701;    0.000;17.80875
 404.12;   13.060;    4.244;    0.000; 8.81625
 404.41;   18.690;    7.259;    0.000;11.43125
 404.70;    9.280;    1.739;    0.000; 7.54125
 404.98;   20.580;    3.635;    0.000;16.94500
 405.27;   15.840;    2.116;    0.000;13.72375
 405.56;   32.090;    5.247;    0.000;26.84250
 405.85;    2.460;    1.905;    0.000; 0.55500
 406.14;   12.240;    2.216;    0.000;10.02375
 406.43;    8.300;    0.695;    0.000; 7.60500
 406.72;   12.310;    1.689;    0.000;10.62125
 407.01;   14.060;    2.034;    0.000;12.02625
 407.30;   11.070;    2.056;    0.000; 9.01375
 407.59;   13.930;   -0.241;    0.000;14.17125
 407.88;    9.610;    1.026;    0.000; 8.58375
 408.17;   14.890;    1.819;    0.000;13.07125
 408.46;   20.940;    2.744;    0.000;18.19625
 408.75;   21.330;    2.339;    0.000;18.99125
 409.04;    6.220;    1.809;    0.000; 4.41125
 409.33;    6.350;    1.810;    0.000; 4.54000
 409.62;   18.790;    3.089;    0.000;15.70125
 409.91;    9.380;    0.704;    0.000; 8.67625
 410.20;   17.250;    1.890;    0.000;15.36000
 410.48;    9.920;    1.309;    0.000; 8.61125
 410.77;    3.650;    2.919;    0.000; 0.73125
 411.06;   19.360;   -0.224;    0.000;19.58375
 411.35;   26.190;    2.226;    0.000;23.96375
 411.64;   12.020;    2.741;    0.000; 9.27875
 411.93;   15.400;   -0.534;    0.000;15.93375
 412.22;   10.910;    0.561;    0.000;10.34875
 412.51;   16.890;    2.220;    0.000;14.67000
 412.80;   18.780;    1.974;    0.000;16.80625
 413.09;   12.900;    0.749;    0.000;12.15125
 413.38;    9.450;    3.604;    0.000; 5.84625
 413.67;    9.960;    0.146;    0.000; 9.81375
 413.96;   -3.690;   -0.986;    0.000;-2.70375
 414.24;   21.100;    2.872;    0.000;18.22750
 414.53;   14.070;    3.146;    0.000;10.92375
 414.82;   16.840;    2.290;    0.000;14.55000
 415.11;   28.450;    2.401;    0.000;26.04875
 415.40;   19.980;    0.995;    0.000;18.98500
 415.69;   14.420;    2.255;    0.000;12.16500
 415.98;    2.090;    3.622;    0.000;-1.53250
 416.27;    8.430;    2.026;    0.000; 6.40375
 416.56;   16.930;    2.160;    0.000;14.77000
 416.84;   15.640;    1.849;    0.000;13.79125
 417.13;    6.500;    1.085;    0.000; 5.41500
 417.42;   24.160;    2.255;    0.000;21.90500
 417.71;   21.660;    0.942;    0.000;20.71750
 418.00;    1.460;   -0.894;    0.000; 2.35375
 418.29;   19.710;    2.760;    0.000;16.95000
 418.58;    7.670;    1.184;    0.000; 6.48625
 418.87;   14.240;    1.616;    0.000;12.62375
 419.15;   12.470;    1.469;    0.000;11.00125
 419.44;   19.880;    1.505;    0.000;18.37500
 419.73;   15.990;   -0.203;    0.000;16.19250
 420.02;   17.210;    3.578;    0.000;13.63250
 420.31;    6.320;    0.189;    0.000; 6.13125
 420.60;   21.320;    0.344;    0.000;20.97625
 420.89;    9.920;    1.889;    0.000; 8.03125
 421.18;   19.180;    0.249;    0.000;18.93125
 421.46;   11.640;    1.220;    0.000;10.42000
 421.75;   13.900;    1.529;    0.000;12.37125
 422.04;    7.810;    1.446;    0.000; 6.36375
 422.33;   25.350;    1.941;    0.000;23.40875
 422.62;   20.360;    4.503;    0.000;15.85750
 422.91;   16.960;    4.043;    0.000;12.91750
 423.19;   15.660;    3.485;    0.000;12.17500
 423.48;   23.060;    1.274;    0.000;21.78625
 423.77;    3.380;    2.696;    0.000; 0.68375
 424.06;   15.450;    3.234;    0.000;12.21625
 424.35;    8.990;    0.522;    0.000; 8.46750
 424.64;   22.560;    3.535;    0.000;19.02500
 424.93;   10.880;   -0.317;    0.000;11.19750
 425.21;   15.230;    2.582;    0.000;12.64750
 425.50;   17.170;    3.263;    0.000;13.90750
 425.79;   15.280;    2.591;    0.000;12.68875
 426.08;    6.060;    1.785;    0.000; 4.27500
 426.37;   12.230;    1.579;    0.000;10.65125
 426.65;    4.030;    2.955;    0.000; 1.07500
 426.94;   13.420;    2.134;    0.000;11.28625
 427.23;   10.840;    2.475;    0.000; 8.36500
 427.52;   23.510;    0.715;    0.000;22.79500
 427.81;    9.230;   -0.177;    0.000; 9.40750
 428.10;   37.270;    2.043;    0.000;35.22750
 428.38;    8.380;    0.154;    0.000; 8.22625
 428.67;   23.240;    2.436;    0.000;20.80375
 428.96;    5.490;    1.938;    0.000; 3.55250
 429.25;   14.400;    2.326;    0.000;12.07375
 429.54;   11.820;    2.418;    0.000; 9.40250
 429.82;   21.990;    2.749;    0.000;19.24125
 430.11;   10.550;    0.755;    0.000; 9.79500
 430.40;   20.000;    2.376;    0.000;17.62375
 430.69;   15.960;    2.435;    0.000;13.52500
 430.98;   10.830;    3.626;    0.000; 7.20375
 431.26;   16.520;    4.383;    0.000;12.13750
 431.55;   16.830;    3.697;    0.000;13.13250
 431.84;   10.780;   -0.666;    0.000;11.44625
 432.13;   10.350;    0.749;    0.000; 9.60125
 432.41;    7.280;    2.846;    0.000; 4.43375
 432.70;   22.370;    2.501;    0.000;19.86875
 432.99;   14.240;    2.007;    0.000;12.23250
 433.28;   18.350;    4.089;    0.000;14.26125
 433.57;   23.580;    0.668;    0.000;22.91250
 433.85;   15.410;    0.570;    0.000;14.84000
 434.14;   12.640;    1.510;    0.000;11.13000
 434.43;   21.280;    4.943;    0.000;16.33750
 434.72;   17.300;    1.523;    0.000;15.77750
 435.00;   17.940;    4.381;    0.000;13.55875
 435.29;   20.810;    3.159;    0.000;17.65125
 435.58;   17.530;    3.307;    0.000;14.22250
 435.87;   14.530;    0.380;    0.000;14.15000
 436.15;   12.470;    2.906;    0.000; 9.56375
 436.44;   15.520;    2.568;    0.000;12.95250
 436.73;   19.610;    4.294;    0.000;15.31625
 437.02;    7.300;    2.537;    0.000; 4.76250
 437.30;   21.670;    2.334;    0.000;19.33625
 437.59;    8.110;    2.810;    0.000; 5.30000
 437.88;   14.960;    5.700;    0.000; 9.26000
 438.17;    3.460;   -0.534;    0.000; 3.99375
 438.45;   13.560;    3.159;    0.000;10.40125
 438.74;   19.120;    0.505;    0.000;18.61500
 439.03;   27.320;    2.618;    0.000;24.70250
 439.32;    9.140;    3.250;    0.000; 5.89000
 439.60;   17.840;    0.890;    0.000;16.95000
 439.89;   14.900;    2.642;    0.000;12.25750
 440.18;   13.420;    2.490;    0.000;10.93000
 440.46;    7.620;    0.183;    0.000; 7.43750
 440.75;   22.090;    2.443;    0.000;19.64750
 441.04;    5.420;    0.079;    0.000; 5.34125
 441.33;   21.910;    3.149;    0.000;18.76125
 441.61;    4.620;    2.630;    0.000; 1.99000
 441.90;   27.500;    3.733;    0.000;23.76750
 442.19;    3.380;   -0.200;    0.000; 3.58000
 442.47;   24.490;    3.862;    0.000;20.62750
 442.76;    6.460;    2.916;    0.000; 3.54375
 443.05;   17.130;    2.666;    0.000;14.46375
 443.34;   19.620;    2.057;    0.000;17.56250
 443.62;   18.040;    1.426;    0.000;16.61375
 443.91;   10.370;    0.027;    0.000;10.34250
 444.20;   36.990;    6.335;    0.000;30.65500
 444.48;   10.080;    1.109;    0.000; 8.97125
 444.77;   36.080;    4.639;    0.000;31.44125
 445.06;    7.510;    1.806;    0.000; 5.70375
 445.34;   15.530;    0.406;    0.000;15.12375
 445.63;   18.570;    0.630;    0.000;17.94000
 445.92;   36.990;    1.935;    0.000;35.05500
 446.21;   25.650;    3.364;    0.000;22.28625
 446.49;   23.610;    2.110;    0.000;21.50000
 446.78;   24.050;    2.021;    0.000;22.02875
 447.07;   12.200;    0.465;    0.000;11.73500
 447.35;    9.130;    0.983;    0.000; 8.14750
 447.64;   16.540;    3.451;    0.000;13.08875
 447.93;    7.520;    1.934;    0.000; 5.58625
 448.21;   13.230;    1.536;    0.000;11.69375
 448.50;   17.840;    1.910;    0.000;15.93000
 448.79;    7.700;    1.992;    0.000; 5.70750
 449.07;   20.750;    3.325;    0.000;17.42500
 449.36;    3.820;    1.426;    0.000; 2.39375
 449.65;   12.460;    0.134;    0.000;12.32625
 449.93;   13.330;    3.255;    0.000;10.07500
 450.22;   12.590;    1.070;    0.000;11.52000
 450.51;    7.740;    3.435;    0.000; 4.30500
 450.79;    8.710;    2.901;    0.000; 5.80875
 451.08;   14.320;    2.376;    0.000;11.94375
 451.36;   16.610;   -0.282;    0.000;16.89250
 451.65;   23.900;    4.582;    0.000;19.31750
 451.94;    6.400;    2.245;    0.000; 4.15500
 452.22;    5.630;    1.971;    0.000; 3.65875
 452.51;   13.010;    2.864;    0.000;10.14625
 452.80;   13.450;    0.808;    0.000;12.64250
 453.08;    9.370;    3.300;    0.000; 6.07000
 453.37;   19.640;    5.216;    0.000;14.42375
 453.66;   16.690;    1.974;    0.000;14.71625
 453.94;   17.800;    2.578;    0.000;15.22250
 454.23;    4.590;    0.707;    0.000; 3.88250
 454.51;   22.070;    5.106;    0.000;16.96375
 454.80;    9.830;    1.065;    0.000; 8.76500
 455.09;   15.290;    3.789;    0.000;11.50125
 455.37;   19.050;    2.000;    0.000;17.05000
 455.66;   20.310;    0.929;    0.000;19.38125
 455.95;   18.330;    2.487;    0.000;15.84250
 456.23;   26.290;    1.810;    0.000;24.48000
 456.52;   10.120;   -1.785;    0.000;11.90500
 456.80;   16.470;    1.676;    0.000;14.79375
 457.09;   21.310;    0.610;    0.000;20.70000
 457.38;   25.980;    2.624;    0.000;23.35625
 457.66;   21.900;    2.954;    0.000;18.94625
 457.95;   22.520;    2.106;    0.000;20.41375
 458.23;   13.650;   -0.848;    0.000;14.49750
 458.52;   21.450;    3.451;    0.000;17.99875
 458.81;   11.440;    4.972;    0.000; 6.46750
 459.09;   15.420;    4.175;    0.000;11.24500
 459.38;    8.390;    0.647;    0.000; 7.74250
 459.66;   15.080;    2.150;    0.000;12.93000
 459.95;   24.610;    3.480;    0.000;21.13000
 460.23;   20.480;    1.835;    0.000;18.64500
 460.52;   10.340;   -0.050;    0.000;10.39000
 460.81;   17.490;    3.735;    0.000;13.75500
 461.09;   12.580;    2.649;    0.000; 9.93125
 461.38;   26.030;    0.196;    0.000;25.83375
 461.66;    4.870;    2.040;    0.000; 2.83000
 461.95;   11.550;    2.691;    0.000; 8.85875
 462.23;   18.250;    2.905;    0.000;15.34500
 462.52;   14.070;    1.970;    0.000;12.10000
 462.81;    7.360;    1.775;    0.000; 5.58500
 463.09;   19.270;    2.996;    0.000;16.27375
 463.38;    3.970;    3.536;    0.000; 0.43375
 463.66;   10.690;    2.416;    0.000; 8.27375
 463.95;   21.400;    0.976;    0.000;20.42375
 464.23;   16.540;    3.136;    0.000;13.40375
 464.52;   15.100;    0.415;    0.000;14.68500
 464.80;   15.960;    2.267;    0.000;13.69250
 465.09;   28.130;    4.450;    0.000;23.68000
 465.38;   11.700;    2.135;    0.000; 9.56500
 465.66;    5.370;    3.092;    0.000; 2.27750
 465.95;   18.950;    3.005;    0.000;15.94500
 466.23;    6.000;    1.654;    0.000; 4.34625
 466.52;    6.340;    2.730;    0.000; 3.61000
 466.80;   32.030;    4.429;    0.000;27.60125
 467.09;   22.430;    2.030;    0.000;20.40000
 467.37;   19.390;    2.378;    0.000;17.01250
 467.66;   23.560;    4.521;    0.000;19.03875
 467.94;   23.750;    1.929;    0.000;21.82125
 468.23;   14.180;    1.577;    0.000;12.60250
 468.51;   24.390;    3.882;    0.000;20.50750
 468.80;   17.190;    3.013;    0.000;14.17750
 469.08;   18.020;    2.563;    0.000;15.45750
 469.37;   20.190;    3.146;    0.000;17.04375
 469.66;   18.130;    1.077;    0.000;17.05250
 469.94;   18.300;    0.594;    0.000;17.70625
 470.23;   18.400;    0.586;    0.000;17.81375
 470.51;   13.540;    2.723;    0.000;10.81750
 470.80;   30.520;    2.582;    0.000;27.93750
 471.08;   12.610;    3.061;    0.000; 9.54875
 471.37;   19.700;    2.378;    0.000;17.32250
 471.65;   37.930;    3.132;    0.000;34.79750
 471.94;   19.260;    0.899;    0.000;18.36125
 472.22;   17.750;    1.457;    0.000;16.29250
 472.51;   20.750;    1.730;    0.000;19.02000
 472.79;   22.020;    3.695;    0.000;18.32500
 473.08;   14.650;    0.592;    0.000;14.05750
 473.36;   37.160;    3.221;    0.000;33.93875
 473.64;   21.840;    1.619;    0.000;20.22125
 473.93;   29.900;    3.253;    0.000;26.64750
 474.21;   18.430;    2.713;    0.000;15.71750
 474.50;   24.940;    4.048;    0.000;20.89250
 474.78;   35.560;    2.095;    0.000;33.46500
 475.07;   12.190;    0.941;    0.000;11.24875
 475.35;   31.150;    3.199;    0.000;27.95125
 475.64;   21.990;    2.451;    0.000;19.53875
 475.92;   26.070;    1.299;    0.000;24.77125
 476.21;   32.470;    0.804;    0.000;31.66625
 476.49;   32.560;    2.276;    0.000;30.28375
 476.78;   34.200;    2.287;    0.000;31.91250
 477.06;   22.430;    2.473;    0.000;19.95750
 477.35;   33.420;    3.790;    0.000;29.63000
 477.63;   22.610;    1.086;    0.000;21.52375
 477.91;   35.620;    1.760;    0.000;33.86000
 478.20;   27.560;    1.059;    0.000;26.50125
 478.48;   24.520;    0.538;    0.000;23.98250
 478.77;   28.950;    3.499;    0.000;25.45125
 479.05;   36.270;    3.216;    0.000;33.05375
 479.34;   34.830;    0.761;    0.000;34.06875
 479.62;   34.840;    3.401;    0.000;31.43875
 479.91;   38.230;   -0.785;    0.000;39.01500
 480.19;   54.580;    2.868;    0.000;51.71250
 480.47;   32.340;    0.215;    0.000;32.12500
 480.76;   46.430;    5.134;    0.000;41.29625
 481.04;   50.230;    2.594;    0.000;47.63625
 481.33;   68.170;    5.226;    0.000;62.94375
 481.61;   51.600;    0.775;    0.000;50.82500
 481.90;   56.680;    3.454;    0.000;53.22625
 482.18;   71.030;    1.354;    0.000;69.67625
 482.46;   76.270;    2.395;    0.000;73.87500
 482.75;   81.360;    3.819;    0.000;77.54125
 483.03;   88.340;    1.339;    0.000;87.00125
 483.32;   99.190;   -0.608;    0.000;99.79750
 483.60;  113.170;    2.681;    0.000;110.48875
 483.88;  115.240;    3.960;    0.000;111.28000
 484.17;  137.140;    1.490;    0.000;135.65000
 484.45;  145.030;    0.410;    0.000;144.62000
 484.74;  170.380;    2.251;    0.000;168.12875
 485.02;  175.980;    2.283;    0.000;173.69750
 485.30;  193.420;    1.720;    0.000;191.70000
 485.59;  206.840;    0.525;    0.000;206.31500
 485.87;  250.020;    1.050;    0.000;248.97000
 486.16;  251.410;    1.403;    0.000;250.00750
 486.44;  288.580;    2.604;    0.000;285.97624
 486.72;  306.130;    1.150;    0.000;304.98000
 487.01;  344.870;    3.671;    0.000;341.19875
 487.29;  385.140;    0.510;    0.000;384.63001
 487.58;  410.940;    5.654;    0.000;405.28625
 487.86;  455.220;    3.342;    0.000;451.87750
 488.14;  491.660;    3.932;    0.000;487.72750
 488.43;  523.550;    0.979;    0.000;522.57124
 488.71;  571.720;    0.730;    0.000;570.98997
 488.99;  620.070;    1.616;    0.000;618.45376
 489.28;  696.780;    0.715;    0.000;696.06503
 489.56;  734.770;    1.239;    0.000;733.53127
 489.85;  793.100;    2.350;    0.000;790.74998
 490.13;  855.390;    2.057;    0.000;853.33251
 490.41;  924.560;    4.855;    0.000;919.70500
 490.70;  977.230;    2.358;    0.000;974.87248
 490.98; 1053.730;    1.931;    0.000;1051.79873
 491.26; 1144.670;   -0.796;    0.000;1145.46629
 491.55; 1225.520;    2.747;    0.000;1222.77252
 491.83; 1297.370;    2.797;    0.000;1294.57250
 492.11; 1401.090;    0.218;    0.000;1400.87247
 492.40; 1499.500;    1.774;    0.000;1497.72625
 492.68; 1583.670;    3.876;    0.000;1579.79379
 492.96; 1668.040;    2.506;    0.000;1665.53379
 493.25; 1795.070;    3.009;    0.000;1792.06120
 493.53; 1905.990;    1.435;    0.000;1904.55499
 493.81; 2011.840;    3.051;    0.000;2008.78872
 494.10; 2140.700;    2.372;    0.000;2138.32745
 494.38; 2268.230;    0.340;    0.000;2267.88998
 494.66; 2372.740;   -0.239;    0.000;2372.97874
 494.95; 2540.930;    2.470;    0.000;2538.45993
 495.23; 2661.340;    3.210;    0.000;2658.13009
 495.51; 2795.120;    4.576;    0.000;2790.54387
 495.80; 2935.720;    2.500;    0.000;2933.21997
 496.08; 3118.540;    4.334;    0.000;3114.20629
 496.36; 3264.660;    2.381;    0.000;3262.27866
 496.65; 3424.180;    0.871;    0.000;3423.30868
 496.93; 3574.980;    2.741;    0.000;3572.23873
 497.21; 3770.430;    0.571;    0.000;3769.85868
 497.50; 3914.480;    3.068;    0.000;3911.41248
 497.78; 4108.540;    1.405;    0.000;4107.13504
 498.06; 4279.430;    0.853;    0.000;4278.57768
 498.34; 4495.490;    2.364;    0.000;4493.12648
 498.63; 4650.130;    3.320;    0.000;4646.80988
 498.91; 4861.670;    4.931;    0.000;4856.73867
 499.19; 5078.940;    1.158;    0.000;5077.78244
 499.48; 5262.120;    2.360;    0.000;5259.76012
 499.76; 5501.070;    3.057;    0.000;5498.01232
 500.04; 5682.410;    4.120;    0.000;5678.29016
 500.32; 5932.280;    3.015;    0.000;5929.26479
 500.61; 6136.150;    2.210;    0.000;6133.93990
 500.89; 6360.990;    2.584;    0.000;6358.40648
 501.17; 6560.860;    1.663;    0.000;6559.19736
 501.46; 6835.000;    3.491;    0.000;6831.50875
 501.74; 7043.050;    4.365;    0.000;7038.68480
 502.02; 7308.700;    3.974;    0.000;7304.72645
 502.30; 7586.530;    3.686;    0.000;7582.84354
 502.59; 7780.890;    3.149;    0.000;7777.74139
 502.87; 8091.310;    2.419;    0.000;8088.89131
 503.15; 8322.930;    3.114;    0.000;8319.81594
 503.43; 8589.840;    1.428;    0.000;8588.41234
 503.72; 8856.490;    1.790;    0.000;8854.70023
 504.00; 9144.070;    1.394;    0.000;9142.67656
 504.28; 9422.190;    2.723;    0.000;9419.46793
 504.56; 9668.440;    3.711;    0.000;9664.72918
 504.85; 9954.640;    1.084;    0.000;9953.55590
 505.13;10232.130;    3.199;    0.000;10228.93113
 505.41;10492.980;    1.260;    0.000;10491.72047
 505.69;10786.740;    4.202;    0.000;10782.53773
 505.98;11041.010;    2.303;    0.000;11038.70727
 506.26;11352.460;    2.465;    0.000;11349.99496
 506.54;11621.550;    1.691;    0.000;11619.85855
 506.82;11947.230;    1.630;    0.000;11945.60047
 507.11;12231.510;    2.685;    0.000;12228.82477
 507.39;12521.290;    2.963;    0.000;12518.32754
 507.67;12788.820;    2.545;    0.000;12786.27531
 507.95;13145.250;    4.004;    0.000;13141.24625
 508.23;13383.210;    1.665;    0.000;13381.54496
 508.52;13667.200;    4.427;    0.000;13662.77270
 508.80;13967.930;    2.648;    0.000;13965.28219
 509.08;14294.120;    3.473;    0.000;14290.64762
 509.36;14571.990;    0.114;    0.000;14571.87648
 509.65;14867.440;    2.144;    0.000;14865.29668
 509.93;15165.450;    1.548;    0.000;15163.90270
 510.21;15491.570;    1.577;    0.000;15489.99281
 510.49;15771.520;    2.626;    0.000;15768.89328
 510.77;16068.460;    2.529;    0.000;16065.93121
 511.06;16351.160;    1.059;    0.000;16350.10141
 511.34;16671.090;    1.541;    0.000;16669.54859
 511.62;16957.789;   -1.497;    0.000;16959.28656
 511.90;17177.430;    3.204;    0.000;17174.22594
 512.18;17494.109;    1.067;    0.000;17493.04188
 512.47;17845.770;    5.470;    0.000;17840.29953
 512.75;18114.980;    1.100;    0.000;18113.88047
 513.03;18383.910;    4.050;    0.000;18379.86016
 513.31;18649.779;    1.416;    0.000;18648.36305
 513.59;18952.189;    3.094;    0.000;18949.09570
 513.87;19224.939;    1.499;    0.000;19223.44070
 514.16;19539.631;    3.134;    0.000;19536.49711
 514.44;19799.971;    1.394;    0.000;19798.57695
 514.72;20068.410;    3.402;    0.000;20065.00766
 515.00;20386.131;    2.842;    0.000;20383.28836
 515.28;20634.080;    3.527;    0.000;20630.55258
 515.56;20856.180;    2.730;    0.000;20853.44969
 515.85;21184.381;    0.644;    0.000;21183.73711
 516.13;21549.961;    2.204;    0.000;21547.75719
 516.41;21780.170;    1.971;    0.000;21778.19867
 516.69;22002.510;    3.354;    0.000;21999.15602
 516.97;22324.939;    4.766;    0.000;22320.17320
 517.25;22516.141;    2.075;    0.000;22514.06562
 517.54;22814.980;    4.198;    0.000;22810.78297
 517.82;23030.859;    2.642;    0.000;23028.21688
 518.10;23306.561;    1.928;    0.000;23304.63305
 518.38;23603.570;    3.320;    0.000;23600.25031
 518.66;23806.711;    3.017;    0.000;23803.69344
 518.94;24031.381;   -0.038;    0.000;24031.41836
 519.22;24359.170;    3.063;    0.000;24356.10742
 519.51;24561.500;    0.155;    0.000;24561.34500
 519.79;24753.119;   -0.216;    0.000;24753.33539
 520.07;25076.980;    3.670;    0.000;25073.31047
 520.35;25275.000;    3.328;    0.000;25271.67250
 520.63;25547.730;    2.414;    0.000;25545.31672
 520.91;25788.320;    0.201;    0.000;25788.11906
 521.19;26027.330;    3.025;    0.000;26024.30508
 521.47;26206.020;    1.909;    0.000;26204.11078
 521.75;26430.439;    2.081;    0.000;26428.35820
 522.04;26742.760;    2.229;    0.000;26740.53102
 522.32;26948.711;    0.170;    0.000;26948.54094
 522.60;27192.680;    3.899;    0.000;27188.78094
 522.88;27278.061;    3.216;    0.000;27274.84430
 523.16;27499.449;    2.065;    0.000;27497.38422
 523.44;27774.160;    2.495;    0.000;27771.66516
 523.72;27996.100;    3.304;    0.000;27992.79586
 524.00;28200.350;    2.655;    0.000;28197.69461
 524.28;28419.850;    2.943;    0.000;28416.90711
 524.57;28519.400;    2.586;    0.000;28516.81414
 524.85;28807.141;    4.845;    0.000;28802.29563
 525.13;28972.949;    4.231;    0.000;28968.71797
 525.41;29151.369;    1.692;    0.000;29149.67664
 525.69;29434.439;    1.334;    0.000;29433.10570
 525.97;29493.029;    4.061;    0.000;29488.96805
 526.25;29702.260;    0.954;    0.000;29701.30602
 526.53;29911.029;    4.273;    0.000;29906.75680
 526.81;30081.520;    0.319;    0.000;30081.20078
 527.09;30238.789;    1.679;    0.000;30237.11031
 527.37;30438.301;    0.134;    0.000;30438.16703
 527.65;30694.680;    3.938;    0.000;30690.74219
 527.93;30856.529;    1.886;    0.000;30854.64305
 528.22;30973.061;    3.976;    0.000;30969.08430
 528.50;31218.520;    1.497;    0.000;31217.02203
 528.78;31407.590;    4.605;    0.000;31402.98484
 529.06;31484.369;    3.001;    0.000;31481.36789
 529.34;31648.449;    3.697;    0.000;31644.75172
 529.62;31827.449;    2.995;    0.000;31824.45422
 529.90;32063.650;    2.693;    0.000;32060.95789
 530.18;32110.590;    0.646;    0.000;32109.94359
 530.46;32300.240;    3.618;    0.000;32296.62273
 530.74;32503.811;    4.294;    0.000;32499.51680
 531.02;32698.199;    2.640;    0.000;32695.55922
 531.30;32822.211;    0.880;    0.000;32821.33094
 531.58;32896.039;    3.714;    0.000;32892.32531
 531.86;33064.789;    2.035;    0.000;33062.75406
 532.14;33320.469;    4.215;    0.000;33316.25375
 532.42;33318.879;    2.910;    0.000;33315.96891
 532.70;33544.039;    3.036;    0.000;33541.00281
 532.98;33642.898;    0.534;    0.000;33642.36469
 533.26;33713.480;    2.263;    0.000;33711.21797
 533.54;33936.602;    1.962;    0.000;33934.63906
 533.82;34092.750;    4.854;    0.000;34087.89625
 534.10;34177.191;    3.501;    0.000;34173.69016
 534.38;34287.051;    0.683;    0.000;34286.36828
 534.66;34442.371;    4.026;    0.000;34438.34484
 534.94;34552.852;    2.694;    0.000;34550.15781
 535.22;34661.762;    2.501;    0.000;34659.26047
 535.50;34834.738;    1.347;    0.000;34833.39078
 535.78;34932.672;    4.506;    0.000;34928.16563
 536.06;35000.512;    5.009;    0.000;34995.50297
 536.34;35183.770;    2.092;    0.000;35181.67703
 536.62;35263.320;    3.473;    0.000;35259.84781
 536.90;35357.609;    4.017;    0.000;35353.59188
 537.18;35516.680;    2.636;    0.000;35514.04344
 537.46;35628.102;    0.501;    0.000;35627.60031
 537.74;35670.820;    3.977;    0.000;35666.84281
 538.02;35863.680;    5.509;    0.000;35858.17094
 538.30;35955.430;    5.718;    0.000;35949.71219
 538.58;36000.750;    2.925;    0.000;35997.82500
 538.86;36185.180;    4.149;    0.000;36181.03094
 539.14;36192.762;    3.205;    0.000;36189.55672
 539.42;36443.910;    5.500;    0.000;36438.41016
 539.70;36452.488;    1.393;    0.000;36451.09578
 539.98;36536.039;    2.892;    0.000;36533.14656
 540.26;36646.879;    1.592;    0.000;36645.28641
 540.54;36742.219;    4.443;    0.000;36737.77625
 540.82;36756.629;    1.806;    0.000;36754.82266
 541.10;36927.910;    4.010;    0.000;36923.90016
 541.38;37037.621;    2.525;    0.000;37035.09609
 541.66;37029.262;    4.036;    0.000;37025.22547
 541.94;37147.488;    5.741;    0.000;37141.74703
 542.22;37277.180;    6.370;    0.000;37270.80969
 542.50;37386.578;    2.181;    0.000;37384.39687
 542.78;37480.039;    3.706;    0.000;37476.33281
 543.06;37550.910;    1.092;    0.000;37549.81766
 543.34;37595.762;    4.554;    0.000;37591.20797
 543.62;37679.449;    1.795;    0.000;37677.65422
 543.90;37706.719;    2.027;    0.000;37704.69125
 544.17;37747.531;    2.539;    0.000;37744.99250
 544.45;37900.641;    5.716;    0.000;37894.92438
 544.73;37976.340;    3.084;    0.000;37973.25609
 545.01;38148.789;    3.473;    0.000;38145.31656
 545.29;38108.660;    4.139;    0.000;38104.52141
 545.57;38167.988;    5.057;    0.000;38162.93078
 545.85;38208.180;    3.080;    0.000;38205.09969
 546.13;38265.828;    3.045;    0.000;38262.78312
 546.41;38321.980;    5.004;    0.000;38316.97672
 546.69;38316.699;    5.885;    0.000;38310.81422
 546.97;38374.660;    3.510;    0.000;38371.15016
 547.25;38562.559;    5.443;    0.000;38557.11609
 547.52;38501.871;    6.606;    0.000;38495.26484
 547.80;38506.520;    4.670;    0.000;38501.84953
 548.08;38590.352;    2.263;    0.000;38588.08906
 548.36;38709.129;    4.355;    0.000;38704.77391
 548.64;38767.469;    4.756;    0.000;38762.71250
 548.92;38732.199;    3.705;    0.000;38728.49422
 549.20;38798.359;    3.259;    0.000;38795.10063
 549.48;38823.531;    4.170;    0.000;38819.36125
 549.76;38927.039;    4.735;    0.000;38922.30406
 550.04;38876.762;    5.597;    0.000;38871.16422
 550.31;38922.922;    1.956;    0.000;38920.96563
 550.59;39025.078;    3.471;    0.000;39021.60687
 550.87;38977.328;    2.305;    0.000;38975.02312
 551.15;39009.789;    5.196;    0.000;39004.59281
 551.43;39065.609;    2.901;    0.000;39062.70813
 551.71;39046.879;    4.271;    0.000;39042.60766
 551.99;38988.020;    2.554;    0.000;38985.46578
 552.27;39065.039;    4.544;    0.000;39060.49531
 552.54;39174.520;    3.098;    0.000;39171.42203
 552.82;39186.871;    2.580;    0.000;39184.29109
 553.10;39140.160;    3.609;    0.000;39136.55141
 553.38;39208.391;    5.986;    0.000;39202.40438
 553.66;39162.680;    4.290;    0.000;39158.38969
 553.94;39186.828;    0.865;    0.000;39185.96312
 554.22;39179.160;    4.026;    0.000;39175.13391
 554.49;39197.809;    1.909;    0.000;39195.89984
 554.77;39178.859;    3.175;    0.000;39175.68438
 555.05;39301.059;    4.770;    0.000;39296.28859
 555.33;39216.859;    3.230;    0.000;39213.62937
 555.61;39262.809;    3.481;    0.000;39259.32734
 555.89;39205.309;    0.751;    0.000;39204.55734
 556.16;39202.789;    1.086;    0.000;39201.70281
 556.44;39213.199;    1.997;    0.000;39211.20172
 556.72;39231.910;    5.874;    0.000;39226.03641
 557.00;39237.102;    2.216;    0.000;39234.88531
 557.28;39156.441;    2.520;    0.000;39153.92141
 557.56;39150.059;    1.341;    0.000;39148.71734
 557.83;39208.840;    6.726;    0.000;39202.11359
 558.11;39124.301;    6.404;    0.000;39117.89703
 558.39;39084.961;    2.997;    0.000;39081.96344
 558.67;39160.410;    1.645;    0.000;39158.76516
 558.95;39108.102;    1.871;    0.000;39106.23031
 559.23;39062.270;    3.966;    0.000;39058.30328
 559.50;39019.559;    3.114;    0.000;39016.44484
 559.78;39012.078;    2.484;    0.000;39009.59437
 560.06;39000.980;    3.674;    0.000;38997.30672
 560.34;38964.879;    4.381;    0.000;38960.49766
 560.62;38973.078;    5.099;    0.000;38967.97937
 560.89;38916.602;    3.236;    0.000;38913.36531
 561.17;38827.910;    3.039;    0.000;38824.87141
 561.45;38803.961;    6.720;    0.000;38797.24094
 561.73;38747.160;    3.614;    0.000;38743.54641
 562.00;38720.219;    1.837;    0.000;38718.38125
 562.28;38728.898;    4.736;    0.000;38724.16219
 562.56;38633.219;    3.688;    0.000;38629.53125
 562.84;38551.770;    5.670;    0.000;38546.09953
 563.12;38588.500;    1.199;    0.000;38587.30125
 563.39;38444.430;    2.850;    0.000;38441.57969
 563.67;38569.441;    4.331;    0.000;38565.11016
 563.95;38358.711;    3.725;    0.000;38354.98594
 564.23;38397.410;    0.817;    0.000;38396.59266
 564.50;38299.031;    3.756;    0.000;38295.27500
 564.78;38190.320;    4.778;    0.000;38185.54281
 565.06;38187.648;    4.095;    0.000;38183.55344
 565.34;38119.922;    3.490;    0.000;38116.43187
 565.61;38052.680;    3.579;    0.000;38049.10094
 565.89;37898.488;    4.356;    0.000;37894.13203
 566.17;37939.898;    1.107;    0.000;37938.79094
 566.45;37909.250;    3.446;    0.000;37905.80375
 566.73;37745.512;    4.733;    0.000;37740.77922
 567.00;37680.930;    2.011;    0.000;37678.91844
 567.28;37685.320;    4.403;    0.000;37680.91781
 567.56;37597.871;    4.230;    0.000;37593.64109
 567.83;37465.691;    4.820;    0.000;37460.87141
 568.11;37433.281;    4.360;    0.000;37428.92125
 568.39;37364.672;    3.311;    0.000;37361.36063
 568.67;37241.172;    4.975;    0.000;37236.19688
 568.94;37152.180;    4.472;    0.000;37147.70719
 569.22;37116.211;    2.889;    0.000;37113.32219
 569.50;37003.441;    2.293;    0.000;37001.14891
 569.78;36934.238;    0.215;    0.000;36934.02328
 570.05;36866.102;    2.606;    0.000;36863.49531
 570.33;36809.148;    2.001;    0.000;36807.14719
 570.61;36693.539;    5.050;    0.000;36688.48906
 570.88;36561.422;    1.764;    0.000;36559.65813
 571.16;36517.371;    2.787;    0.000;36514.58359
 571.44;36306.840;    0.548;    0.000;36306.29234
 571.72;36285.172;    2.101;    0.000;36283.07063
 571.99;36209.969;    2.487;    0.000;36207.48125
 572.27;36095.309;    2.940;    0.000;36092.36859
 572.55;35946.000;    2.769;    0.000;35943.23125
 572.82;35813.012;    3.071;    0.000;35809.94047
 573.10;35710.980;    4.463;    0.000;35706.51797
 573.38;35712.441;    4.084;    0.000;35708.35766
 573.65;35600.770;    4.691;    0.000;35596.07828
 573.93;35469.148;    2.601;    0.000;35466.54719
 574.21;35371.051;    2.024;    0.000;35369.02703
 574.48;35177.148;    4.831;    0.000;35172.31719
 574.76;35133.852;    4.536;    0.000;35129.31531
 575.04;34950.852;    5.972;    0.000;34944.87906
 575.32;34922.609;    0.036;    0.000;34922.57313
 575.59;34740.398;    5.807;    0.000;34734.59094
 575.87;34668.148;    3.089;    0.000;34665.05969
 576.15;34476.160;    4.832;    0.000;34471.32766
 576.42;34331.539;    1.260;    0.000;34330.27906
 576.70;34227.070;    2.868;    0.000;34224.20281
 576.98;34103.531;    4.479;    0.000;34099.05250
 577.25;33974.328;    3.994;    0.000;33970.33437
 577.53;33847.590;    2.311;    0.000;33845.27859
 577.80;33760.941;    4.555;    0.000;33756.38641
 578.08;33640.770;    1.016;    0.000;33639.75328
 578.36;33564.941;    3.935;    0.000;33561.00641
 578.63;33404.820;    2.959;    0.000;33401.86156
 578.91;33270.648;    3.149;    0.000;33267.49969
 579.19;33176.539;    3.899;    0.000;33172.64031
 579.46;32954.770;    3.882;    0.000;32950.88703
 579.74;32828.910;    0.826;    0.000;32828.08391
 580.02;32705.801;    0.681;    0.000;32705.11953
 580.29;32566.939;    3.734;    0.000;32563.20570
 580.57;32390.689;    2.340;    0.000;32388.34945
 580.84;32256.051;    1.306;    0.000;32254.74453
 581.12;32103.010;    4.154;    0.000;32098.85602
 581.40;32085.131;    2.944;    0.000;32082.18711
 581.67;31881.939;    4.294;    0.000;31877.64570
 581.95;31711.051;    1.742;    0.000;31709.30828
 582.23;31600.160;    2.881;    0.000;31597.27891
 582.50;31318.811;    4.459;    0.000;31314.35180
 582.78;31256.631;    2.859;    0.000;31253.77211
 583.05;31087.680;    3.785;    0.000;31083.89469
 583.33;30912.061;    2.399;    0.000;30909.66180
 583.61;30814.551;    6.227;    0.000;30808.32328
 583.88;30592.600;    3.654;    0.000;30588.94586
 584.16;30495.311;    1.746;    0.000;30493.56430
 584.43;30383.141;    3.211;    0.000;30379.92937
 584.71;30268.449;    2.947;    0.000;30265.50172
 584.99;30073.971;    3.717;    0.000;30070.25320
 585.26;29894.131;    2.017;    0.000;29892.11336
 585.54;29801.881;    1.204;    0.000;29800.67711
 585.81;29650.170;    4.169;    0.000;29646.00117
 586.09;29447.070;    3.445;    0.000;29443.62531
 586.37;29271.561;    1.883;    0.000;29269.67805
 586.64;29132.270;    4.314;    0.000;29127.95578
 586.92;29015.840;    1.679;    0.000;29014.16109
 587.19;28860.420;    3.080;    0.000;28857.33992
 587.47;28730.430;    2.747;    0.000;28727.68219
 587.74;28534.500;    4.613;    0.000;28529.88750
 588.02;28380.590;    4.313;    0.000;28376.27734
 588.30;28223.600;    3.340;    0.000;28220.25961
 588.57;28076.500;    3.376;    0.000;28073.12375
 588.85;27961.949;    4.094;    0.000;27957.85547
 589.12;27740.150;    4.117;    0.000;27736.03289
 589.40;27649.160;    2.787;    0.000;27646.37266
 589.67;27477.029;    2.685;    0.000;27474.34430
 589.95;27365.369;    7.534;    0.000;27357.83539
 590.22;27246.900;    2.001;    0.000;27244.89914
 590.50;27088.480;    3.696;    0.000;27084.78422
 590.77;26947.600;    1.840;    0.000;26945.75961
 591.05;26814.070;    4.359;    0.000;26809.71156
 591.33;26636.260;    1.175;    0.000;26635.08477
 591.60;26435.320;    1.119;    0.000;26434.20156
 591.88;26256.510;    4.168;    0.000;26252.34227
 592.15;26110.770;    3.402;    0.000;26107.36703
 592.43;25946.211;    2.320;    0.000;25943.89094
 592.70;25769.449;    3.095;    0.000;25766.35422
 592.98;25621.539;    3.245;    0.000;25618.29406
 593.25;25409.650;    3.697;    0.000;25405.95289
 593.53;25321.010;    2.335;    0.000;25318.67477
 593.80;25072.670;    3.291;    0.000;25069.37867
 594.08;24930.221;    1.874;    0.000;24928.34695
 594.35;24833.699;    4.060;    0.000;24829.63922
 594.63;24695.750;    2.872;    0.000;24692.87750
 594.90;24464.650;    2.609;    0.000;24462.04164
 595.18;24290.180;    3.821;    0.000;24286.35844
 595.45;24136.391;    4.101;    0.000;24132.28937
 595.73;23999.150;    3.088;    0.000;23996.06289
 596.00;23825.910;    5.176;    0.000;23820.73391
 596.28;23647.631;    2.150;    0.000;23645.48086
 596.55;23449.439;    4.939;    0.000;23444.50070
 596.83;23350.180;    1.852;    0.000;23348.32719
 597.10;23193.359;    4.657;    0.000;23188.70188
 597.38;22987.170;    3.055;    0.000;22984.11492
 597.65;22806.650;    2.369;    0.000;22804.28164
 597.93;22674.471;    0.613;    0.000;22673.85820
 598.20;22529.520;    3.918;    0.000;22525.60203
 598.48;22287.461;    1.860;    0.000;22285.60094
 598.75;22185.010;    3.500;    0.000;22181.50977
 599.03;21978.260;    4.341;    0.000;21973.91852
 599.30;21899.311;    1.952;    0.000;21897.35805
 599.58;21646.369;    3.211;    0.000;21643.15789
 599.85;21519.279;    5.479;    0.000;21513.80055
 600.12;21385.439;    2.605;    0.000;21382.83445
 600.40;21242.660;    4.610;    0.000;21238.05016
 600.67;21071.211;    3.875;    0.000;21067.33594
 600.95;21013.320;    3.932;    0.000;21009.38781
 601.22;20780.811;    4.343;    0.000;20776.46805
 601.50;20629.369;    3.861;    0.000;20625.50789
 601.77;20457.830;    2.813;    0.000;20455.01758
 602.05;20351.320;    3.898;    0.000;20347.42281
 602.32;20231.510;    2.983;    0.000;20228.52727
 602.59;20058.039;    2.529;    0.000;20055.51031
 602.87;19905.721;    4.855;    0.000;19900.86570
 603.14;19765.859;    3.612;    0.000;19762.24688
 603.42;19610.080;    2.557;    0.000;19607.52258
 603.69;19481.000;    1.731;    0.000;19479.26875
 603.97;19356.199;    4.331;    0.000;19351.86797
 604.24;19238.260;    3.800;    0.000;19234.45977
 604.51;19118.500;    3.688;    0.000;19114.81250
 604.79;18982.971;    3.882;    0.000;18979.08820
 605.06;18828.869;    3.945;    0.000;18824.92414
 605.34;18674.939;    4.537;    0.000;18670.40195
 605.61;18567.570;    2.057;    0.000;18565.51281
 605.89;18451.230;    3.287;    0.000;18447.94297
 606.16;18298.740;    4.349;    0.000;18294.39148
 606.43;18166.439;    5.481;    0.000;18160.95820
 606.71;18029.820;    2.475;    0.000;18027.34531
 606.98;17981.029;    2.328;    0.000;17978.70180
 607.26;17821.920;    3.761;    0.000;17818.15867
 607.53;17701.529;    2.716;    0.000;17698.81305
 607.80;17621.119;    2.881;    0.000;17618.23789
 608.08;17471.520;    3.045;    0.000;17468.47453
 608.35;17285.289;    3.132;    0.000;17282.15656
 608.62;17166.080;    2.546;    0.000;17163.53383
 608.90;17111.490;    1.881;    0.000;17109.60898
 609.17;17014.000;    1.808;    0.000;17012.19250
 609.45;16877.070;    3.072;    0.000;16873.99781
 609.72;16801.770;    4.076;    0.000;16797.69328
 609.99;16695.949;    1.740;    0.000;16694.20922
 610.27;16575.430;    3.930;    0.000;16571.49969
 610.54;16459.609;   -0.248;    0.000;16459.85688
 610.81;16356.700;    3.979;    0.000;16352.72145
 611.09;16221.280;    2.641;    0.000;16218.63902
 611.36;16164.690;    0.728;    0.000;16163.96293
 611.64;16043.370;    3.644;    0.000;16039.72637
 611.91;15941.970;    2.205;    0.000;15939.76473
 612.18;15840.830;    3.130;    0.000;15837.70008
 612.46;15728.220;    4.631;    0.000;15723.58848
 612.73;15617.780;    1.941;    0.000;15615.83902
 613.00;15474.080;    3.451;    0.000;15470.62883
 613.28;15361.390;    2.829;    0.000;15358.56090
 613.55;15244.320;    5.354;    0.000;15238.96656
 613.82;15147.260;    2.598;    0.000;15144.66227
 614.10;14940.070;    2.566;    0.000;14937.50406
 614.37;14818.730;    0.998;    0.000;14817.73297
 614.64;14672.670;    1.727;    0.000;14670.94242
 614.92;14496.940;    1.755;    0.000;14495.18543
 615.19;14364.780;    3.310;    0.000;14361.47027
 615.46;14158.660;    3.815;    0.000;14154.84516
 615.74;14013.590;    3.493;    0.000;14010.09734
 616.01;13765.560;   -0.661;    0.000;13766.22082
 616.28;13517.370;    3.483;    0.000;13513.88762
 616.56;13306.230;    1.890;    0.000;13304.34047
 616.83;13088.380;    2.476;    0.000;13085.90363
 617.10;12972.780;    4.282;    0.000;12968.49777
 617.37;12961.130;    2.747;    0.000;12958.38238
 617.65;13069.500;    1.979;    0.000;13067.52125
 617.92;13185.580;    3.259;    0.000;13182.32133
 618.19;13076.170;    3.304;    0.000;13072.86617
 618.47;12931.640;    2.418;    0.000;12929.22215
 618.74;12882.740;    2.545;    0.000;12880.19523
 619.01;12835.420;    5.466;    0.000;12829.95367
 619.28;12751.620;    6.039;    0.000;12745.58137
 619.56;12709.910;    4.155;    0.000;12705.75516
 619.83;12623.050;    3.957;    0.000;12619.09230
 620.10;12537.750;    3.467;    0.000;12534.28250
 620.38;12518.260;    2.330;    0.000;12515.92977
 620.65;12402.100;    3.352;    0.000;12398.74711
 620.92;12366.580;    2.168;    0.000;12364.41258
 621.19;12368.700;    4.168;    0.000;12364.53270
 621.47;12362.760;    0.951;    0.000;12361.80852
 621.74;12414.420;    4.323;    0.000;12410.09742
 622.01;12378.570;    1.462;    0.000;12377.10781
 622.28;12432.560;    4.025;    0.000;12428.53457
 622.56;12374.810;    2.351;    0.000;12372.45832
 622.83;12302.950;    1.730;    0.000;12301.22020
 623.10;12255.660;    2.729;    0.000;12252.93141
 623.38;12238.010;    2.005;    0.000;12236.00477
 623.65;12157.930;    4.239;    0.000;12153.69094
 623.92;12084.430;    1.536;    0.000;12082.89344
 624.19;12072.690;   -0.880;    0.000;12073.57043
 624.46;12012.650;    3.061;    0.000;12009.58914
 624.74;11950.630;    3.045;    0.000;11947.58488
 625.01;11841.620;    5.025;    0.000;11836.59512
 625.28;11817.050;    1.938;    0.000;11815.11230
 625.55;11785.380;    1.933;    0.000;11783.44738
 625.83;11743.200;    3.122;    0.000;11740.07770
 626.10;11663.380;    3.759;    0.000;11659.62113
 626.37;11634.060;    1.891;    0.000;11632.16832
 626.64;11601.080;    2.188;    0.000;11598.89258
 626.92;11548.300;    1.146;    0.000;11547.15355
 627.19;11489.170;    3.395;    0.000;11485.77492
 627.46;11400.770;    1.855;    0.000;11398.91453
 627.73;11381.610;   -0.625;    0.000;11382.23535
 628.00;11327.020;    4.034;    0.000;11322.98578
 628.28;11284.510;    2.981;    0.000;11281.52852
 628.55;11176.520;    0.068;    0.000;11176.45203
 628.82;11219.950;    1.947;    0.000;11218.00270
 629.09;11120.510;    4.360;    0.000;11116.14977
 629.36;11096.390;    5.664;    0.000;11090.72590
 629.64;11003.790;    0.757;    0.000;11003.03254
 629.91;10985.780;    6.573;    0.000;10979.20777
 630.18;10926.710;    3.014;    0.000;10923.69621
 630.45;10863.450;    0.545;    0.000;10862.90520
 630.72;10812.030;   -1.060;    0.000;10813.09027
 631.00;10758.660;    1.430;    0.000;10757.23016
 631.27;10754.950;    2.735;    0.000;10752.21520
 631.54;10685.300;    1.822;    0.000;10683.47730
 631.81;10635.930;    3.679;    0.000;10632.25094
 632.08;10556.660;    3.724;    0.000;10552.93641
 632.35;10532.370;    2.265;    0.000;10530.10512
 632.63;10462.470;    4.170;    0.000;10458.29973
 632.90;10502.310;    2.181;    0.000;10500.12832
 633.17;10394.660;    1.319;    0.000;10393.34141
 633.44;10372.340;    3.421;    0.000;10368.91859
 633.71;10360.760;    3.719;    0.000;10357.04102
 633.98;10336.900;    0.863;    0.000;10336.03789
 634.25;10248.030;    4.139;    0.000;10243.89152
 634.53;10260.720;    3.731;    0.000;10256.98848
 634.80;10315.080;    2.301;    0.000;10312.77883
 635.07;10226.390;    2.280;    0.000;10224.10965
 635.34;10233.760;    4.559;    0.000;10229.20102
 635.61;10220.350;    4.886;    0.000;10215.46336
 635.88;10225.800;    2.765;    0.000;10223.03480
 636.15;10291.250;    3.779;    0.000;10287.47125
 636.43;10248.590;    3.138;    0.000;10245.45234
 636.70;10268.680;    0.309;    0.000;10268.37094
 636.97;10194.260;    0.026;    0.000;10194.23352
 637.24;10076.410;    2.896;    0.000;10073.51391
 637.51; 9926.640;    4.227;    0.000;9922.41215
 637.78; 9779.480;    1.205;    0.000;9778.27547
 638.05; 9717.340;   -0.521;    0.000;9717.86109
 638.32; 9711.820;    4.594;    0.000;9707.22656
 638.60; 9618.110;    1.989;    0.000;9616.12160
 638.87; 9562.840;    0.371;    0.000;9562.46859
 639.14; 9529.380;    4.139;    0.000;9525.24113
 639.41; 9434.140;    0.873;    0.000;9433.26715
 639.68; 9365.200;    3.072;    0.000;9362.12770
 639.95; 9298.810;    1.040;    0.000;9297.76957
 640.22; 9235.280;    3.735;    0.000;9231.54527
 640.49; 9183.290;    2.639;    0.000;9180.65129
 640.76; 9105.430;    5.461;    0.000;9099.96844
 641.03; 9029.870;    0.767;    0.000;9029.10262
 641.30; 8913.450;    4.760;    0.000;8908.69020
 641.58; 8786.280;    0.679;    0.000;8785.60152
 641.85; 8693.300;    3.010;    0.000;8690.28980
 642.12; 8633.220;    1.204;    0.000;8632.01598
 642.39; 8538.110;    4.154;    0.000;8533.95660
 642.66; 8467.090;    1.847;    0.000;8465.24234
 642.93; 8430.940;    1.470;    0.000;8429.47043
 643.20; 8364.450;    1.317;    0.000;8363.13270
 643.47; 8302.270;    3.454;    0.000;8298.81578
 643.74; 8235.190;    0.748;    0.000;8234.44293
 644.01; 8198.100;    3.763;    0.000;8194.33711
 644.28; 8129.770;    0.605;    0.000;8129.16502
 644.55; 8073.200;    2.486;    0.000;8070.71395
 644.82; 8018.210;    2.384;    0.000;8015.82621
 645.09; 7983.350;    0.360;    0.000;7982.99010
 645.36; 7929.480;    3.155;    0.000;7926.32498
 645.63; 7902.010;    2.894;    0.000;7899.11602
 645.91; 7811.740;    3.947;    0.000;7807.79273
 646.18; 7781.590;    3.690;    0.000;7777.89984
 646.45; 7718.900;    0.995;    0.000;7717.90490
 646.72; 7686.190;    1.101;    0.000;7685.08869
 646.99; 7614.540;    1.396;    0.000;7613.14379
 647.26; 7589.710;    1.024;    0.000;7588.68621
 647.53; 7520.120;    1.119;    0.000;7519.00137
 647.80; 7517.520;    1.765;    0.000;7515.75502
 648.07; 7433.280;    0.945;    0.000;7432.33479
 648.34; 7380.260;    1.820;    0.000;7378.43977
 648.61; 7344.080;    1.154;    0.000;7342.92633
 648.88; 7303.610;    2.699;    0.000;7300.91111
 649.15; 7222.250;    1.045;    0.000;7221.20500
 649.42; 7178.550;    2.971;    0.000;7175.57855
 649.69; 7129.000;   -1.864;    0.000;7130.86375
 649.96; 7112.080;    0.123;    0.000;7111.95758
 650.23; 7038.850;   -1.247;    0.000;7040.09760
 650.50; 7020.720;    2.479;    0.000;7018.24146
 650.77; 6947.740;   -0.845;    0.000;6948.58523
 651.04; 6958.390;    4.423;    0.000;6953.96764
 651.31; 6872.150;    1.202;    0.000;6870.94740
 651.58; 6858.230;    1.992;    0.000;6856.23748
 651.85; 6818.540;    0.651;    0.000;6817.88879
 652.12; 6761.880;    1.250;    0.000;6760.62988
 652.39; 6739.960;    2.362;    0.000;6737.59746
 652.66; 6655.560;    3.281;    0.000;6652.27881
 652.93; 6631.680;    2.255;    0.000;6629.42518
 653.20; 6585.060;    2.949;    0.000;6582.11131
 653.47; 6555.640;    0.469;    0.000;6555.17139
 653.74; 6486.410;    4.386;    0.000;6482.02391
 654.01; 6457.100;    2.973;    0.000;6454.12760
 654.28; 6411.230;    1.301;    0.000;6409.92873
 654.55; 6367.670;   -1.832;    0.000;6369.50242
 654.81; 6328.360;    3.639;    0.000;6324.72111
 655.08; 6293.680;    0.624;    0.000;6293.05643
 655.35; 6237.520;    4.320;    0.000;6233.20002
 655.62; 6188.760;   -1.529;    0.000;6190.28852
 655.89; 6134.480;    2.852;    0.000;6131.62748
 656.16; 6101.650;    0.510;    0.000;6101.13990
 656.43; 6088.550;    3.440;    0.000;6085.10980
 656.70; 6027.330;    1.716;    0.000;6025.61383
 656.97; 6012.410;    2.947;    0.000;6009.46266
 657.24; 5947.920;    2.443;    0.000;5945.47742
 657.51; 5902.100;    5.190;    0.000;5896.91010
 657.78; 5884.720;    2.088;    0.000;5882.63271
 658.05; 5827.600;    2.378;    0.000;5825.22260
 658.32; 5772.300;    2.024;    0.000;5770.27605
 658.59; 5748.010;    2.130;    0.000;5745.87977
 658.86; 5719.230;    1.824;    0.000;5717.40623
 659.12; 5690.150;    2.666;    0.000;5687.48365
 659.39; 5629.670;    1.124;    0.000;5628.54617
 659.66; 5597.540;    3.401;    0.000;5594.13879
 659.93; 5574.530;    1.985;    0.000;5572.54479
 660.20; 5508.680;    3.110;    0.000;5505.57018
 660.47; 5484.950;    2.070;    0.000;5482.88020
 660.74; 5420.150;    1.519;    0.000;5418.63115
 661.01; 5394.520;    5.176;    0.000;5389.34377
 661.28; 5376.000;    1.305;    0.000;5374.69500
 661.55; 5352.950;    3.871;    0.000;5349.07895
 661.81; 5288.050;    0.349;    0.000;5287.70105
 662.08; 5236.200;   -1.056;    0.000;5237.25645
 662.35; 5224.260;    0.981;    0.000;5223.27852
 662.62; 5205.620;    0.535;    0.000;5205.08512
 662.89; 5148.450;    3.275;    0.000;5145.17520
 663.16; 5130.100;   -0.139;    0.000;5130.23885
 663.43; 5024.840;    1.344;    0.000;5023.49609
 663.70; 5025.500;    3.266;    0.000;5022.23375
 663.96; 5013.670;    1.253;    0.000;5012.41742
 664.23; 4963.950;    0.530;    0.000;4963.42020
 664.50; 4904.100;    2.487;    0.000;4901.61260
 664.77; 4886.120;   -0.877;    0.000;4886.99762
 665.04; 4874.800;    3.953;    0.000;4870.84730
 665.31; 4812.170;    0.842;    0.000;4811.32742
 665.58; 4780.320;    2.457;    0.000;4777.86232
 665.84; 4744.850;    0.780;    0.000;4744.07010
 666.11; 4716.500;    4.791;    0.000;4711.70875
 666.38; 4662.580;   -0.827;    0.000;4663.40758
 666.65; 4657.210;    2.049;    0.000;4655.16121
 666.92; 4621.670;   -1.602;    0.000;4623.27242
 667.19; 4577.420;    2.217;    0.000;4575.20242
 667.46; 4558.550;    0.044;    0.000;4558.50605
 667.72; 4514.360;    2.615;    0.000;4511.74486
 667.99; 4469.670;    1.617;    0.000;4468.05242
 668.26; 4459.420;    4.448;    0.000;4454.97242
 668.53; 4404.860;    1.530;    0.000;4403.32986
 668.80; 4407.860;    1.789;    0.000;4406.07111
 669.06; 4337.670;    3.941;    0.000;4333.72867
 669.33; 4346.490;    4.309;    0.000;4342.18148
 669.60; 4295.340;    0.438;    0.000;4294.90234
 669.87; 4243.620;    1.599;    0.000;4242.02137
 670.14; 4229.700;   -0.375;    0.000;4230.07520
 670.41; 4187.190;    1.401;    0.000;4185.78869
 670.67; 4171.600;    2.004;    0.000;4169.59635
 670.94; 4110.700;    0.808;    0.000;4109.89270
 671.21; 4082.720;    2.151;    0.000;4080.56872
 671.48; 4031.610;   -0.835;    0.000;4032.44511
 671.75; 3999.040;    2.424;    0.000;3996.61629
 672.01; 4000.640;    3.504;    0.000;3997.13614
 672.28; 3977.550;    1.559;    0.000;3975.99130
 672.55; 3951.450;    3.671;    0.000;3947.77870
 672.82; 3889.620;    1.102;    0.000;3888.51762
 673.08; 3887.490;    2.175;    0.000;3885.31499
 673.35; 3823.490;   -0.296;    0.000;3823.78624
 673.62; 3795.220;    0.715;    0.000;3794.50497
 673.89; 3764.540;   -1.376;    0.000;3765.91629
 674.16; 3727.640;    2.699;    0.000;3724.94114
 674.42; 3687.930;    3.569;    0.000;3684.36118
 674.69; 3713.000;    0.779;    0.000;3712.22125
 674.96; 3636.580;    1.980;    0.000;3634.60008
 675.23; 3601.680;    2.409;    0.000;3599.27118
 675.49; 3590.410;    1.455;    0.000;3588.95491
 675.76; 3554.800;    3.918;    0.000;3550.88255
 676.03; 3530.820;    2.640;    0.000;3528.18007
 676.30; 3506.920;    3.191;    0.000;3503.72867
 676.56; 3486.470;    1.544;    0.000;3484.92622
 676.83; 3450.590;    2.005;    0.000;3448.58509
 677.10; 3419.420;    0.876;    0.000;3418.54367
 677.37; 3397.760;    5.404;    0.000;3392.35626
 677.63; 3377.110;   -0.745;    0.000;3377.85511
 677.90; 3347.910;    4.010;    0.000;3343.89991
 678.17; 3322.070;    1.760;    0.000;3320.31007
 678.44; 3291.100;    2.400;    0.000;3288.70010
 678.70; 3254.510;    1.548;    0.000;3252.96251
 678.97; 3255.950;    1.459;    0.000;3254.49120
 679.24; 3217.530;    0.824;    0.000;3216.70628
 679.50; 3180.790;    2.297;    0.000;3178.49254
 679.77; 3155.800;    0.320;    0.000;3155.48005
 680.04; 3149.020;    0.405;    0.000;3148.61502
 680.31; 3116.760;   -0.887;    0.000;3117.64751
 680.57; 3084.150;    2.870;    0.000;3081.27990
 680.84; 3066.830;    1.740;    0.000;3065.09008
 681.11; 3053.400;    1.115;    0.000;3052.28490
 681.37; 3014.800;   -1.815;    0.000;3016.61505
 681.64; 3002.050;   -0.892;    0.000;3002.94255
 681.91; 2960.510;    4.430;    0.000;2956.08001
 682.17; 2943.320;    3.001;    0.000;2940.31882
 682.44; 2908.120;   -1.503;    0.000;2909.62262
 682.71; 2884.740;    3.140;    0.000;2881.59999
 682.98; 2878.010;    1.636;    0.000;2876.37376
 683.24; 2841.880;   -0.827;    0.000;2842.70738
 683.51; 2828.710;    0.954;    0.000;2827.75621
 683.78; 2810.580;    1.344;    0.000;2809.23633
 684.04; 2776.400;    1.450;    0.000;2774.94990
 684.31; 2758.020;    0.043;    0.000;2757.97752
 684.58; 2710.450;    1.136;    0.000;2709.31370
 684.84; 2734.350;    2.069;    0.000;2732.28135
 685.11; 2679.640;    3.858;    0.000;2675.78239
 685.38; 2668.450;    4.713;    0.000;2663.73745
 685.64; 2659.460;    0.870;    0.000;2658.58996
 685.91; 2628.600;   -0.069;    0.000;2628.66885
 686.17; 2613.200;    2.316;    0.000;2610.88370
 686.44; 2606.060;   -0.858;    0.000;2606.91756
 686.71; 2573.800;    1.816;    0.000;2571.98380
 686.97; 2551.650;   -1.670;    0.000;2553.31990
 687.24; 2513.020;    0.944;    0.000;2512.07627
 687.51; 2506.630;    0.550;    0.000;2506.07988
 687.77; 2485.680;    1.104;    0.000;2484.57618
 688.04; 2451.290;    1.634;    0.000;2449.65629
 688.31; 2426.300;    2.836;    0.000;2423.46380
 688.57; 2429.780;    1.955;    0.000;2427.82503
 688.84; 2395.480;    1.581;    0.000;2393.89873
 689.10; 2383.390;    3.057;    0.000;2380.33239
 689.37; 2360.100;    1.930;    0.000;2358.17010
 689.64; 2339.840;    0.310;    0.000;2339.53009
 689.90; 2340.670;    1.576;    0.000;2339.09367
 690.17; 2294.000;    3.089;    0.000;2290.91125
 690.44; 2280.120;   -0.029;    0.000;2280.14887
 690.70; 2268.820;    2.069;    0.000;2266.75132
 690.97; 2238.610;    0.464;    0.000;2238.14636
 691.23; 2227.930;    2.264;    0.000;2225.66618
 691.50; 2214.120;    0.368;    0.000;2213.75262
 691.77; 2175.790;    3.309;    0.000;2172.48129
 692.03; 2153.960;   -0.905;    0.000;2154.86496
 692.30; 2146.510;    1.190;    0.000;2145.32001
 692.56; 2099.230;    0.126;    0.000;2099.10373
 692.83; 2098.220;    0.384;    0.000;2097.83622
 693.10; 2083.270;    3.125;    0.000;2080.14502
 693.36; 2056.760;    2.911;    0.000;2053.84876
 693.63; 2014.420;    0.608;    0.000;2013.81254
 693.89; 2011.260;   -0.538;    0.000;2011.79751
 694.16; 1996.540;    0.642;    0.000;1995.89754
 694.42; 1970.790;    0.609;    0.000;1970.18129
 694.69; 1974.480;    3.661;    0.000;1970.81873
 694.96; 1953.200;    3.156;    0.000;1950.04370
 695.22; 1918.070;    2.274;    0.000;1915.79620
 695.49; 1902.390;    3.946;    0.000;1898.44376
 695.75; 1878.930;    2.188;    0.000;1876.74255
 696.02; 1858.050;    2.641;    0.000;1855.40880
 696.28; 1824.250;    2.575;    0.000;1821.67500
 696.55; 1811.260;    1.420;    0.000;1809.84001
 696.81; 1794.080;    1.639;    0.000;1792.44121
 697.08; 1787.260;    0.668;    0.000;1786.59251
 697.34; 1767.610;    0.815;    0.000;1766.79499
 697.61; 1736.790;    1.273;    0.000;1735.51754
 697.88; 1715.960;    0.400;    0.000;1715.55996
 698.14; 1694.320;    0.565;    0.000;1693.75495
 698.41; 1675.990;    2.316;    0.000;1673.67374
 698.67; 1668.630;    0.394;    0.000;1668.23625
 698.94; 1623.390;   -0.249;    0.000;1623.63876
 699.20; 1633.660;   -1.043;    0.000;1634.70253
 699.47; 1589.850;    3.237;    0.000;1586.61248
 699.73; 1579.480;    2.318;    0.000;1577.16248
 700.00; 1551.410;   -2.205;    0.000;1553.61503
 700.26; 1550.600;    1.921;    0.000;1548.67873
 700.53; 1542.830;   -0.345;    0.000;1543.17496
 700.79; 1503.370;    2.044;    0.000;1501.32625
 701.06; 1479.510;    1.224;    0.000;1478.28626
 701.32; 1469.740;    3.382;    0.000;1466.35749
 701.59; 1435.600;    0.240;    0.000;1435.35998
 701.85; 1417.830;   -1.337;    0.000;1419.16746
 702.12; 1401.510;   -0.553;    0.000;1402.06251
 702.38; 1396.540;    0.720;    0.000;1395.82004
 702.65; 1367.560;    2.704;    0.000;1364.85631
 702.91; 1370.220;    3.130;    0.000;1367.08997
 703.18; 1337.380;    0.159;    0.000;1337.22125
 703.44; 1301.700;    2.589;    0.000;1299.11120
 703.71; 1291.830;    0.451;    0.000;1291.37871
 703.97; 1274.840;    1.933;    0.000;1272.90747
 704.24; 1246.710;    2.733;    0.000;1243.97746
 704.50; 1223.740;   -1.066;    0.000;1224.80624
 704.76; 1220.560;    0.973;    0.000;1219.58756
 705.03; 1191.760;    3.154;    0.000;1188.60626
 705.29; 1174.370;   -1.855;    0.000;1176.22500
 705.56; 1158.260;    0.824;    0.000;1157.43626
 705.82; 1131.160;    1.599;    0.000;1129.56128
 706.09; 1136.260;    3.196;    0.000;1133.06376
 706.35; 1097.420;   -0.994;    0.000;1098.41379
 706.62; 1086.270;    3.101;    0.000;1083.16877
 706.88; 1069.680;    0.259;    0.000;1069.42130
 707.15; 1051.680;    2.235;    0.000;1049.44505
 707.41; 1032.200;    1.023;    0.000;1031.17745
 707.67; 1010.050;    2.314;    0.000;1007.73624
 707.94; 1027.020;    0.341;    0.000;1026.67877
 708.20;  989.250;    2.445;    0.000;986.80500
 708.47;  963.300;    0.235;    0.000;963.06499
 708.73;  953.200;    1.543;    0.000;951.65751
 709.00;  947.110;    1.543;    0.000;945.56749
 709.26;  925.790;    3.355;    0.000;922.43498
 709.52;  921.120;    1.150;    0.000;919.97000
 709.79;  913.710;    2.364;    0.000;911.34627
 710.05;  887.840;    1.482;    0.000;886.35753
 710.32;  873.400;    2.600;    0.000;870.80002
 710.58;  848.530;   -0.961;    0.000;849.49128
 710.84;  848.160;    3.686;    0.000;844.47372
 711.11;  849.140;    0.292;    0.000;848.84751
 711.37;  838.730;    3.571;    0.000;835.15873
 711.64;  806.890;    1.284;    0.000;805.60626
 711.90;  808.540;    3.639;    0.000;804.90123
 712.16;  802.010;    3.284;    0.000;798.72626
 712.43;  790.000;    1.572;    0.000;788.42750
 712.69;  772.210;    3.364;    0.000;768.84627
 712.96;  775.410;    2.591;    0.000;772.81872
 713.22;  758.720;    1.612;    0.000;757.10747
 713.48;  741.680;    0.123;    0.000;741.55749
 713.75;  743.910;   -1.460;    0.000;745.36997
 714.01;  736.980;    5.713;    0.000;731.26748
 714.27;  722.480;    1.730;    0.000;720.74998
 714.54;  728.090;    2.946;    0.000;725.14378
 714.80;  715.090;    1.184;    0.000;713.90628
 715.06;  704.480;    2.250;    0.000;702.22998
 715.33;  702.950;    1.124;    0.000;701.82626
 715.59;  692.010;    1.466;    0.000;690.54376
 715.86;  673.960;    3.069;    0.000;670.89127
 716.12;  694.930;    1.867;    0.000;693.06249
 716.38;  663.930;    2.986;    0.000;660.94374
 716.65;  671.970;    3.819;    0.000;668.15122
 716.91;  654.870;    0.629;    0.000;654.24125
 717.17;  655.290;    3.425;    0.000;651.86498
 717.44;  659.620;    2.554;    0.000;657.06625
 717.70;  645.290;    3.246;    0.000;642.04373
 717.96;  636.770;    0.561;    0.000;636.20877
 718.23;  643.140;   -0.406;    0.000;643.54626
 718.49;  631.480;    1.106;    0.000;630.37373
 718.75;  631.950;    4.903;    0.000;627.04751
 719.02;  626.270;    0.034;    0.000;626.23627
 719.28;  630.380;    0.564;    0.000;629.81625
 719.54;  604.450;    0.788;    0.000;603.66251
 719.80;  624.750;    2.293;    0.000;622.45750
 720.07;  619.590;   -0.094;    0.000;619.68378
 720.33;  614.970;    1.286;    0.000;613.68372
 720.59;  596.940;    1.628;    0.000;595.31250
 720.86;  590.570;   -1.405;    0.000;591.97501
 721.12;  595.910;    1.731;    0.000;594.17872
 721.38;  598.790;    4.088;    0.000;594.70248
 721.65;  591.790;   -0.108;    0.000;591.89748
 721.91;  602.670;   -0.026;    0.000;602.69623
 722.17;  568.570;   -0.304;    0.000;568.87376
 722.43;  578.860;    3.338;    0.000;575.52249
 722.70;  583.690;    0.495;    0.000;583.19500
 722.96;  582.810;    4.814;    0.000;577.99625
 723.22;  573.660;    2.186;    0.000;571.47372
 723.48;  566.610;    3.430;    0.000;563.17999
 723.75;  556.930;    2.215;    0.000;554.71499
 724.01;  566.230;    1.500;    0.000;564.72998
 724.27;  571.360;   -0.826;    0.000;572.18624
 724.54;  565.770;    2.814;    0.000;562.95627
 724.80;  561.700;   -1.109;    0.000;562.80876
 725.06;  567.150;    3.160;    0.000;563.99002
 725.32;  565.670;    2.344;    0.000;563.32623
 725.59;  558.030;    1.226;    0.000;556.80378
 725.85;  563.000;    2.034;    0.000;560.96625
 726.11;  560.750;    2.994;    0.000;557.75625
 726.37;  554.800;    3.204;    0.000;551.59624
 726.64;  569.850;    2.474;    0.000;567.37623
 726.90;  564.330;    3.596;    0.000;560.73377
 727.16;  566.340;    0.375;    0.000;565.96503
 727.42;  547.050;    0.449;    0.000;546.60124
 727.68;  546.730;    0.172;    0.000;546.55748
 727.95;  546.450;    2.132;    0.000;544.31751
 728.21;  548.600;    3.517;    0.000;545.08248
 728.47;  555.070;   -0.545;    0.000;555.61501
 728.73;  546.490;    3.100;    0.000;543.38999
 729.00;  534.990;    0.755;    0.000;534.23499
 729.26;  555.870;    0.587;    0.000;555.28250
 729.52;  536.270;   -0.405;    0.000;536.67502
 729.78;  521.420;   -2.089;    0.000;523.50873
 730.04;  533.400;    4.343;    0.000;529.05752
 730.31;  527.950;    3.566;    0.000;524.38376
 730.57;  530.880;    4.318;    0.000;526.56250
 730.83;  523.300;    2.994;    0.000;520.30624
 731.09;  535.410;   -0.604;    0.000;536.01372
 731.35;  514.540;    2.505;    0.000;512.03498
 731.62;  510.340;    0.100;    0.000;510.24000
 731.88;  516.610;    1.690;    0.000;514.91999
 732.14;  499.980;   -1.254;    0.000;501.23376
 732.40;  510.860;    3.940;    0.000;506.91999
 732.66;  507.770;    1.069;    0.000;506.70124
 732.92;  498.890;    2.316;    0.000;496.57376
 733.19;  500.070;    1.539;    0.000;498.53126
 733.45;  504.250;    5.839;    0.000;498.41125
 733.71;  496.020;    1.001;    0.000;495.01874
 733.97;  513.620;    3.849;    0.000;509.77125
 734.23;  486.730;   -2.451;    0.000;489.18126
 734.49;  492.010;    3.328;    0.000;488.68251
 734.76;  485.720;    1.984;    0.000;483.73625
 735.02;  486.870;    1.000;    0.000;485.87000
 735.28;  474.730;    1.494;    0.000;473.23626
 735.54;  476.040;    2.599;    0.000;473.44126
 735.80;  464.000;    3.059;    0.000;460.94125
 736.06;  484.170;    1.774;    0.000;482.39626
 736.32;  451.330;   -0.745;    0.000;452.07499
 736.59;  456.810;    1.776;    0.000;455.03375
 736.85;  462.210;    2.046;    0.000;460.16374
 737.11;  454.930;    1.040;    0.000;453.88999
 737.37;  443.110;   -0.538;    0.000;443.64749
 737.63;  451.130;    2.409;    0.000;448.72125
 737.89;  431.810;   -0.147;    0.000;431.95750
 738.15;  441.590;    2.342;    0.000;439.24750
 738.41;  423.510;   -1.143;    0.000;424.65251
 738.67;  427.420;    0.023;    0.000;427.39751
 738.94;  420.780;   -1.278;    0.000;422.05750
 739.20;  417.970;   -0.135;    0.000;418.10500
 739.46;  425.640;    1.821;    0.000;423.81876
 739.72;  410.440;    2.342;    0.000;408.09750
 739.98;  393.070;   -0.039;    0.000;393.10876
 740.24;  413.140;    1.996;    0.000;411.14376
 740.50;  406.390;    2.144;    0.000;404.24626
 740.76;  408.650;    4.496;    0.000;404.15374
 741.02;  393.670;    2.037;    0.000;391.63251
 741.28;  399.330;    4.015;    0.000;395.31499
 741.54;  386.760;    2.483;    0.000;384.27751
 741.81;  382.330;    3.010;    0.000;379.31999
 742.07;  378.120;    1.163;    0.000;376.95750
 742.33;  391.160;    2.645;    0.000;388.51500
 742.59;  376.550;    1.821;    0.000;374.72874
 742.85;  377.070;    0.298;    0.000;376.77251
 743.11;  359.610;    1.705;    0.000;357.90499
 743.37;  361.550;    0.685;    0.000;360.86499
 743.63;  347.590;    4.071;    0.000;343.51875
 743.89;  357.990;    4.113;    0.000;353.87749
 744.15;  348.510;    0.405;    0.000;348.10501
 744.41;  338.740;   -1.540;    0.000;340.27999
 744.67;  339.360;    1.661;    0.000;337.69874
 744.93;  332.410;    0.085;    0.000;332.32500
 745.19;  340.910;    2.245;    0.000;338.66500
 745.45;  326.810;    0.485;    0.000;326.32500
 745.71;  325.190;    1.388;    0.000;323.80250
 745.97;  324.210;    1.060;    0.000;323.14999
 746.23;  303.540;    1.283;    0.000;302.25751
 746.49;  306.470;    3.820;    0.000;302.65000
 746.75;  300.080;    3.335;    0.000;296.74499
 747.02;  306.390;    1.569;    0.000;304.82126
 747.28;  283.760;   -0.540;    0.000;284.30001
 747.54;  294.430;    2.818;    0.000;291.61249
 747.80;  300.040;   -1.074;    0.000;301.11376
 748.06;  286.470;   -5.407;    0.000;291.87750
 748.32;  281.470;    3.335;    0.000;278.13500
 748.58;  292.080;    4.275;    0.000;287.80499
 748.84;  282.860;    1.499;    0.000;281.36124
 749.10;  357.670;    9.339;    0.000;348.33126
 749.36;  270.850;    2.190;    0.000;268.66001
 749.62;  265.370;    2.432;    0.000;262.93750
 749.88;  252.570;    1.871;    0.000;250.69876
 750.14;  246.180;    3.449;    0.000;242.73124
 750.40;  259.640;   -1.523;    0.000;261.16251
 750.66;  265.510;    5.100;    0.000;260.41001
 750.91;  255.920;    1.121;    0.000;254.79875
 751.17;  232.520;    4.999;    0.000;227.52125
 751.43;  225.950;   -1.806;    0.000;227.75625
 751.69;  238.790;    4.175;    0.000;234.61499
 751.95;  233.120;    1.244;    0.000;231.87625
 752.21;  233.370;    2.675;    0.000;230.69500
 752.47;  221.820;    1.139;    0.000;220.68126
 752.73;  227.960;    3.609;    0.000;224.35126
 752.99;  207.500;   -0.211;    0.000;207.71125
 753.25;  217.740;    2.358;    0.000;215.38251
 753.51;  208.880;    1.201;    0.000;207.67875
 753.77;  212.620;    1.548;    0.000;211.07250
 754.03;  206.650;    0.859;    0.000;205.79124
 754.29;  206.370;    1.796;    0.000;204.57375
 754.55;  205.060;    3.635;    0.000;201.42500
 754.81;  197.690;    2.146;    0.000;195.54375
 755.07;  193.160;    0.389;    0.000;192.77125
 755.33;  200.660;    2.674;    0.000;197.98625
 755.59;  187.850;    1.291;    0.000;186.55876
 755.85;  177.760;    1.286;    0.000;176.47374
 756.10;  181.780;    2.474;    0.000;179.30625
 756.36;  175.650;    1.336;    0.000;174.31374
 756.62;  178.650;    1.236;    0.000;177.41374
 756.88;  180.190;    1.444;    0.000;178.74625
 757.14;  180.450;    1.900;    0.000;178.55000
 757.40;  182.560;    3.004;    0.000;179.55625
 757.66;  166.670;    2.839;    0.000;163.83125
 757.92;  166.550;    2.434;    0.000;164.11625
 758.18;  158.560;    1.880;    0.000;156.68000
 758.44;  165.910;    1.215;    0.000;164.69500
 758.70;  155.680;    1.508;    0.000;154.17249
 758.95;  168.850;   -0.256;    0.000;169.10626
 759.21;  140.990;    0.169;    0.000;140.82126
 759.47;  158.190;    4.939;    0.000;153.25125
 759.73;  140.100;    0.292;    0.000;139.80751
 759.99;  145.300;    3.420;    0.000;141.88000
 760.25;  136.730;    0.416;    0.000;136.31375
 760.51;  143.750;   -0.933;    0.000;144.68250
 760.77;  137.320;    3.746;    0.000;133.57376
 761.02;  153.570;    3.771;    0.000;149.79876
 761.28;  136.170;    1.756;    0.000;134.41375
 761.54;  139.410;    3.152;    0.000;136.25750
 761.80;  126.030;    2.394;    0.000;123.63625
 762.06;  145.630;    2.415;    0.000;143.21500
 762.32;  129.980;   -0.226;    0.000;130.20625
 762.58;  137.460;    0.177;    0.000;137.28251
 762.83;  145.230;    2.280;    0.000;142.95000
 763.09;  129.160;    4.425;    0.000;124.73500
 763.35;  115.030;    2.086;    0.000;112.94375
 763.61;  128.310;    3.421;    0.000;124.88875
 763.87;  130.310;    2.898;    0.000;127.41250
 764.13;  119.730;    2.771;    0.000;116.95875
 764.38;  119.300;    0.603;    0.000;118.69750
 764.64;  112.360;    0.809;    0.000;111.55125
 764.90;  115.450;    2.140;    0.000;113.31000
 765.16;  117.680;    2.909;    0.000;114.77125
 765.42;  117.640;    1.378;    0.000;116.26250
 765.68;  111.940;    1.506;    0.000;110.43375
 765.93;  101.070;    0.826;    0.000;100.24375
 766.19;  118.180;    1.595;    0.000;116.58500
 766.45;   92.350;    3.033;    0.000;89.31750
 766.71;  113.690;    1.970;    0.000;111.72000
 766.97;   98.510;    1.930;    0.000;96.58000
 767.22;  105.180;    0.001;    0.000;105.17875
 767.48;   93.970;    2.169;    0.000;91.80125
 767.74;  105.750;    3.239;    0.000;102.51125
 768.00;   94.620;    0.127;    0.000;94.49250
 768.26;   88.700;    2.041;    0.000;86.65875
 768.51;   89.030;    1.921;    0.000;87.10875
 768.77;  110.310;    2.866;    0.000;107.44375
 769.03;   94.340;    1.215;    0.000;93.12500
 769.29;   90.990;    3.609;    0.000;87.38125
 769.54;   81.920;   -1.861;    0.000;83.78125
 769.80;   89.090;    1.023;    0.000;88.06750
 770.06;   84.880;   -2.848;    0.000;87.72750
 770.32;   91.020;    3.336;    0.000;87.68375
 770.57;   80.650;    3.290;    0.000;77.36000
 770.83;   85.550;    2.001;    0.000;83.54875
 771.09;   78.270;    0.305;    0.000;77.96500
 771.35;   82.600;   -0.986;    0.000;83.58625
 771.61;   72.240;    3.224;    0.000;69.01625
 771.86;   91.190;    2.035;    0.000;89.15500
 772.12;   76.140;    2.678;    0.000;73.46250
 772.38;   82.390;    2.819;    0.000;79.57125
 772.63;   75.520;    2.169;    0.000;73.35125
 772.89;   76.120;    1.089;    0.000;75.03125
 773.15;   76.270;    3.095;    0.000;73.17500
 773.41;   75.690;    2.499;    0.000;73.19125
 773.66;   74.050;    2.453;    0.000;71.59750
 773.92;   75.240;    2.392;    0.000;72.84750
 774.18;   83.530;    0.616;    0.000;82.91375
 774.44;   69.820;    2.901;    0.000;66.91875
 774.69;   78.110;    2.365;    0.000;75.74500
 774.95;   74.210;    1.592;    0.000;72.61750
 775.21;   76.760;    3.401;    0.000;73.35875
 775.46;   58.060;    2.118;    0.000;55.94250
 775.72;   62.360;   -0.757;    0.000;63.11750
 775.98;   70.210;    2.870;    0.000;67.34000
 776.24;   56.770;    0.654;    0.000;56.11625
 776.49;   71.840;    0.461;    0.000;71.37875
 776.75;   68.140;   -0.097;    0.000;68.23750
 777.01;   55.020;    2.346;    0.000;52.67375
 777.26;   66.520;   -0.501;    0.000;67.02125
 777.52;   61.010;    3.513;    0.000;57.49750
 777.78;   63.950;    2.825;    0.000;61.12500
 778.03;   67.160;    4.813;    0.000;62.34750
 778.29;   54.000;   -1.135;    0.000;55.13500
 778.55;   62.070;    4.461;    0.000;57.60875
 778.80;   53.490;    4.707;    0.000;48.78250
 779.06;   47.800;    1.582;    0.000;46.21750
 779.32;   49.620;   -1.487;    0.000;51.10750
 779.57;   47.920;    5.735;    0.000;42.18500
 779.83;   50.130;    0.904;    0.000;49.22625
 780.09;   53.780;    4.139;    0.000;49.64125
 780.34;   46.240;    2.516;    0.000;43.72375
 780.60;   62.450;    5.276;    0.000;57.17375
 780.86;   53.270;    1.526;    0.000;51.74375
 781.11;   46.020;    2.318;    0.000;43.70250
 781.37;   36.040;    0.714;    0.000;35.32625
 781.63;   56.060;    0.601;    0.000;55.45875
 781.88;   36.660;    0.507;    0.000;36.15250
 782.14;   47.650;    2.296;    0.000;45.35375
 782.39;   40.020;    1.691;    0.000;38.32875
 782.65;   40.980;    0.065;    0.000;40.91500
 782.91;   44.930;    2.026;    0.000;42.90375
 783.16;   39.600;    1.395;    0.000;38.20500
 783.42;   21.880;    0.733;    0.000;21.14750
 783.67;   44.810;    2.081;    0.000;42.72875
 783.93;   31.660;    0.939;    0.000;30.72125
 784.19;   32.170;    1.356;    0.000;30.81375
 784.44;   39.500;    2.641;    0.000;36.85875
 784.70;   42.270;    3.922;    0.000;38.34750
 784.96;   33.360;   -0.010;    0.000;33.37000
 785.21;   38.120;    0.863;    0.000;37.25750
 785.47;   51.360;    1.643;    0.000;49.71750
 785.72;   25.650;    0.114;    0.000;25.53625
 785.98;   25.210;   -0.705;    0.000;25.91500
 786.23;   30.030;    1.793;    0.000;28.23750
 786.49;   28.320;    0.989;    0.000;27.33125
 786.75;   28.970;    3.019;    0.000;25.95125
 787.00;   21.560;    0.529;    0.000;21.03125
 787.26;   23.780;    1.590;    0.000;22.19000
 787.51;   27.310;    0.141;    0.000;27.16875
 787.77;   41.080;    1.200;    0.000;39.88000
 788.02;   35.870;    1.789;    0.000;34.08125
 788.28;   17.590;    0.800;    0.000;16.79000
 788.54;   25.250;   -0.199;    0.000;25.44875
 788.79;   35.010;    0.516;    0.000;34.49375
 789.05;   20.290;    3.386;    0.000;16.90375
 789.30;   25.270;    5.298;    0.000;19.97250
 789.56;   13.950;    1.327;    0.000;12.62250
 789.81;   18.220;    2.234;    0.000;15.98625
 790.07;   17.440;   -0.301;    0.000;17.74125
 790.32;   25.880;    1.149;    0.000;24.73125
 790.58;   19.020;    1.655;    0.000;17.36500
 790.83;   18.990;    5.036;    0.000;13.95375
 791.09;    8.400;    0.239;    0.000; 8.16125
 791.35;   12.080;    0.884;    0.000;11.19625
 791.60;    8.660;    1.294;    0.000; 7.36625
 791.86;   13.920;    3.580;    0.000;10.34000
 792.11;   20.480;    0.661;    0.000;19.81875
 792.37;   10.290;    2.549;    0.000; 7.74125
 792.62;   13.910;    2.610;    0.000;11.30000
 792.88;   17.530;    2.671;    0.000;14.85875
 793.13;    5.310;    1.554;    0.000; 3.75625
 793.39;   14.550;    2.964;    0.000;11.58625
 793.64;    8.380;    1.725;    0.000; 6.65500
 793.90;    8.070;    0.824;    0.000; 7.24625
 794.15;   11.560;    4.068;    0.000; 7.49250
 794.41;   12.810;    2.352;    0.000;10.45750
 794.66;   19.430;    1.508;    0.000;17.92250
 794.92;    9.790;    4.101;    0.000; 5.68875
 795.17;    1.130;   -0.748;    0.000; 1.87750
 795.43;   -2.040;    2.310;    0.000;-4.35000
 795.68;    9.940;    1.050;    0.000; 8.89000
 795.94;    7.040;    2.206;    0.000; 4.83375
 796.19;   10.650;    2.890;    0.000; 7.76000
 796.44;    7.080;    2.810;    0.000; 4.27000
 796.70;    4.490;   -0.166;    0.000; 4.65625
 796.95;    5.910;    4.159;    0.000; 1.75125
 797.21;    6.400;    0.479;    0.000; 5.92125
 797.46;    3.430;   -2.271;    0.000; 5.70125
 797.72;   -3.210;   -0.439;    0.000;-2.77125
 797.97;   -7.160;    0.895;    0.000;-8.05500
 798.23;  -10.450;    5.259;    0.000;-15.70875
 798.48;    5.140;    0.045;    0.000; 5.09500
 798.74;  -11.210;    0.639;    0.000;-11.84875
 798.99;   -4.720;    2.686;    0.000;-7.40625
 799.24;   -2.820;    3.122;    0.000;-5.94250
 799.50;    0.530;    1.000;    0.000;-0.47000
 799.75;   -6.900;   -0.770;    0.000;-6.13000
 800.01;   -9.120;   -0.245;    0.000;-8.87500
 800.26;  -14.130;   -0.215;    0.000;-13.91500
 800.52;   -6.760;    2.511;    0.000;-9.27125
 800.77;  -14.310;    2.716;    0.000;-17.02625
 801.02;   -5.200;    1.580;    0.000;-6.78000
 801.28;  -10.720;   -0.673;    0.000;-10.04750
 801.53;    5.540;    0.356;    0.000; 5.18375
 801.79;   -4.440;    3.321;    0.000;-7.76125
 802.04;   -0.150;    1.775;    0.000;-1.92500
 802.29;   -2.680;    1.541;    0.000;-4.22125
 802.55;   -3.050;   -0.161;    0.000;-2.88875
 802.80;    1.510;    1.750;    0.000;-0.24000
 803.06;    2.090;    1.202;    0.000; 0.88750
 803.31;  -12.910;    2.051;    0.000;-14.96125
 803.56;   -9.050;    1.589;    0.000;-10.63875
 803.82;  -17.310;    1.819;    0.000;-19.12875
 804.07;   -9.460;    1.121;    0.000;-10.58125
 804.32;   -6.360;    2.470;    0.000;-8.83000
 804.58;  -11.220;    0.745;    0.000;-11.96500
 804.83;  -19.370;    2.861;    0.000;-22.23125
 805.09;   -7.170;    2.116;    0.000;-9.28625
 805.34;  -11.650;    2.130;    0.000;-13.78000
 805.59;   -7.950;    1.832;    0.000;-9.78250
 805.85;  -21.590;    2.691;    0.000;-24.28125
 806.10;  -16.510;    4.224;    0.000;-20.73375
 806.35;   -2.640;    1.335;    0.000;-3.97500
 806.61;   -3.960;    3.255;    0.000;-7.21500
 806.86;  -21.070;    2.753;    0.000;-23.82250
 807.11;   -1.240;    2.922;    0.000;-4.16250
 807.37;   -7.750;    2.905;    0.000;-10.65500
 807.62;  -16.720;    1.607;    0.000;-18.32750
 807.87;  -16.050;    6.104;    0.000;-22.15375
 808.13;  -15.520;    0.795;    0.000;-16.31500
 808.38;  -17.850;   -0.554;    0.000;-17.29625
 808.63;  -14.860;    4.699;    0.000;-19.55875
 808.89;  -22.250;   -1.511;    0.000;-20.73875
 809.14;  -16.410;    1.401;    0.000;-17.81125
 809.39;  -26.390;   -2.053;    0.000;-24.33750
 809.65;  -20.120;    1.450;    0.000;-21.57000
 809.90;  -17.420;    3.850;    0.000;-21.27000
 810.15;  -13.740;    2.366;    0.000;-16.10625
 810.41;  -16.060;    0.111;    0.000;-16.17125
 810.66;  -18.320;    1.721;    0.000;-20.04125
 810.91;  -19.020;    0.284;    0.000;-19.30375
 811.16;  -30.770;    3.254;    0.000;-34.02375
 811.42;  -18.430;    1.806;    0.000;-20.23625
 811.67;  -29.050;    5.146;    0.000;-34.19625
 811.92;  -23.060;    1.339;    0.000;-24.39875
 812.18;  -17.100;    3.764;    0.000;-20.86375
 812.43;  -24.190;    0.262;    0.000;-24.45250
 812.68;  -22.910;   -0.415;    0.000;-22.49500
 812.93;  -26.020;   -0.444;    0.000;-25.57625
 813.19;  -18.600;    3.415;    0.000;-22.01500
 813.44;  -27.740;   -0.468;    0.000;-27.27250
 813.69;  -10.540;    3.735;    0.000;-14.27500
 813.95;  -21.340;    0.120;    0.000;-21.46000
 814.20;  -19.900;    1.482;    0.000;-21.38250
 814.45;  -30.340;    1.362;    0.000;-31.70250
 814.70;  -25.030;    2.450;    0.000;-27.48000
 814.96;  -36.220;    1.610;    0.000;-37.83000
 815.21;  -20.180;    0.421;    0.000;-20.60125
 815.46;  -43.440;    3.360;    0.000;-46.80000
 815.71;  -23.540;    1.746;    0.000;-25.28625
 815.96;  -27.030;    1.210;    0.000;-28.24000
 816.22;  -26.010;    3.869;    0.000;-29.87875
 816.47;  -24.730;    1.704;    0.000;-26.43375
 816.72;  -20.760;    2.375;    0.000;-23.13500
 816.97;  -21.720;    0.006;    0.000;-21.72625
 817.23;  -18.520;    2.188;    0.000;-20.70750
 817.48;  -25.120;    0.579;    0.000;-25.69875
 817.73;  -25.480;    1.298;    0.000;-26.77750
 817.98;  -24.190;    4.060;    0.000;-28.25000
 818.23;  -27.620;    2.849;    0.000;-30.46875
 818.49;  -29.330;    2.114;    0.000;-31.44375
 818.74;  -16.280;    3.495;    0.000;-19.77500
 818.99;  -26.440;    3.039;    0.000;-29.47875
 819.24;  -17.390;    4.864;    0.000;-22.25375
 819.50;  -35.790;   -0.814;    0.000;-34.97625
 819.75;  -17.990;    1.827;    0.000;-19.81750
 820.00;   -6.110;    2.721;    0.000;-8.83125
 820.25;  -27.800;    2.957;    0.000;-30.75750
 820.50;  -37.810;    0.806;    0.000;-38.61625
 820.75;  -19.430;    2.321;    0.000;-21.75125
 821.01;  -28.780;   -0.526;    0.000;-28.25375
 821.26;  -31.230;    2.589;    0.000;-33.81875
 821.51;  -34.320;    1.920;    0.000;-36.24000
 821.76;  -25.180;    2.214;    0.000;-27.39375
 822.01;  -26.900;    2.021;    0.000;-28.92125
 822.26;  -26.080;    2.135;    0.000;-28.21500
 822.52;  -21.880;    0.341;    0.000;-22.22125
 822.77;  -32.000;    2.754;    0.000;-34.75375
 823.02;  -32.790;    3.078;    0.000;-35.86750
 823.27;  -31.330;    2.414;    0.000;-33.74375
 823.52;  -37.820;   -1.496;    0.000;-36.32375
 823.77;  -30.330;    2.965;    0.000;-33.29500
 824.03;  -19.460;   -1.638;    0.000;-17.82250
 824.28;  -37.480;    1.317;    0.000;-38.79750
 824.53;  -38.930;    1.336;    0.000;-40.26625
 824.78;  -21.230;    0.855;    0.000;-22.08500
 825.03;  -41.340;    2.570;    0.000;-43.91000
 825.28;  -31.480;    2.166;    0.000;-33.64625
 825.53;  -36.450;    2.836;    0.000;-39.28625
 825.78;  -26.080;    2.856;    0.000;-28.93625
 826.04;  -33.330;   -0.415;    0.000;-32.91500
 826.29;  -37.970;    0.965;    0.000;-38.93500
 826.54;  -38.410;    0.800;    0.000;-39.21000
 826.79;  -21.330;    0.228;    0.000;-21.55750
 827.04;  -42.420;    2.715;    0.000;-45.13500
 827.29;  -28.810;    2.820;    0.000;-31.63000
 827.54;  -38.280;    1.196;    0.000;-39.47625
 827.79;  -38.870;    0.577;    0.000;-39.44750
 828.04;  -26.710;    1.154;    0.000;-27.86375
 828.29;  -31.970;    2.582;    0.000;-34.55250
 828.55;  -38.460;    0.469;    0.000;-38.92875
 828.80;  -27.700;    3.072;    0.000;-30.77250
 829.05;  -40.370;    0.731;    0.000;-41.10125
 829.30;  -39.750;    2.580;    0.000;-42.33000
 829.55;  -36.520;    0.910;    0.000;-37.43000
 829.80;  -30.830;    4.061;    0.000;-34.89125
 830.05;  -45.070;   -0.123;    0.000;-44.94750
 830.30;  -38.160;    2.500;    0.000;-40.66000
 830.55;  -31.570;    1.209;    0.000;-32.77875
 830.80;  -30.400;    0.980;    0.000;-31.38000
 831.05;  -35.770;    1.500;    0.000;-37.27000
 831.30;  -24.050;    2.391;    0.000;-26.44125
 831.55;  -35.600;    2.223;    0.000;-37.82250
 831.80;  -39.170;    2.836;    0.000;-42.00625
 832.05;  -32.560;    1.240;    0.000;-33.80000
 832.30;  -24.510;    2.408;    0.000;-26.91750
 832.56;  -45.080;    2.081;    0.000;-47.16125
 832.81;  -41.810;    1.378;    0.000;-43.18750
 833.06;  -36.460;    4.117;    0.000;-40.57750
 833.31;  -36.060;    2.487;    0.000;-38.54750
 833.56;  -35.870;    0.243;    0.000;-36.11250
 833.81;  -40.340;    2.466;    0.000;-42.80625
 834.06;  -41.380;    1.622;    0.000;-43.00250
 834.31;  -35.460;    3.581;    0.000;-39.04125
 834.56;  -42.190;    4.500;    0.000;-46.69000
 834.81;  -40.160;    1.409;    0.000;-41.56875
 835.06;  -43.750;    0.406;    0.000;-44.15625
 835.31;  -35.610;    3.463;    0.000;-39.07250
 835.56;  -27.890;   -0.016;    0.000;-27.87375
 835.81;  -34.990;    2.260;    0.000;-37.25000
 836.06;  -30.610;    1.614;    0.000;-32.22375
 836.31;  -46.420;    2.148;    0.000;-48.56750
 836.56;  -42.880;    3.629;    0.000;-46.50875
 836.81;  -36.350;    2.047;    0.000;-38.39750
 837.06;  -35.310;    0.816;    0.000;-36.12625
 837.31;  -44.910;    1.456;    0.000;-46.36625
 837.56;  -46.260;    1.783;    0.000;-48.04250
 837.81;  -35.640;    2.975;    0.000;-38.61500
 838.06;  -43.660;    4.039;    0.000;-47.69875
 838.31;  -49.300;    0.147;    0.000;-49.44750
 838.56;  -56.760;    1.841;    0.000;-58.60125
 838.80;  -41.470;    2.314;    0.000;-43.78375
 839.05;  -48.190;    1.386;    0.000;-49.57625
 839.30;  -45.190;    0.001;    0.000;-45.19125
 839.55;  -46.830;    0.301;    0.000;-47.13125
 839.80;  -37.980;    3.539;    0.000;-41.51875
 840.05;  -52.620;    1.010;    0.000;-53.63000
 840.30;  -36.650;    4.226;    0.000;-40.87625
 840.55;  -47.000;    1.514;    0.000;-48.51375
 840.80;  -42.070;    4.875;    0.000;-46.94500
 841.05;  -47.740;    0.784;    0.000;-48.52375
 841.30;  -39.090;    3.494;    0.000;-42.58375
 841.55;  -53.030;   -0.995;    0.000;-52.03500
 841.80;  -50.520;    1.559;    0.000;-52.07875
 842.05;  -59.760;   -1.285;    0.000;-58.47500
 842.30;  -50.690;    2.414;    0.000;-53.10375
 842.55;  -44.120;    1.058;    0.000;-45.17750
 842.79;  -57.780;    1.925;    0.000;-59.70500
 843.04;  -37.160;    0.854;    0.000;-38.01375
 843.29;  -39.420;    2.419;    0.000;-41.83875
 843.54;  -47.580;    4.284;    0.000;-51.86375
 843.79;  -49.210;    1.813;    0.000;-51.02250
 844.04;  -40.890;    4.705;    0.000;-45.59500
 844.29;  -43.160;    2.770;    0.000;-45.93000
 844.54;  -46.960;    1.173;    0.000;-48.13250
 844.79;  -47.360;    3.172;    0.000;-50.53250
 845.04;  -42.050;   -1.031;    0.000;-41.01875
 845.28;  -49.180;    3.310;    0.000;-52.49000
 845.53;  -47.320;    1.750;    0.000;-49.07000
 845.78;  -36.490;    1.957;    0.000;-38.44750
 846.03;  -50.610;    1.346;    0.000;-51.95625
 846.28;  -56.700;    2.110;    0.000;-58.81000
 846.53;  -40.480;    0.154;    0.000;-40.63375
 846.78;  -40.160;    4.660;    0.000;-44.82000
 847.02;  -42.390;    2.714;    0.000;-45.10375
 847.27;  -43.290;    1.837;    0.000;-45.12750
 847.52;  -52.660;    3.047;    0.000;-55.70750
 847.77;  -45.190;    3.314;    0.000;-48.50375
 848.02;  -54.190;   -0.440;    0.000;-53.75000
 848.27;  -49.590;    3.787;    0.000;-53.37750
 848.52;  -50.340;    2.264;    0.000;-52.60375
 848.76;  -43.970;    0.844;    0.000;-44.81375
 849.01;  -47.410;    2.570;    0.000;-49.98000
 849.26;  -55.200;    0.859;    0.000;-56.05875
 849.51;  -43.280;    3.328;    0.000;-46.60750
 849.76;  -50.030;    1.469;    0.000;-51.49875
 850.01;  -58.040;    0.701;    0.000;-58.74125
 850.25;  -51.140;    0.585;    0.000;-51.72500
 850.50;  -65.540;    0.848;    0.000;-66.38750
 850.75;  -52.830;    1.875;    0.000;-54.70500
 851.00;  -53.070;   -0.499;    0.000;-52.57125
 851.25;  -52.570;    3.796;    0.000;-56.36625
 851.49;  -51.740;    3.533;    0.000;-55.27250
 851.74;  -55.230;   -0.102;    0.000;-55.12750
 851.99;  -47.400;    2.578;    0.000;-49.97750
 852.24;  -58.000;    0.231;    0.000;-58.23125
 852.49;  -59.440;    0.465;    0.000;-59.90500
 852.73;  -57.760;    2.121;    0.000;-59.88125
 852.98;  -56.250;    0.601;    0.000;-56.85125
 853.23;  -48.390;    4.595;    0.000;-52.98500
 853.48;  -61.070;   -0.339;    0.000;-60.73125
 853.73;  -53.500;    1.725;    0.000;-55.22500
 853.97;  -62.220;    1.999;    0.000;-64.21875
 854.22;  -60.330;    2.446;    0.000;-62.77625
 854.47;  -63.130;    2.151;    0.000;-65.28125
 854.72;  -55.850;    1.765;    0.000;-57.61500
 854.96;  -56.760;    2.703;    0.000;-59.46250
 855.21;  -48.990;    1.244;    0.000;-50.23375
 855.46;  -47.490;    0.944;    0.000;-48.43375
 855.71;  -63.150;    0.262;    0.000;-63.41250
 855.95;  -57.020;    2.922;    0.000;-59.94250
 856.20;  -56.600;    2.591;    0.000;-59.19125
 856.45;  -57.440;    1.355;    0.000;-58.79500
 856.70;  -57.500;    4.641;    0.000;-62.14125
 856.94;  -57.960;    1.589;    0.000;-59.54875
 857.19;  -47.270;    2.404;    0.000;-49.67375
 857.44;  -55.580;    1.933;    0.000;-57.51250
 857.69;  -54.970;    5.104;    0.000;-60.07375
 857.93;  -58.500;    3.511;    0.000;-62.01125
 858.18;  -54.290;    1.986;    0.000;-56.27625
 858.43;  -52.980;   -0.159;    0.000;-52.82125
 858.67;  -38.340;    5.415;    0.000;-43.75500
 858.92;  -56.680;    1.999;    0.000;-58.67875
 859.17;  -43.020;    4.201;    0.000;-47.22125
 859.42;  -60.720;    0.545;    0.000;-61.26500
 859.66;  -61.050;    3.158;    0.000;-64.20750
 859.91;  -57.700;   -0.270;    0.000;-57.43000
 860.16;  -62.860;    1.684;    0.000;-64.54375
 860.40;  -58.120;    1.197;    0.000;-59.31750
 860.65;  -61.510;    1.515;    0.000;-63.02500
 860.90;  -62.830;   -0.985;    0.000;-61.84500
 861.14;  -63.900;    0.160;    0.000;-64.06000
 861.39;  -66.620;    0.465;    0.000;-67.08500
 861.64;  -48.000;    3.563;    0.000;-51.56250
 861.88;  -67.940;    3.859;    0.000;-71.79875
 862.13;  -59.850;    2.254;    0.000;-62.10375
 862.38;  -67.070;    0.489;    0.000;-67.55875
 862.62;  -54.920;    1.619;    0.000;-56.53875
 862.87;  -59.590;    0.080;    0.000;-59.67000
 863.12;  -62.460;    0.527;    0.000;-62.98750
 863.36;  -57.740;    3.011;    0.000;-60.75125
 863.61;  -60.680;    2.111;    0.000;-62.79125
 863.86;  -66.740;    0.804;    0.000;-67.54375
 864.10;  -57.610;    2.416;    0.000;-60.02625
 864.35;  -60.420;    1.164;    0.000;-61.58375
 864.60;  -60.210;    0.605;    0.000;-60.81500
 864.84;  -62.030;    1.896;    0.000;-63.92625
 865.09;  -57.320;    2.196;    0.000;-59.51625
 865.33;  -64.530;    3.348;    0.000;-67.87750
 865.58;  -66.150;    3.236;    0.000;-69.38625
 865.83;  -64.660;    2.321;    0.000;-66.98125
 866.07;  -56.900;    2.855;    0.000;-59.75500
 866.32;  -33.360;    2.915;    0.000;-36.27500
 866.57;  -44.670;   -1.800;    0.000;-42.87000
 866.81;  -60.780;    1.764;    0.000;-62.54375
 867.06;  -57.400;   -0.352;    0.000;-57.04750
 867.30;  -69.710;   -0.220;    0.000;-69.49000
 867.55;  -55.940;    1.786;    0.000;-57.72625
 867.80;  -54.720;    2.810;    0.000;-57.53000
 868.04;  -56.970;    4.080;    0.000;-61.05000
 868.29;  -65.430;    3.003;    0.000;-68.43250
 868.53;  -54.920;    3.311;    0.000;-58.23125
 868.78;  -66.950;   -0.996;    0.000;-65.95375
 869.03;  -55.720;    2.876;    0.000;-58.59625
 869.27;  -61.570;    2.398;    0.000;-63.96750
 869.52;  -60.280;    3.370;    0.000;-63.65000
 869.76;  -59.030;    2.531;    0.000;-61.56125
 870.01;  -61.380;    3.679;    0.000;-65.05875
 870.25;  -49.050;    3.981;    0.000;-53.03125
 870.50;  -53.090;    2.935;    0.000;-56.02500
 870.75;  -66.870;    0.636;    0.000;-67.50625
 870.99;  -48.510;    0.940;    0.000;-49.45000
 871.24;  -58.230;    0.904;    0.000;-59.13375
 871.48;  -50.260;    5.313;    0.000;-55.57250
 871.73;  -56.560;    2.930;    0.000;-59.49000
 871.97;  -60.680;    2.589;    0.000;-63.26875
 872.22;  -72.750;    3.342;    0.000;-76.09250
 872.46;  -61.790;    2.088;    0.000;-63.87750
 872.71;  -70.730;    0.244;    0.000;-70.97375
 872.95;  -62.790;    2.320;    0.000;-65.11000
 873.20;  -54.370;    2.894;    0.000;-57.26375
 873.44;  -56.590;    4.470;    0.000;-61.06000
 873.69;  -70.220;    2.315;    0.000;-72.53500
 873.94;  -57.430;    3.934;    0.000;-61.36375
 874.18;  -64.170;    1.847;    0.000;-66.01750
 874.43;  -55.200;    2.386;    0.000;-57.58625
 874.67;  -61.760;   -0.515;    0.000;-61.24500
 874.92;  -49.100;    1.961;    0.000;-51.06125
 875.16;  -62.680;    4.129;    0.000;-66.80875
 875.41;  -58.900;    0.016;    0.000;-58.91625
 875.65;  -60.380;   -0.228;    0.000;-60.15250
 875.90;  -47.630;    5.189;    0.000;-52.81875
 876.14;  -67.660;    2.056;    0.000;-69.71625
 876.39;  -61.330;    3.029;    0.000;-64.35875
 876.63;  -60.710;    2.815;    0.000;-63.52500
 876.88;  -63.640;    1.354;    0.000;-64.99375
 877.12;  -62.260;    1.954;    0.000;-64.21375
 877.36;  -60.120;    1.592;    0.000;-61.71250
 877.61;  -64.820;    1.324;    0.000;-66.14375
 877.85;  -52.360;    3.668;    0.000;-56.02750
 878.10;  -60.660;    1.811;    0.000;-62.47125
 878.34;  -51.730;    4.662;    0.000;-56.39250
 878.59;  -61.970;    3.560;    0.000;-65.53000
 878.83;  -61.250;    3.334;    0.000;-64.58375
 879.08;  -52.940;    4.274;    0.000;-57.21375
 879.32;  -64.010;    3.205;    0.000;-67.21500
 879.57;  -45.950;    3.221;    0.000;-49.17125
 879.81;  -58.490;    0.571;    0.000;-59.06125
 880.05;  -65.580;    2.775;    0.000;-68.35500
 880.30;  -53.180;    1.899;    0.000;-55.07875
 880.54;  -67.610;    2.659;    0.000;-70.26875
 880.79;  -55.850;    1.919;    0.000;-57.76875
 881.03;  -54.910;    1.780;    0.000;-56.69000
 881.28;  -51.260;    4.125;    0.000;-55.38500
 881.52;  -68.790;    4.539;    0.000;-73.32875
 881.76;  -56.500;    2.729;    0.000;-59.22875
 882.01;  -56.910;    1.770;    0.000;-58.68000
 882.25;  -58.030;    5.285;    0.000;-63.31500
 882.50;  -65.260;    1.586;    0.000;-66.84625
 882.74;  -52.040;    1.505;    0.000;-53.54500
 882.98;  -67.030;    2.839;    0.000;-69.86875
 883.23;  -68.890;    1.059;    0.000;-69.94875
 883.47;  -66.610;    4.950;    0.000;-71.56000
 883.72;  -53.240;    4.606;    0.000;-57.84625
 883.96;  -52.260;    4.194;    0.000;-56.45375
 884.20;  -59.280;    1.607;    0.000;-60.88750
 884.45;  -55.840;    3.172;    0.000;-59.01250
 884.69;  -50.910;    5.045;    0.000;-55.95500
 884.94;  -52.090;    3.589;    0.000;-55.67875
 885.18;  -62.260;    2.435;    0.000;-64.69500
 885.42;  -65.220;    2.079;    0.000;-67.29875
 885.67;  -52.680;    3.995;    0.000;-56.67500
 885.91;  -67.390;    1.904;    0.000;-69.29375
 886.15;  -57.620;    1.859;    0.000;-59.47875
 886.40;  -64.540;    1.438;    0.000;-65.97750
 886.64;  -49.880;    3.661;    0.000;-53.54125
 886.88;  -61.030;    2.609;    0.000;-63.63875
 887.13;  -43.520;    3.316;    0.000;-46.83625
 887.37;  -62.300;    2.561;    0.000;-64.86125
 887.62;  -42.050;    4.399;    0.000;-46.44875
 887.86;  -50.490;    3.491;    0.000;-53.98125
 888.10;  -56.300;    5.320;    0.000;-61.62000
 888.35;  -56.690;    4.015;    0.000;-60.70500
 888.59;  -55.340;    5.435;    0.000;-60.77500
 888.83;  -59.720;    3.104;    0.000;-62.82375
 889.07;  -49.540;    3.310;    0.000;-52.85000
 889.32;  -58.620;    5.429;    0.000;-64.04875
 889.56;  -52.840;    3.888;    0.000;-56.72750
 889.80;  -52.090;    2.438;    0.000;-54.52750
 890.05;  -54.520;    2.096;    0.000;-56.61625
 890.29;  -56.280;    3.392;    0.000;-59.67250
 890.53;  -50.010;    4.108;    0.000;-54.11750
 890.78;  -53.760;    3.010;    0.000;-56.77000
 891.02;  -41.660;    3.884;    0.000;-45.54375
 891.26;  -55.460;    4.090;    0.000;-59.55000
 891.51;  -50.050;    3.727;    0.000;-53.77750
 891.75;  -46.330;    1.636;    0.000;-47.96625
 891.99;  -55.260;    4.133;    0.000;-59.39250
 892.23;  -67.580;    1.094;    0.000;-68.67375
 892.48;  -40.890;    6.174;    0.000;-47.06375
 892.72;  -47.910;    4.309;    0.000;-52.21875
 892.96;  -48.050;    6.463;    0.000;-54.51250
 893.20;  -48.860;    3.534;    0.000;-52.39375
 893.45;  -55.010;    4.674;    0.000;-59.68375
 893.69;  -49.310;    4.350;    0.000;-53.66000
 893.93;  -40.020;    3.811;    0.000;-43.83125
 894.17;  -47.070;    3.632;    0.000;-50.70250
 894.42;  -40.960;    3.563;    0.000;-44.52250
 894.66;  -46.390;    3.575;    0.000;-49.96500
 894.90;  -46.210;    4.434;    0.000;-50.64375
 895.14;  -46.300;    5.156;    0.000;-51.45625
 895.39;  -46.090;    2.453;    0.000;-48.54250
 895.63;  -36.690;    3.581;    0.000;-40.27125
 895.87;  -44.230;    2.703;    0.000;-46.93250
 896.11;  -39.670;    3.902;    0.000;-43.57250
 896.36;  -27.570;    4.361;    0.000;-31.93125
 896.60;  -53.960;    4.684;    0.000;-58.64375
 896.84;  -22.760;    7.503;    0.000;-30.26250
 897.08;  -32.940;    7.704;    0.000;-40.64375
 897.32;  -24.350;    6.090;    0.000;-30.44000
 897.57;  -32.500;    5.235;    0.000;-37.73500
 897.81;  -34.390;    6.305;    0.000;-40.69500
 898.05;  -30.640;    6.220;    0.000;-36.86000
 898.29;  -21.400;    6.834;    0.000;-28.23375
 898.53;  -28.540;    5.426;    0.000;-33.96625
 898.78;  -26.610;    7.475;    0.000;-34.08500
 899.02;  -29.150;    5.856;    0.000;-35.00625
 899.26;  -21.210;    8.570;    0.000;-29.78000
 899.50;    8.970;    7.455;    0.000; 1.51500
 899.74;  -15.160;    5.930;    0.000;-21.09000
 899.99;  -12.080;    9.002;    0.000;-21.08250
 900.23;   -8.450;    9.759;    0.000;-18.20875
 900.47;  -10.550;    9.193;    0.000;-19.74250
 900.71;   -2.510;    9.520;    0.000;-12.03000
 900.95;    5.910;    9.591;    0.000;-3.68125
 901.19;   16.080;    9.936;    0.000; 6.14375
 901.44;   19.710;   11.654;    0.000; 8.05625
 901.68;   35.730;   11.363;    0.000;24.36750
 901.92;   47.240;   12.930;    0.000;34.31000
 902.16;   46.780;   12.275;    0.000;34.50500
 902.40;   61.320;   15.089;    0.000;46.23125
 902.64;   84.960;   18.999;    0.000;65.96125
 902.88;   98.770;   18.346;    0.000;80.42375
 903.13;  118.620;   19.689;    0.000;98.93125

