p5
Integration time [ms]:  10.000
Averaging Nr. [scans]: 100
Smoothing Nr. [pixels]: 0
Data measured with spectrometer [name]: 1307078U2
Wave   ;Sample   ;Dark     ;Reference;Scope Corrected for Dark
[nm]   ;[counts] ;[counts] ;[counts] 

 351.07;   17.000;    0.420;    0.000;16.58000
 351.37;   21.120;    2.109;    0.000;19.01125
 351.66;   25.770;    2.484;    0.000;23.28625
 351.95;   17.680;    0.324;    0.000;17.35625
 352.24;   19.390;    1.910;    0.000;17.48000
 352.54;   12.240;    1.401;    0.000;10.83875
 352.83;   14.630;   -0.629;    0.000;15.25875
 353.12;   18.750;    1.364;    0.000;17.38625
 353.42;   12.110;   -0.535;    0.000;12.64500
 353.71;   13.180;    2.263;    0.000;10.91750
 354.00;   21.720;    3.929;    0.000;17.79125
 354.30;   10.830;    1.025;    0.000; 9.80500
 354.59;   17.800;   -0.266;    0.000;18.06625
 354.88;    8.910;    5.190;    0.000; 3.72000
 355.17;    3.760;   -0.014;    0.000; 3.77375
 355.47;    8.920;    2.134;    0.000; 6.78625
 355.76;   14.170;    0.416;    0.000;13.75375
 356.05;   26.470;    1.192;    0.000;25.27750
 356.35;   25.530;    1.587;    0.000;23.94250
 356.64;   30.030;    1.753;    0.000;28.27750
 356.93;    9.140;    1.768;    0.000; 7.37250
 357.22;   34.380;    1.366;    0.000;33.01375
 357.52;   16.060;    3.320;    0.000;12.74000
 357.81;   19.650;    1.643;    0.000;18.00750
 358.10;    7.150;   -0.600;    0.000; 7.75000
 358.39;   16.720;    1.461;    0.000;15.25875
 358.69;   17.980;    1.997;    0.000;15.98250
 358.98;   14.250;    0.317;    0.000;13.93250
 359.27;   21.960;    1.446;    0.000;20.51375
 359.57;   18.340;    2.324;    0.000;16.01625
 359.86;   23.220;   -0.700;    0.000;23.92000
 360.15;   26.230;    1.474;    0.000;24.75625
 360.44;   12.380;   -0.946;    0.000;13.32625
 360.74;   16.580;    1.480;    0.000;15.10000
 361.03;   15.350;   -0.345;    0.000;15.69500
 361.32;   15.470;    2.919;    0.000;12.55125
 361.61;    9.880;    2.338;    0.000; 7.54250
 361.91;   16.800;    2.645;    0.000;14.15500
 362.20;    9.010;    1.590;    0.000; 7.42000
 362.49;   24.930;    1.854;    0.000;23.07625
 362.78;   21.640;    0.435;    0.000;21.20500
 363.08;   19.760;    1.149;    0.000;18.61125
 363.37;   13.000;    0.004;    0.000;12.99625
 363.66;   20.910;    3.439;    0.000;17.47125
 363.95;    6.940;    2.359;    0.000; 4.58125
 364.24;   21.610;    2.213;    0.000;19.39750
 364.54;    7.520;   -0.068;    0.000; 7.58750
 364.83;   18.680;    2.066;    0.000;16.61375
 365.12;    9.900;   -0.624;    0.000;10.52375
 365.41;   26.480;    3.152;    0.000;23.32750
 365.71;   12.930;    0.161;    0.000;12.76875
 366.00;    8.180;    1.484;    0.000; 6.69625
 366.29;    1.740;    0.876;    0.000; 0.86375
 366.58;   13.210;    2.200;    0.000;11.01000
 366.87;   24.030;    3.334;    0.000;20.69625
 367.17;   20.940;    4.057;    0.000;16.88250
 367.46;    6.430;    1.112;    0.000; 5.31750
 367.75;   27.130;    0.207;    0.000;26.92250
 368.04;   13.850;    2.296;    0.000;11.55375
 368.34;    6.050;    3.155;    0.000; 2.89500
 368.63;   14.930;    1.982;    0.000;12.94750
 368.92;   26.190;    4.579;    0.000;21.61125
 369.21;   21.130;    0.301;    0.000;20.82875
 369.50;   21.270;    4.056;    0.000;17.21375
 369.80;    9.380;    3.011;    0.000; 6.36875
 370.09;   14.430;    2.666;    0.000;11.76375
 370.38;   10.950;    1.489;    0.000; 9.46125
 370.67;   12.850;    2.949;    0.000; 9.90125
 370.96;   13.220;    1.915;    0.000;11.30500
 371.26;   14.280;    3.515;    0.000;10.76500
 371.55;   13.200;   -0.750;    0.000;13.95000
 371.84;   11.240;    1.237;    0.000;10.00250
 372.13;   12.540;    0.486;    0.000;12.05375
 372.42;   19.800;    4.290;    0.000;15.51000
 372.71;   23.790;    2.305;    0.000;21.48500
 373.01;   22.280;    2.734;    0.000;19.54625
 373.30;   10.040;    0.909;    0.000; 9.13125
 373.59;   17.240;    4.401;    0.000;12.83875
 373.88;   13.010;    0.729;    0.000;12.28125
 374.17;   16.440;    5.426;    0.000;11.01375
 374.46;    8.480;    2.037;    0.000; 6.44250
 374.76;   30.320;    3.602;    0.000;26.71750
 375.05;   28.710;    4.131;    0.000;24.57875
 375.34;   19.120;    4.778;    0.000;14.34250
 375.63;   12.530;   -1.367;    0.000;13.89750
 375.92;   19.260;    1.354;    0.000;17.90625
 376.21;    8.620;    0.181;    0.000; 8.43875
 376.51;   -0.080;    0.475;    0.000;-0.55500
 376.80;   19.070;    3.346;    0.000;15.72375
 377.09;    8.490;    1.947;    0.000; 6.54250
 377.38;   13.340;    1.015;    0.000;12.32500
 377.67;   27.870;    2.574;    0.000;25.29625
 377.96;    7.340;    0.863;    0.000; 6.47750
 378.25;   13.240;    3.033;    0.000;10.20750
 378.55;   10.330;    1.080;    0.000; 9.25000
 378.84;   15.800;    4.383;    0.000;11.41750
 379.13;   19.980;    1.696;    0.000;18.28375
 379.42;   11.980;    4.142;    0.000; 7.83750
 379.71;   15.430;    1.695;    0.000;13.73500
 380.00;   31.630;    4.409;    0.000;27.22125
 380.29;   10.080;    0.924;    0.000; 9.15625
 380.59;   11.400;    2.340;    0.000; 9.06000
 380.88;    5.390;    1.253;    0.000; 4.13750
 381.17;   13.150;    2.536;    0.000;10.61375
 381.46;   17.260;    2.259;    0.000;15.00125
 381.75;   17.980;    3.750;    0.000;14.23000
 382.04;   11.420;    3.304;    0.000; 8.11625
 382.33;   10.310;    1.438;    0.000; 8.87250
 382.62;   11.410;    2.980;    0.000; 8.43000
 382.91;   22.130;    3.025;    0.000;19.10500
 383.21;    7.620;   -1.186;    0.000; 8.80625
 383.50;   11.450;    1.279;    0.000;10.17125
 383.79;   21.190;    3.581;    0.000;17.60875
 384.08;   12.420;    1.620;    0.000;10.80000
 384.37;    6.220;    2.861;    0.000; 3.35875
 384.66;   11.080;    0.262;    0.000;10.81750
 384.95;    5.510;    1.033;    0.000; 4.47750
 385.24;   12.700;    0.772;    0.000;11.92750
 385.53;   13.450;   -1.732;    0.000;15.18250
 385.83;   10.250;    0.712;    0.000; 9.53750
 386.12;   24.980;    1.009;    0.000;23.97125
 386.41;   13.910;    2.080;    0.000;11.83000
 386.70;    3.170;    0.155;    0.000; 3.01500
 386.99;   18.710;    0.820;    0.000;17.89000
 387.28;   19.710;    3.057;    0.000;16.65250
 387.57;   14.870;    2.020;    0.000;12.85000
 387.86;    8.890;    1.317;    0.000; 7.57250
 388.15;   17.370;    2.237;    0.000;15.13250
 388.44;   11.980;    1.854;    0.000;10.12625
 388.73;   15.990;    1.639;    0.000;14.35125
 389.02;   16.120;    1.174;    0.000;14.94625
 389.31;   16.990;    3.336;    0.000;13.65375
 389.61;   14.940;    1.742;    0.000;13.19750
 389.90;   17.360;    2.181;    0.000;15.17875
 390.19;   10.490;    0.252;    0.000;10.23750
 390.48;   15.060;    3.714;    0.000;11.34625
 390.77;   21.560;    2.156;    0.000;19.40375
 391.06;   11.230;    0.019;    0.000;11.21125
 391.35;    0.660;    0.766;    0.000;-0.10625
 391.64;   22.760;    4.639;    0.000;18.12125
 391.93;    4.680;    0.449;    0.000; 4.23125
 392.22;   13.200;    2.592;    0.000;10.60750
 392.51;   24.450;    1.247;    0.000;23.20250
 392.80;   22.760;    2.735;    0.000;20.02500
 393.09;   10.490;    1.086;    0.000; 9.40375
 393.38;   16.350;    0.229;    0.000;16.12125
 393.67;   14.630;    1.561;    0.000;13.06875
 393.96;   20.420;    1.930;    0.000;18.49000
 394.25;   14.870;    0.956;    0.000;13.91375
 394.54;   18.560;    1.622;    0.000;16.93750
 394.83;   11.820;    0.440;    0.000;11.38000
 395.13;   12.960;    2.201;    0.000;10.75875
 395.42;   26.900;    2.457;    0.000;24.44250
 395.71;   16.190;    4.305;    0.000;11.88500
 396.00;   14.940;    1.222;    0.000;13.71750
 396.29;   24.720;    1.178;    0.000;23.54250
 396.58;   10.430;    0.967;    0.000; 9.46250
 396.87;   17.580;    1.986;    0.000;15.59375
 397.16;    8.450;    1.911;    0.000; 6.53875
 397.45;   18.640;    3.014;    0.000;15.62625
 397.74;   12.730;    2.689;    0.000;10.04125
 398.03;   20.720;    2.170;    0.000;18.55000
 398.32;    6.820;    1.844;    0.000; 4.97625
 398.61;   18.100;    3.154;    0.000;14.94625
 398.90;   14.900;    1.420;    0.000;13.48000
 399.19;   20.160;    3.316;    0.000;16.84375
 399.48;    8.840;    0.412;    0.000; 8.42750
 399.77;   21.560;    1.786;    0.000;19.77375
 400.06;   16.300;    2.120;    0.000;14.18000
 400.35;   15.290;    3.961;    0.000;11.32875
 400.64;    9.850;    2.411;    0.000; 7.43875
 400.93;   24.070;    3.304;    0.000;20.76625
 401.22;   17.070;    1.479;    0.000;15.59125
 401.51;   17.430;    3.400;    0.000;14.03000
 401.80;   18.090;    1.049;    0.000;17.04125
 402.09;   14.470;    1.710;    0.000;12.76000
 402.38;    9.830;    1.655;    0.000; 8.17500
 402.67;   15.460;    2.055;    0.000;13.40500
 402.96;   24.530;    1.381;    0.000;23.14875
 403.25;   25.880;    4.099;    0.000;21.78125
 403.54;   16.000;    2.920;    0.000;13.08000
 403.83;   22.090;    1.701;    0.000;20.38875
 404.12;   14.900;    4.244;    0.000;10.65625
 404.41;   23.290;    7.259;    0.000;16.03125
 404.70;   13.470;    1.739;    0.000;11.73125
 404.98;   15.230;    3.635;    0.000;11.59500
 405.27;   17.650;    2.116;    0.000;15.53375
 405.56;   30.800;    5.247;    0.000;25.55250
 405.85;    8.130;    1.905;    0.000; 6.22500
 406.14;   15.440;    2.216;    0.000;13.22375
 406.43;   10.390;    0.695;    0.000; 9.69500
 406.72;   18.210;    1.689;    0.000;16.52125
 407.01;    6.620;    2.034;    0.000; 4.58625
 407.30;   16.150;    2.056;    0.000;14.09375
 407.59;   15.370;   -0.241;    0.000;15.61125
 407.88;   19.520;    1.026;    0.000;18.49375
 408.17;    9.370;    1.819;    0.000; 7.55125
 408.46;   26.140;    2.744;    0.000;23.39625
 408.75;   22.230;    2.339;    0.000;19.89125
 409.04;   12.090;    1.809;    0.000;10.28125
 409.33;   10.590;    1.810;    0.000; 8.78000
 409.62;   28.750;    3.089;    0.000;25.66125
 409.91;    4.030;    0.704;    0.000; 3.32625
 410.20;   21.900;    1.890;    0.000;20.01000
 410.48;   20.910;    1.309;    0.000;19.60125
 410.77;   17.810;    2.919;    0.000;14.89125
 411.06;   17.510;   -0.224;    0.000;17.73375
 411.35;   26.350;    2.226;    0.000;24.12375
 411.64;   15.770;    2.741;    0.000;13.02875
 411.93;   16.730;   -0.534;    0.000;17.26375
 412.22;   10.630;    0.561;    0.000;10.06875
 412.51;   17.730;    2.220;    0.000;15.51000
 412.80;    9.800;    1.974;    0.000; 7.82625
 413.09;   18.840;    0.749;    0.000;18.09125
 413.38;   16.690;    3.604;    0.000;13.08625
 413.67;   11.220;    0.146;    0.000;11.07375
 413.96;   11.910;   -0.986;    0.000;12.89625
 414.24;   15.980;    2.872;    0.000;13.10750
 414.53;   15.070;    3.146;    0.000;11.92375
 414.82;   20.530;    2.290;    0.000;18.24000
 415.11;   29.200;    2.401;    0.000;26.79875
 415.40;   18.820;    0.995;    0.000;17.82500
 415.69;    8.000;    2.255;    0.000; 5.74500
 415.98;   15.300;    3.622;    0.000;11.67750
 416.27;    7.790;    2.026;    0.000; 5.76375
 416.56;   22.070;    2.160;    0.000;19.91000
 416.84;   11.390;    1.849;    0.000; 9.54125
 417.13;   13.320;    1.085;    0.000;12.23500
 417.42;   23.160;    2.255;    0.000;20.90500
 417.71;   18.720;    0.942;    0.000;17.77750
 418.00;   15.570;   -0.894;    0.000;16.46375
 418.29;   16.680;    2.760;    0.000;13.92000
 418.58;   16.050;    1.184;    0.000;14.86625
 418.87;   21.260;    1.616;    0.000;19.64375
 419.15;   15.020;    1.469;    0.000;13.55125
 419.44;   27.450;    1.505;    0.000;25.94500
 419.73;   15.430;   -0.203;    0.000;15.63250
 420.02;   25.260;    3.578;    0.000;21.68250
 420.31;   12.500;    0.189;    0.000;12.31125
 420.60;   18.530;    0.344;    0.000;18.18625
 420.89;   12.880;    1.889;    0.000;10.99125
 421.18;   13.600;    0.249;    0.000;13.35125
 421.46;   17.670;    1.220;    0.000;16.45000
 421.75;   15.150;    1.529;    0.000;13.62125
 422.04;   11.360;    1.446;    0.000; 9.91375
 422.33;   29.400;    1.941;    0.000;27.45875
 422.62;   11.520;    4.503;    0.000; 7.01750
 422.91;   12.570;    4.043;    0.000; 8.52750
 423.19;   10.120;    3.485;    0.000; 6.63500
 423.48;   22.930;    1.274;    0.000;21.65625
 423.77;   17.560;    2.696;    0.000;14.86375
 424.06;   12.890;    3.234;    0.000; 9.65625
 424.35;    9.380;    0.522;    0.000; 8.85750
 424.64;   30.920;    3.535;    0.000;27.38500
 424.93;   13.360;   -0.317;    0.000;13.67750
 425.21;   17.250;    2.582;    0.000;14.66750
 425.50;   17.990;    3.263;    0.000;14.72750
 425.79;   13.720;    2.591;    0.000;11.12875
 426.08;   16.780;    1.785;    0.000;14.99500
 426.37;   16.960;    1.579;    0.000;15.38125
 426.65;    6.780;    2.955;    0.000; 3.82500
 426.94;   11.600;    2.134;    0.000; 9.46625
 427.23;   17.830;    2.475;    0.000;15.35500
 427.52;   19.400;    0.715;    0.000;18.68500
 427.81;    4.470;   -0.177;    0.000; 4.64750
 428.10;   26.830;    2.043;    0.000;24.78750
 428.38;   11.650;    0.154;    0.000;11.49625
 428.67;   13.670;    2.436;    0.000;11.23375
 428.96;    5.900;    1.938;    0.000; 3.96250
 429.25;   24.250;    2.326;    0.000;21.92375
 429.54;   18.010;    2.418;    0.000;15.59250
 429.82;   24.030;    2.749;    0.000;21.28125
 430.11;   19.440;    0.755;    0.000;18.68500
 430.40;   29.230;    2.376;    0.000;26.85375
 430.69;   15.160;    2.435;    0.000;12.72500
 430.98;   14.060;    3.626;    0.000;10.43375
 431.26;   26.580;    4.383;    0.000;22.19750
 431.55;   21.590;    3.697;    0.000;17.89250
 431.84;   12.380;   -0.666;    0.000;13.04625
 432.13;   23.920;    0.749;    0.000;23.17125
 432.41;   10.160;    2.846;    0.000; 7.31375
 432.70;   19.310;    2.501;    0.000;16.80875
 432.99;   16.830;    2.007;    0.000;14.82250
 433.28;   23.460;    4.089;    0.000;19.37125
 433.57;   19.040;    0.668;    0.000;18.37250
 433.85;   30.300;    0.570;    0.000;29.73000
 434.14;   17.140;    1.510;    0.000;15.63000
 434.43;   30.340;    4.943;    0.000;25.39750
 434.72;   16.000;    1.523;    0.000;14.47750
 435.00;    7.360;    4.381;    0.000; 2.97875
 435.29;   11.260;    3.159;    0.000; 8.10125
 435.58;   23.180;    3.307;    0.000;19.87250
 435.87;   22.990;    0.380;    0.000;22.61000
 436.15;   16.930;    2.906;    0.000;14.02375
 436.44;    8.540;    2.568;    0.000; 5.97250
 436.73;   22.100;    4.294;    0.000;17.80625
 437.02;   11.280;    2.537;    0.000; 8.74250
 437.30;   24.980;    2.334;    0.000;22.64625
 437.59;   22.800;    2.810;    0.000;19.99000
 437.88;   11.790;    5.700;    0.000; 6.09000
 438.17;    9.230;   -0.534;    0.000; 9.76375
 438.45;   18.560;    3.159;    0.000;15.40125
 438.74;   16.440;    0.505;    0.000;15.93500
 439.03;   25.150;    2.618;    0.000;22.53250
 439.32;    7.280;    3.250;    0.000; 4.03000
 439.60;   22.160;    0.890;    0.000;21.27000
 439.89;    9.800;    2.642;    0.000; 7.15750
 440.18;   14.350;    2.490;    0.000;11.86000
 440.46;   11.070;    0.183;    0.000;10.88750
 440.75;   27.620;    2.443;    0.000;25.17750
 441.04;    4.230;    0.079;    0.000; 4.15125
 441.33;   27.480;    3.149;    0.000;24.33125
 441.61;    6.290;    2.630;    0.000; 3.66000
 441.90;   31.400;    3.733;    0.000;27.66750
 442.19;    4.420;   -0.200;    0.000; 4.62000
 442.47;   21.390;    3.862;    0.000;17.52750
 442.76;    3.070;    2.916;    0.000; 0.15375
 443.05;   21.730;    2.666;    0.000;19.06375
 443.34;    8.260;    2.057;    0.000; 6.20250
 443.62;   17.920;    1.426;    0.000;16.49375
 443.91;   14.690;    0.027;    0.000;14.66250
 444.20;   35.190;    6.335;    0.000;28.85500
 444.48;    9.560;    1.109;    0.000; 8.45125
 444.77;   39.680;    4.639;    0.000;35.04125
 445.06;   13.220;    1.806;    0.000;11.41375
 445.34;   22.680;    0.406;    0.000;22.27375
 445.63;   15.230;    0.630;    0.000;14.60000
 445.92;   48.240;    1.935;    0.000;46.30500
 446.21;   25.240;    3.364;    0.000;21.87625
 446.49;   24.450;    2.110;    0.000;22.34000
 446.78;   24.880;    2.021;    0.000;22.85875
 447.07;   18.940;    0.465;    0.000;18.47500
 447.35;   14.350;    0.983;    0.000;13.36750
 447.64;   16.890;    3.451;    0.000;13.43875
 447.93;   17.480;    1.934;    0.000;15.54625
 448.21;   12.690;    1.536;    0.000;11.15375
 448.50;   10.410;    1.910;    0.000; 8.50000
 448.79;   18.520;    1.992;    0.000;16.52750
 449.07;   21.580;    3.325;    0.000;18.25500
 449.36;    7.970;    1.426;    0.000; 6.54375
 449.65;   14.140;    0.134;    0.000;14.00625
 449.93;   17.210;    3.255;    0.000;13.95500
 450.22;   17.970;    1.070;    0.000;16.90000
 450.51;   13.250;    3.435;    0.000; 9.81500
 450.79;   12.510;    2.901;    0.000; 9.60875
 451.08;   14.250;    2.376;    0.000;11.87375
 451.36;   19.600;   -0.282;    0.000;19.88250
 451.65;   20.300;    4.582;    0.000;15.71750
 451.94;    0.240;    2.245;    0.000;-2.00500
 452.22;   14.000;    1.971;    0.000;12.02875
 452.51;   16.650;    2.864;    0.000;13.78625
 452.80;   21.860;    0.808;    0.000;21.05250
 453.08;    8.010;    3.300;    0.000; 4.71000
 453.37;   26.140;    5.216;    0.000;20.92375
 453.66;   18.530;    1.974;    0.000;16.55625
 453.94;   28.690;    2.578;    0.000;26.11250
 454.23;    7.070;    0.707;    0.000; 6.36250
 454.51;   28.460;    5.106;    0.000;23.35375
 454.80;   10.750;    1.065;    0.000; 9.68500
 455.09;   12.920;    3.789;    0.000; 9.13125
 455.37;   25.880;    2.000;    0.000;23.88000
 455.66;   18.120;    0.929;    0.000;17.19125
 455.95;   16.690;    2.487;    0.000;14.20250
 456.23;   21.370;    1.810;    0.000;19.56000
 456.52;   17.570;   -1.785;    0.000;19.35500
 456.80;   20.990;    1.676;    0.000;19.31375
 457.09;   13.390;    0.610;    0.000;12.78000
 457.38;   27.100;    2.624;    0.000;24.47625
 457.66;   19.820;    2.954;    0.000;16.86625
 457.95;   13.670;    2.106;    0.000;11.56375
 458.23;   22.560;   -0.848;    0.000;23.40750
 458.52;   32.760;    3.451;    0.000;29.30875
 458.81;   11.480;    4.972;    0.000; 6.50750
 459.09;   16.940;    4.175;    0.000;12.76500
 459.38;   14.940;    0.647;    0.000;14.29250
 459.66;   17.510;    2.150;    0.000;15.36000
 459.95;   21.160;    3.480;    0.000;17.68000
 460.23;   20.680;    1.835;    0.000;18.84500
 460.52;   18.940;   -0.050;    0.000;18.99000
 460.81;    9.250;    3.735;    0.000; 5.51500
 461.09;   10.490;    2.649;    0.000; 7.84125
 461.38;   28.150;    0.196;    0.000;27.95375
 461.66;   13.490;    2.040;    0.000;11.45000
 461.95;   22.870;    2.691;    0.000;20.17875
 462.23;   19.700;    2.905;    0.000;16.79500
 462.52;   21.270;    1.970;    0.000;19.30000
 462.81;   14.480;    1.775;    0.000;12.70500
 463.09;   20.780;    2.996;    0.000;17.78375
 463.38;   18.030;    3.536;    0.000;14.49375
 463.66;   15.090;    2.416;    0.000;12.67375
 463.95;   25.600;    0.976;    0.000;24.62375
 464.23;   19.780;    3.136;    0.000;16.64375
 464.52;   24.150;    0.415;    0.000;23.73500
 464.80;   17.760;    2.267;    0.000;15.49250
 465.09;   23.400;    4.450;    0.000;18.95000
 465.38;   23.180;    2.135;    0.000;21.04500
 465.66;   20.410;    3.092;    0.000;17.31750
 465.95;   29.890;    3.005;    0.000;26.88500
 466.23;   14.230;    1.654;    0.000;12.57625
 466.52;   17.800;    2.730;    0.000;15.07000
 466.80;   32.800;    4.429;    0.000;28.37125
 467.09;   19.590;    2.030;    0.000;17.56000
 467.37;   28.520;    2.378;    0.000;26.14250
 467.66;   29.790;    4.521;    0.000;25.26875
 467.94;   17.530;    1.929;    0.000;15.60125
 468.23;   28.240;    1.577;    0.000;26.66250
 468.51;   28.660;    3.882;    0.000;24.77750
 468.80;   14.220;    3.013;    0.000;11.20750
 469.08;   18.280;    2.563;    0.000;15.71750
 469.37;   38.460;    3.146;    0.000;35.31375
 469.66;   33.750;    1.077;    0.000;32.67250
 469.94;   23.610;    0.594;    0.000;23.01625
 470.23;   28.950;    0.586;    0.000;28.36375
 470.51;   30.230;    2.723;    0.000;27.50750
 470.80;   39.170;    2.582;    0.000;36.58750
 471.08;   35.300;    3.061;    0.000;32.23875
 471.37;   35.510;    2.378;    0.000;33.13250
 471.65;   54.410;    3.132;    0.000;51.27750
 471.94;   33.640;    0.899;    0.000;32.74125
 472.22;   34.290;    1.457;    0.000;32.83250
 472.51;   31.800;    1.730;    0.000;30.07000
 472.79;   45.890;    3.695;    0.000;42.19500
 473.08;   52.820;    0.592;    0.000;52.22750
 473.36;   60.940;    3.221;    0.000;57.71875
 473.64;   52.790;    1.619;    0.000;51.17125
 473.93;   61.410;    3.253;    0.000;58.15750
 474.21;   64.030;    2.713;    0.000;61.31750
 474.50;   76.180;    4.048;    0.000;72.13250
 474.78;   95.440;    2.095;    0.000;93.34500
 475.07;   81.570;    0.941;    0.000;80.62875
 475.35;   96.210;    3.199;    0.000;93.01125
 475.64;   94.760;    2.451;    0.000;92.30875
 475.92;  110.420;    1.299;    0.000;109.12125
 476.21;  122.350;    0.804;    0.000;121.54625
 476.49;  136.100;    2.276;    0.000;133.82376
 476.78;  143.000;    2.287;    0.000;140.71250
 477.06;  152.210;    2.473;    0.000;149.73751
 477.35;  165.890;    3.790;    0.000;162.10000
 477.63;  183.990;    1.086;    0.000;182.90376
 477.91;  198.480;    1.760;    0.000;196.72000
 478.20;  220.070;    1.059;    0.000;219.01126
 478.48;  244.180;    0.538;    0.000;243.64249
 478.77;  266.780;    3.499;    0.000;263.28125
 479.05;  276.630;    3.216;    0.000;273.41375
 479.34;  318.620;    0.761;    0.000;317.85875
 479.62;  336.060;    3.401;    0.000;332.65875
 479.91;  369.630;   -0.785;    0.000;370.41500
 480.19;  424.010;    2.868;    0.000;421.14251
 480.47;  422.700;    0.215;    0.000;422.48501
 480.76;  459.550;    5.134;    0.000;454.41624
 481.04;  508.900;    2.594;    0.000;506.30624
 481.33;  560.260;    5.226;    0.000;555.03376
 481.61;  590.360;    0.775;    0.000;589.58499
 481.90;  630.980;    3.454;    0.000;627.52623
 482.18;  679.580;    1.354;    0.000;678.22627
 482.46;  731.920;    2.395;    0.000;729.52498
 482.75;  782.390;    3.819;    0.000;778.57126
 483.03;  838.580;    1.339;    0.000;837.24127
 483.32;  890.550;   -0.608;    0.000;891.15749
 483.60;  960.590;    2.681;    0.000;957.90878
 483.88; 1015.480;    3.960;    0.000;1011.51998
 484.17; 1092.390;    1.490;    0.000;1090.90001
 484.45; 1150.590;    0.410;    0.000;1150.17997
 484.74; 1226.050;    2.251;    0.000;1223.79880
 485.02; 1306.330;    2.283;    0.000;1304.04746
 485.30; 1393.640;    1.720;    0.000;1391.92001
 485.59; 1478.670;    0.525;    0.000;1478.14504
 485.87; 1570.520;    1.050;    0.000;1569.47002
 486.16; 1620.430;    1.403;    0.000;1619.02755
 486.44; 1730.150;    2.604;    0.000;1727.54627
 486.72; 1805.310;    1.150;    0.000;1804.16006
 487.01; 1928.640;    3.671;    0.000;1924.96876
 487.29; 2030.040;    0.510;    0.000;2029.53004
 487.58; 2145.700;    5.654;    0.000;2140.04620
 487.86; 2240.760;    3.342;    0.000;2237.41751
 488.14; 2365.660;    3.932;    0.000;2361.72741
 488.43; 2468.810;    0.979;    0.000;2467.83131
 488.71; 2591.480;    0.730;    0.000;2590.74998
 488.99; 2725.420;    1.616;    0.000;2723.80367
 489.28; 2857.080;    0.715;    0.000;2856.36508
 489.56; 2971.020;    1.239;    0.000;2969.78127
 489.85; 3095.500;    2.350;    0.000;3093.15000
 490.13; 3235.330;    2.057;    0.000;3233.27258
 490.41; 3384.260;    4.855;    0.000;3379.40501
 490.70; 3519.450;    2.358;    0.000;3517.09245
 490.98; 3669.350;    1.931;    0.000;3667.41885
 491.26; 3817.850;   -0.796;    0.000;3818.64635
 491.55; 3981.990;    2.747;    0.000;3979.24249
 491.83; 4130.290;    2.797;    0.000;4127.49254
 492.11; 4289.350;    0.218;    0.000;4289.13260
 492.40; 4433.000;    1.774;    0.000;4431.22625
 492.68; 4625.880;    3.876;    0.000;4622.00363
 492.96; 4799.640;    2.506;    0.000;4797.13389
 493.25; 4954.050;    3.009;    0.000;4951.04105
 493.53; 5118.760;    1.435;    0.000;5117.32477
 493.81; 5311.510;    3.051;    0.000;5308.45852
 494.10; 5483.790;    2.372;    0.000;5481.41754
 494.38; 5687.840;    0.340;    0.000;5687.49984
 494.66; 5861.180;   -0.239;    0.000;5861.41893
 494.95; 6045.160;    2.470;    0.000;6042.69016
 495.23; 6254.170;    3.210;    0.000;6250.95992
 495.51; 6419.370;    4.576;    0.000;6414.79387
 495.80; 6595.630;    2.500;    0.000;6593.12988
 496.08; 6846.500;    4.334;    0.000;6842.16625
 496.36; 7024.860;    2.381;    0.000;7022.47861
 496.65; 7240.860;    0.871;    0.000;7239.98861
 496.93; 7369.240;    2.741;    0.000;7366.49898
 497.21; 7627.080;    0.571;    0.000;7626.50883
 497.50; 7823.940;    3.068;    0.000;7820.87244
 497.78; 8051.020;    1.405;    0.000;8049.61502
 498.06; 8242.510;    0.853;    0.000;8241.65727
 498.34; 8486.900;    2.364;    0.000;8484.53664
 498.63; 8675.840;    3.320;    0.000;8672.51984
 498.91; 8916.270;    4.931;    0.000;8911.33828
 499.19; 9126.540;    1.158;    0.000;9125.38254
 499.48; 9340.470;    2.360;    0.000;9338.10973
 499.76; 9570.610;    3.057;    0.000;9567.55285
 500.04; 9752.870;    4.120;    0.000;9748.75012
 500.32;10009.970;    3.015;    0.000;10006.95473
 500.61;10233.840;    2.210;    0.000;10231.62984
 500.89;10448.880;    2.584;    0.000;10446.29613
 501.17;10609.490;    1.663;    0.000;10607.82773
 501.46;10894.240;    3.491;    0.000;10890.74898
 501.74;11103.250;    4.365;    0.000;11098.88500
 502.02;11331.040;    3.974;    0.000;11327.06629
 502.30;11612.630;    3.686;    0.000;11608.94363
 502.59;11802.460;    3.149;    0.000;11799.31121
 502.87;12041.790;    2.419;    0.000;12039.37129
 503.15;12243.450;    3.114;    0.000;12240.33645
 503.43;12534.160;    1.428;    0.000;12532.73266
 503.72;12734.870;    1.790;    0.000;12733.08012
 504.00;12996.680;    1.394;    0.000;12995.28594
 504.28;13173.060;    2.723;    0.000;13170.33707
 504.56;13409.200;    3.711;    0.000;13405.48895
 504.85;13663.790;    1.084;    0.000;13662.70629
 505.13;13837.120;    3.199;    0.000;13833.92137
 505.41;14134.590;    1.260;    0.000;14133.32984
 505.69;14404.130;    4.202;    0.000;14399.92738
 505.98;14609.870;    2.303;    0.000;14607.56762
 506.26;14886.810;    2.465;    0.000;14884.34457
 506.54;15032.090;    1.691;    0.000;15030.39859
 506.82;15296.670;    1.630;    0.000;15295.03992
 507.11;15519.860;    2.685;    0.000;15517.17535
 507.39;15752.820;    2.963;    0.000;15749.85781
 507.67;16027.750;    2.545;    0.000;16025.20500
 507.95;16207.350;    4.004;    0.000;16203.34586
 508.23;16545.900;    1.665;    0.000;16544.23539
 508.52;16688.670;    4.427;    0.000;16684.24242
 508.80;16924.900;    2.648;    0.000;16922.25289
 509.08;17179.289;    3.473;    0.000;17175.81656
 509.36;17412.449;    0.114;    0.000;17412.33547
 509.65;17679.760;    2.144;    0.000;17677.61602
 509.93;17864.010;    1.548;    0.000;17862.46227
 510.21;18163.750;    1.577;    0.000;18162.17250
 510.49;18329.330;    2.626;    0.000;18326.70383
 510.77;18555.051;    2.529;    0.000;18552.52203
 511.06;18800.779;    1.059;    0.000;18799.72055
 511.34;19045.100;    1.541;    0.000;19043.55836
 511.62;19254.199;   -1.497;    0.000;19255.69672
 511.90;19502.859;    3.204;    0.000;19499.65563
 512.18;19720.920;    1.067;    0.000;19719.85242
 512.47;19985.539;    5.470;    0.000;19980.06906
 512.75;20138.131;    1.100;    0.000;20137.03086
 513.03;20379.801;    4.050;    0.000;20375.75078
 513.31;20665.980;    1.416;    0.000;20664.56422
 513.59;20832.150;    3.094;    0.000;20829.05664
 513.87;21130.609;    1.499;    0.000;21129.11063
 514.16;21304.430;    3.134;    0.000;21301.29594
 514.44;21534.471;    1.394;    0.000;21533.07695
 514.72;21731.881;    3.402;    0.000;21728.47836
 515.00;21979.119;    2.842;    0.000;21976.27664
 515.28;22208.430;    3.527;    0.000;22204.90219
 515.56;22430.211;    2.730;    0.000;22427.48094
 515.85;22691.381;    0.644;    0.000;22690.73711
 516.13;22869.090;    2.204;    0.000;22866.88609
 516.41;23174.600;    1.971;    0.000;23172.62836
 516.69;23360.359;    3.354;    0.000;23357.00563
 516.97;23572.740;    4.766;    0.000;23567.97398
 517.25;23755.100;    2.075;    0.000;23753.02461
 517.54;24008.330;    4.198;    0.000;24004.13258
 517.82;24242.020;    2.642;    0.000;24239.37703
 518.10;24464.301;    1.928;    0.000;24462.37328
 518.38;24626.490;    3.320;    0.000;24623.17023
 518.66;24874.359;    3.017;    0.000;24871.34188
 518.94;25030.801;   -0.038;    0.000;25030.83828
 519.22;25309.881;    3.063;    0.000;25306.81836
 519.51;25507.410;    0.155;    0.000;25507.25516
 519.79;25665.801;   -0.216;    0.000;25666.01703
 520.07;25858.801;    3.670;    0.000;25855.13078
 520.35;26080.830;    3.328;    0.000;26077.50258
 520.63;26333.631;    2.414;    0.000;26331.21711
 520.91;26519.170;    0.201;    0.000;26518.96867
 521.19;26753.961;    3.025;    0.000;26750.93594
 521.47;26891.840;    1.909;    0.000;26889.93109
 521.75;27150.141;    2.081;    0.000;27148.05938
 522.04;27369.480;    2.229;    0.000;27367.25172
 522.32;27509.270;    0.170;    0.000;27509.09953
 522.60;27662.311;    3.899;    0.000;27658.41180
 522.88;27873.250;    3.216;    0.000;27870.03375
 523.16;27985.811;    2.065;    0.000;27983.74555
 523.44;28313.211;    2.495;    0.000;28310.71594
 523.72;28464.830;    3.304;    0.000;28461.52633
 524.00;28656.311;    2.655;    0.000;28653.65555
 524.28;28816.881;    2.943;    0.000;28813.93836
 524.57;28950.670;    2.586;    0.000;28948.08367
 524.85;29208.760;    4.845;    0.000;29203.91477
 525.13;29326.850;    4.231;    0.000;29322.61836
 525.41;29548.350;    1.692;    0.000;29546.65711
 525.69;29743.400;    1.334;    0.000;29742.06664
 525.97;29906.600;    4.061;    0.000;29902.53836
 526.25;30063.949;    0.954;    0.000;30062.99547
 526.53;30178.939;    4.273;    0.000;30174.66695
 526.81;30401.301;    0.319;    0.000;30400.98203
 527.09;30569.410;    1.679;    0.000;30567.73141
 527.37;30697.180;    0.134;    0.000;30697.04594
 527.65;30893.070;    3.938;    0.000;30889.13281
 527.93;31137.340;    1.886;    0.000;31135.45359
 528.22;31194.160;    3.976;    0.000;31190.18391
 528.50;31398.820;    1.497;    0.000;31397.32281
 528.78;31482.150;    4.605;    0.000;31477.54539
 529.06;31654.801;    3.001;    0.000;31651.79953
 529.34;31877.119;    3.697;    0.000;31873.42164
 529.62;32036.850;    2.995;    0.000;32033.85461
 529.90;32145.141;    2.693;    0.000;32142.44812
 530.18;32293.051;    0.646;    0.000;32292.40453
 530.46;32443.391;    3.618;    0.000;32439.77312
 530.74;32540.949;    4.294;    0.000;32536.65547
 531.02;32842.672;    2.640;    0.000;32840.03187
 531.30;32885.762;    0.880;    0.000;32884.88172
 531.58;33063.922;    3.714;    0.000;33060.20813
 531.86;33119.230;    2.035;    0.000;33117.19547
 532.14;33335.109;    4.215;    0.000;33330.89437
 532.42;33348.371;    2.910;    0.000;33345.46109
 532.70;33577.719;    3.036;    0.000;33574.68250
 532.98;33650.930;    0.534;    0.000;33650.39594
 533.26;33728.500;    2.263;    0.000;33726.23750
 533.54;33926.590;    1.962;    0.000;33924.62734
 533.82;34069.629;    4.854;    0.000;34064.77516
 534.10;34201.719;    3.501;    0.000;34198.21750
 534.38;34324.621;    0.683;    0.000;34323.93859
 534.66;34449.281;    4.026;    0.000;34445.25500
 534.94;34510.430;    2.694;    0.000;34507.73594
 535.22;34647.750;    2.501;    0.000;34645.24875
 535.50;34751.480;    1.347;    0.000;34750.13297
 535.78;34860.289;    4.506;    0.000;34855.78281
 536.06;34979.941;    5.009;    0.000;34974.93266
 536.34;35107.520;    2.092;    0.000;35105.42703
 536.62;35163.879;    3.473;    0.000;35160.40641
 536.90;35380.281;    4.017;    0.000;35376.26375
 537.18;35468.160;    2.636;    0.000;35465.52391
 537.46;35562.078;    0.501;    0.000;35561.57687
 537.74;35600.570;    3.977;    0.000;35596.59281
 538.02;35752.309;    5.509;    0.000;35746.79984
 538.30;35839.172;    5.718;    0.000;35833.45437
 538.58;35942.559;    2.925;    0.000;35939.63359
 538.86;36068.871;    4.149;    0.000;36064.72234
 539.14;36102.469;    3.205;    0.000;36099.26375
 539.42;36218.031;    5.500;    0.000;36212.53125
 539.70;36350.820;    1.393;    0.000;36349.42781
 539.98;36419.801;    2.892;    0.000;36416.90828
 540.26;36501.449;    1.592;    0.000;36499.85672
 540.54;36538.672;    4.443;    0.000;36534.22937
 540.82;36618.621;    1.806;    0.000;36616.81484
 541.10;36784.051;    4.010;    0.000;36780.04078
 541.38;36883.660;    2.525;    0.000;36881.13516
 541.66;36909.039;    4.036;    0.000;36905.00281
 541.94;37063.352;    5.741;    0.000;37057.61031
 542.22;37147.172;    6.370;    0.000;37140.80188
 542.50;37271.289;    2.181;    0.000;37269.10781
 542.78;37301.172;    3.706;    0.000;37297.46563
 543.06;37396.410;    1.092;    0.000;37395.31766
 543.34;37426.922;    4.554;    0.000;37422.36812
 543.62;37482.609;    1.795;    0.000;37480.81438
 543.90;37610.570;    2.027;    0.000;37608.54281
 544.17;37620.559;    2.539;    0.000;37618.01984
 544.45;37723.809;    5.716;    0.000;37718.09234
 544.73;37733.602;    3.084;    0.000;37730.51781
 545.01;37915.762;    3.473;    0.000;37912.28922
 545.29;37909.648;    4.139;    0.000;37905.50969
 545.57;38044.230;    5.057;    0.000;38039.17297
 545.85;38035.879;    3.080;    0.000;38032.79891
 546.13;38100.949;    3.045;    0.000;38097.90422
 546.41;38134.969;    5.004;    0.000;38129.96500
 546.69;38193.949;    5.885;    0.000;38188.06422
 546.97;38329.352;    3.510;    0.000;38325.84156
 547.25;38261.379;    5.443;    0.000;38255.93641
 547.52;38357.762;    6.606;    0.000;38351.15547
 547.80;38399.801;    4.670;    0.000;38395.13078
 548.08;38441.609;    2.263;    0.000;38439.34687
 548.36;38572.352;    4.355;    0.000;38567.99656
 548.64;38590.539;    4.756;    0.000;38585.78281
 548.92;38545.059;    3.705;    0.000;38541.35359
 549.20;38621.090;    3.259;    0.000;38617.83109
 549.48;38618.270;    4.170;    0.000;38614.09953
 549.76;38715.551;    4.735;    0.000;38710.81578
 550.04;38758.559;    5.597;    0.000;38752.96109
 550.31;38837.031;    1.956;    0.000;38835.07500
 550.59;38782.398;    3.471;    0.000;38778.92719
 550.87;38855.039;    2.305;    0.000;38852.73406
 551.15;38813.922;    5.196;    0.000;38808.72563
 551.43;38849.449;    2.901;    0.000;38846.54797
 551.71;38853.289;    4.271;    0.000;38849.01781
 551.99;38894.828;    2.554;    0.000;38892.27437
 552.27;38848.219;    4.544;    0.000;38843.67500
 552.54;38905.051;    3.098;    0.000;38901.95328
 552.82;38995.770;    2.580;    0.000;38993.18953
 553.10;38999.629;    3.609;    0.000;38996.02016
 553.38;39041.172;    5.986;    0.000;39035.18563
 553.66;39007.641;    4.290;    0.000;39003.35063
 553.94;39063.969;    0.865;    0.000;39063.10375
 554.22;39009.859;    4.026;    0.000;39005.83313
 554.49;39018.410;    1.909;    0.000;39016.50141
 554.77;39016.531;    3.175;    0.000;39013.35625
 555.05;39020.289;    4.770;    0.000;39015.51906
 555.33;39014.211;    3.230;    0.000;39010.98094
 555.61;38987.590;    3.481;    0.000;38984.10859
 555.89;38986.738;    0.751;    0.000;38985.98703
 556.16;38988.672;    1.086;    0.000;38987.58563
 556.44;39042.770;    1.997;    0.000;39040.77203
 556.72;39025.230;    5.874;    0.000;39019.35672
 557.00;38993.750;    2.216;    0.000;38991.53375
 557.28;38937.328;    2.520;    0.000;38934.80813
 557.56;38946.859;    1.341;    0.000;38945.51813
 557.83;38944.629;    6.726;    0.000;38937.90266
 558.11;38889.000;    6.404;    0.000;38882.59625
 558.39;38882.148;    2.997;    0.000;38879.15094
 558.67;38912.711;    1.645;    0.000;38911.06594
 558.95;38880.461;    1.871;    0.000;38878.58969
 559.23;38898.320;    3.966;    0.000;38894.35406
 559.50;38869.059;    3.114;    0.000;38865.94484
 559.78;38830.020;    2.484;    0.000;38827.53578
 560.06;38769.281;    3.674;    0.000;38765.60750
 560.34;38750.320;    4.381;    0.000;38745.93906
 560.62;38699.250;    5.099;    0.000;38694.15125
 560.89;38694.988;    3.236;    0.000;38691.75203
 561.17;38599.289;    3.039;    0.000;38596.25031
 561.45;38641.691;    6.720;    0.000;38634.97141
 561.73;38595.160;    3.614;    0.000;38591.54641
 562.00;38478.020;    1.837;    0.000;38476.18203
 562.28;38518.559;    4.736;    0.000;38513.82234
 562.56;38484.410;    3.688;    0.000;38480.72266
 562.84;38401.109;    5.670;    0.000;38395.43937
 563.12;38351.191;    1.199;    0.000;38349.99266
 563.39;38278.578;    2.850;    0.000;38275.72813
 563.67;38262.301;    4.331;    0.000;38257.96953
 563.95;38147.738;    3.725;    0.000;38144.01328
 564.23;38092.680;    0.817;    0.000;38091.86219
 564.50;38087.172;    3.756;    0.000;38083.41563
 564.78;38022.270;    4.778;    0.000;38017.49203
 565.06;37939.039;    4.095;    0.000;37934.94406
 565.34;37925.238;    3.490;    0.000;37921.74828
 565.61;37857.352;    3.579;    0.000;37853.77281
 565.89;37759.352;    4.356;    0.000;37754.99531
 566.17;37684.461;    1.107;    0.000;37683.35344
 566.45;37617.012;    3.446;    0.000;37613.56547
 566.73;37548.809;    4.733;    0.000;37544.07609
 567.00;37498.121;    2.011;    0.000;37496.10984
 567.28;37447.551;    4.403;    0.000;37443.14828
 567.56;37390.371;    4.230;    0.000;37386.14109
 567.83;37299.211;    4.820;    0.000;37294.39094
 568.11;37189.859;    4.360;    0.000;37185.49937
 568.39;37095.309;    3.311;    0.000;37091.99734
 568.67;37050.719;    4.975;    0.000;37045.74375
 568.94;36978.250;    4.472;    0.000;36973.77750
 569.22;36924.762;    2.889;    0.000;36921.87297
 569.50;36835.230;    2.293;    0.000;36832.93797
 569.78;36683.359;    0.215;    0.000;36683.14437
 570.05;36647.789;    2.606;    0.000;36645.18281
 570.33;36503.410;    2.001;    0.000;36501.40891
 570.61;36468.910;    5.050;    0.000;36463.86016
 570.88;36358.922;    1.764;    0.000;36357.15813
 571.16;36252.059;    2.787;    0.000;36249.27109
 571.44;36146.699;    0.548;    0.000;36146.15172
 571.72;36090.578;    2.101;    0.000;36088.47688
 571.99;35966.160;    2.487;    0.000;35963.67266
 572.27;35821.059;    2.940;    0.000;35818.11859
 572.55;35704.172;    2.769;    0.000;35701.40313
 572.82;35655.680;    3.071;    0.000;35652.60844
 573.10;35544.809;    4.463;    0.000;35540.34609
 573.38;35439.578;    4.084;    0.000;35435.49438
 573.65;35306.309;    4.691;    0.000;35301.61734
 573.93;35193.051;    2.601;    0.000;35190.44953
 574.21;35162.641;    2.024;    0.000;35160.61687
 574.48;35024.121;    4.831;    0.000;35019.28984
 574.76;34860.281;    4.536;    0.000;34855.74500
 575.04;34736.172;    5.972;    0.000;34730.19938
 575.32;34629.719;    0.036;    0.000;34629.68250
 575.59;34551.129;    5.807;    0.000;34545.32141
 575.87;34363.500;    3.089;    0.000;34360.41125
 576.15;34350.551;    4.832;    0.000;34345.71828
 576.42;34143.789;    1.260;    0.000;34142.52906
 576.70;34047.250;    2.868;    0.000;34044.38250
 576.98;33888.680;    4.479;    0.000;33884.20094
 577.25;33782.590;    3.994;    0.000;33778.59609
 577.53;33756.762;    2.311;    0.000;33754.45047
 577.80;33500.102;    4.555;    0.000;33495.54656
 578.08;33415.070;    1.016;    0.000;33414.05406
 578.36;33267.641;    3.935;    0.000;33263.70563
 578.63;33196.020;    2.959;    0.000;33193.06078
 578.91;33031.781;    3.149;    0.000;33028.63250
 579.19;32887.699;    3.899;    0.000;32883.80047
 579.46;32816.309;    3.882;    0.000;32812.42609
 579.74;32564.400;    0.826;    0.000;32563.57414
 580.02;32536.760;    0.681;    0.000;32536.07852
 580.29;32360.211;    3.734;    0.000;32356.47719
 580.57;32287.971;    2.340;    0.000;32285.63070
 580.84;32068.500;    1.306;    0.000;32067.19375
 581.12;31944.051;    4.154;    0.000;31939.89703
 581.40;31831.330;    2.944;    0.000;31828.38633
 581.67;31733.369;    4.294;    0.000;31729.07539
 581.95;31558.920;    1.742;    0.000;31557.17742
 582.23;31428.850;    2.881;    0.000;31425.96836
 582.50;31198.230;    4.459;    0.000;31193.77172
 582.78;31096.471;    2.859;    0.000;31093.61195
 583.05;30837.301;    3.785;    0.000;30833.51578
 583.33;30731.660;    2.399;    0.000;30729.26141
 583.61;30640.061;    6.227;    0.000;30633.83305
 583.88;30448.859;    3.654;    0.000;30445.20563
 584.16;30263.150;    1.746;    0.000;30261.40414
 584.43;30122.000;    3.211;    0.000;30118.78875
 584.71;30050.949;    2.947;    0.000;30048.00172
 584.99;29883.551;    3.717;    0.000;29879.83328
 585.26;29755.490;    2.017;    0.000;29753.47273
 585.54;29629.010;    1.204;    0.000;29627.80602
 585.81;29439.891;    4.169;    0.000;29435.72188
 586.09;29272.699;    3.445;    0.000;29269.25422
 586.37;29108.529;    1.883;    0.000;29106.64680
 586.64;28987.311;    4.314;    0.000;28982.99680
 586.92;28816.570;    1.679;    0.000;28814.89156
 587.19;28665.080;    3.080;    0.000;28662.00008
 587.47;28538.789;    2.747;    0.000;28536.04156
 587.74;28408.490;    4.613;    0.000;28403.87773
 588.02;28206.699;    4.313;    0.000;28202.38672
 588.30;28094.980;    3.340;    0.000;28091.64047
 588.57;27922.830;    3.376;    0.000;27919.45383
 588.85;27707.090;    4.094;    0.000;27702.99609
 589.12;27622.061;    4.117;    0.000;27617.94305
 589.40;27468.330;    2.787;    0.000;27465.54258
 589.67;27294.520;    2.685;    0.000;27291.83453
 589.95;27218.520;    7.534;    0.000;27210.98578
 590.22;27005.900;    2.001;    0.000;27003.89914
 590.50;26868.721;    3.696;    0.000;26865.02445
 590.77;26745.320;    1.840;    0.000;26743.48031
 591.05;26614.080;    4.359;    0.000;26609.72133
 591.33;26460.801;    1.175;    0.000;26459.62578
 591.60;26251.840;    1.119;    0.000;26250.72109
 591.88;26148.850;    4.168;    0.000;26144.68211
 592.15;25935.811;    3.402;    0.000;25932.40805
 592.43;25837.590;    2.320;    0.000;25835.26984
 592.70;25555.160;    3.095;    0.000;25552.06516
 592.98;25468.199;    3.245;    0.000;25464.95422
 593.25;25331.289;    3.697;    0.000;25327.59156
 593.53;25141.670;    2.335;    0.000;25139.33492
 593.80;24961.400;    3.291;    0.000;24958.10914
 594.08;24808.109;    1.874;    0.000;24806.23563
 594.35;24729.330;    4.060;    0.000;24725.27008
 594.63;24471.131;    2.872;    0.000;24468.25836
 594.90;24337.990;    2.609;    0.000;24335.38148
 595.18;24129.689;    3.821;    0.000;24125.86820
 595.45;23970.061;    4.101;    0.000;23965.95930
 595.73;23834.359;    3.088;    0.000;23831.27187
 596.00;23707.420;    5.176;    0.000;23702.24367
 596.28;23524.580;    2.150;    0.000;23522.43008
 596.55;23333.301;    4.939;    0.000;23328.36203
 596.83;23233.670;    1.852;    0.000;23231.81742
 597.10;23056.961;    4.657;    0.000;23052.30344
 597.38;22893.971;    3.055;    0.000;22890.91570
 597.65;22691.561;    2.369;    0.000;22689.19180
 597.93;22559.980;    0.613;    0.000;22559.36797
 598.20;22401.109;    3.918;    0.000;22397.19187
 598.48;22169.740;    1.860;    0.000;22167.88023
 598.75;22091.650;    3.500;    0.000;22088.15039
 599.03;21919.199;    4.341;    0.000;21914.85797
 599.30;21800.240;    1.952;    0.000;21798.28773
 599.58;21595.400;    3.211;    0.000;21592.18914
 599.85;21442.660;    5.479;    0.000;21437.18141
 600.12;21310.490;    2.605;    0.000;21307.88523
 600.40;21083.301;    4.610;    0.000;21078.69078
 600.67;20958.039;    3.875;    0.000;20954.16406
 600.95;20796.580;    3.932;    0.000;20792.64758
 601.22;20659.289;    4.343;    0.000;20654.94656
 601.50;20556.650;    3.861;    0.000;20552.78914
 601.77;20388.881;    2.813;    0.000;20386.06836
 602.05;20226.270;    3.898;    0.000;20222.37203
 602.32;20038.270;    2.983;    0.000;20035.28703
 602.59;20003.119;    2.529;    0.000;20000.59039
 602.87;19779.061;    4.855;    0.000;19774.20555
 603.14;19689.340;    3.612;    0.000;19685.72734
 603.42;19517.801;    2.557;    0.000;19515.24328
 603.69;19327.051;    1.731;    0.000;19325.31953
 603.97;19205.650;    4.331;    0.000;19201.31914
 604.24;19135.859;    3.800;    0.000;19132.05938
 604.51;18956.131;    3.688;    0.000;18952.44336
 604.79;18806.670;    3.882;    0.000;18802.78742
 605.06;18676.881;    3.945;    0.000;18672.93586
 605.34;18558.340;    4.537;    0.000;18553.80234
 605.61;18466.500;    2.057;    0.000;18464.44250
 605.89;18338.340;    3.287;    0.000;18335.05234
 606.16;18187.760;    4.349;    0.000;18183.41102
 606.43;18062.520;    5.481;    0.000;18057.03828
 606.71;17942.850;    2.475;    0.000;17940.37461
 606.98;17867.670;    2.328;    0.000;17865.34242
 607.26;17686.461;    3.761;    0.000;17682.69969
 607.53;17572.311;    2.716;    0.000;17569.59430
 607.80;17514.891;    2.881;    0.000;17512.00938
 608.08;17346.539;    3.045;    0.000;17343.49406
 608.35;17205.109;    3.132;    0.000;17201.97688
 608.62;17112.020;    2.546;    0.000;17109.47328
 608.90;16999.760;    1.881;    0.000;16997.87852
 609.17;16908.410;    1.808;    0.000;16906.60266
 609.45;16745.631;    3.072;    0.000;16742.55836
 609.72;16670.670;    4.076;    0.000;16666.59367
 609.99;16644.240;    1.740;    0.000;16642.50023
 610.27;16431.760;    3.930;    0.000;16427.82977
 610.54;16336.350;   -0.248;    0.000;16336.59711
 610.81;16218.080;    3.979;    0.000;16214.10133
 611.09;16141.290;    2.641;    0.000;16138.64879
 611.36;16058.830;    0.728;    0.000;16058.10258
 611.64;15912.760;    3.644;    0.000;15909.11602
 611.91;15776.480;    2.205;    0.000;15774.27547
 612.18;15745.530;    3.130;    0.000;15742.40027
 612.46;15603.200;    4.631;    0.000;15598.56895
 612.73;15496.560;    1.941;    0.000;15494.61832
 613.00;15400.450;    3.451;    0.000;15396.99895
 613.28;15294.150;    2.829;    0.000;15291.32164
 613.55;15091.020;    5.354;    0.000;15085.66578
 613.82;15058.770;    2.598;    0.000;15056.17203
 614.10;14845.060;    2.566;    0.000;14842.49332
 614.37;14719.850;    0.998;    0.000;14718.85211
 614.64;14581.670;    1.727;    0.000;14579.94242
 614.92;14401.150;    1.755;    0.000;14399.39539
 615.19;14251.260;    3.310;    0.000;14247.94977
 615.46;14099.020;    3.815;    0.000;14095.20453
 615.74;13893.190;    3.493;    0.000;13889.69793
 616.01;13696.340;   -0.661;    0.000;13697.00109
 616.28;13435.990;    3.483;    0.000;13432.50773
 616.56;13212.230;    1.890;    0.000;13210.34047
 616.83;13004.480;    2.476;    0.000;13002.00422
 617.10;12924.080;    4.282;    0.000;12919.79758
 617.37;12884.540;    2.747;    0.000;12881.79254
 617.65;12989.590;    1.979;    0.000;12987.61109
 617.92;13113.070;    3.259;    0.000;13109.81156
 618.19;12977.990;    3.304;    0.000;12974.68648
 618.47;12895.680;    2.418;    0.000;12893.26219
 618.74;12809.910;    2.545;    0.000;12807.36516
 619.01;12796.300;    5.466;    0.000;12790.83355
 619.28;12710.000;    6.039;    0.000;12703.96125
 619.56;12666.360;    4.155;    0.000;12662.20535
 619.83;12573.650;    3.957;    0.000;12569.69289
 620.10;12531.070;    3.467;    0.000;12527.60281
 620.38;12436.280;    2.330;    0.000;12433.95027
 620.65;12364.340;    3.352;    0.000;12360.98734
 620.92;12294.820;    2.168;    0.000;12292.65281
 621.19;12314.410;    4.168;    0.000;12310.24266
 621.47;12314.200;    0.951;    0.000;12313.24895
 621.74;12342.800;    4.323;    0.000;12338.47730
 622.01;12356.390;    1.462;    0.000;12354.92715
 622.28;12344.810;    4.025;    0.000;12340.78457
 622.56;12287.710;    2.351;    0.000;12285.35871
 622.83;12225.780;    1.730;    0.000;12224.05027
 623.10;12171.600;    2.729;    0.000;12168.87086
 623.38;12112.650;    2.005;    0.000;12110.64539
 623.65;12053.400;    4.239;    0.000;12049.16164
 623.92;12026.410;    1.536;    0.000;12024.87391
 624.19;11953.020;   -0.880;    0.000;11953.89953
 624.46;11901.490;    3.061;    0.000;11898.42898
 624.74;11872.770;    3.045;    0.000;11869.72453
 625.01;11808.030;    5.025;    0.000;11803.00527
 625.28;11749.410;    1.938;    0.000;11747.47266
 625.55;11728.350;    1.933;    0.000;11726.41711
 625.83;11641.300;    3.122;    0.000;11638.17730
 626.10;11570.370;    3.759;    0.000;11566.61137
 626.37;11525.990;    1.891;    0.000;11524.09898
 626.64;11509.770;    2.188;    0.000;11507.58203
 626.92;11394.220;    1.146;    0.000;11393.07348
 627.19;11396.910;    3.395;    0.000;11393.51516
 627.46;11345.850;    1.855;    0.000;11343.99461
 627.73;11288.060;   -0.625;    0.000;11288.68457
 628.00;11227.670;    4.034;    0.000;11223.63617
 628.28;11169.910;    2.981;    0.000;11166.92891
 628.55;11151.620;    0.068;    0.000;11151.55262
 628.82;11084.790;    1.947;    0.000;11082.84254
 629.09;11024.900;    4.360;    0.000;11020.54039
 629.36;11004.040;    5.664;    0.000;10998.37629
 629.64;10931.510;    0.757;    0.000;10930.75227
 629.91;10935.770;    6.573;    0.000;10929.19703
 630.18;10825.820;    3.014;    0.000;10822.80656
 630.45;10756.590;    0.545;    0.000;10756.04484
 630.72;10721.870;   -1.060;    0.000;10722.93012
 631.00;10721.270;    1.430;    0.000;10719.83953
 631.27;10644.790;    2.735;    0.000;10642.05504
 631.54;10585.340;    1.822;    0.000;10583.51734
 631.81;10544.020;    3.679;    0.000;10540.34078
 632.08;10499.760;    3.724;    0.000;10496.03602
 632.35;10459.010;    2.265;    0.000;10456.74477
 632.63;10384.170;    4.170;    0.000;10379.99992
 632.90;10361.680;    2.181;    0.000;10359.49844
 633.17;10323.840;    1.319;    0.000;10322.52109
 633.44;10289.350;    3.421;    0.000;10285.92836
 633.71;10235.480;    3.719;    0.000;10231.76172
 633.98;10243.170;    0.863;    0.000;10242.30742
 634.25;10241.260;    4.139;    0.000;10237.12102
 634.53;10205.170;    3.731;    0.000;10201.43867
 634.80;10171.680;    2.301;    0.000;10169.37844
 635.07;10154.380;    2.280;    0.000;10152.09988
 635.34;10155.880;    4.559;    0.000;10151.32113
 635.61;10154.510;    4.886;    0.000;10149.62352
 635.88;10183.630;    2.765;    0.000;10180.86488
 636.15;10173.870;    3.779;    0.000;10170.09137
 636.43;10219.220;    3.138;    0.000;10216.08223
 636.70;10207.450;    0.309;    0.000;10207.14145
 636.97;10168.110;    0.026;    0.000;10168.08410
 637.24;10052.870;    2.896;    0.000;10049.97387
 637.51; 9897.010;    4.227;    0.000;9892.78227
 637.78; 9724.260;    1.205;    0.000;9723.05477
 638.05; 9652.450;   -0.521;    0.000;9652.97145
 638.32; 9655.420;    4.594;    0.000;9650.82617
 638.60; 9552.810;    1.989;    0.000;9550.82082
 638.87; 9499.350;    0.371;    0.000;9498.97836
 639.14; 9449.430;    4.139;    0.000;9445.29094
 639.41; 9338.630;    0.873;    0.000;9337.75738
 639.68; 9301.000;    3.072;    0.000;9297.92750
 639.95; 9217.560;    1.040;    0.000;9216.51957
 640.22; 9195.830;    3.735;    0.000;9192.09508
 640.49; 9143.900;    2.639;    0.000;9141.26164
 640.76; 9032.350;    5.461;    0.000;9026.88836
 641.03; 8966.630;    0.767;    0.000;8965.86238
 641.30; 8844.550;    4.760;    0.000;8839.78980
 641.58; 8753.900;    0.679;    0.000;8753.22164
 641.85; 8662.510;    3.010;    0.000;8659.49977
 642.12; 8570.640;    1.204;    0.000;8569.43590
 642.39; 8477.790;    4.154;    0.000;8473.63629
 642.66; 8451.750;    1.847;    0.000;8449.90250
 642.93; 8366.520;    1.470;    0.000;8365.04953
 643.20; 8298.860;    1.317;    0.000;8297.54285
 643.47; 8248.820;    3.454;    0.000;8245.36656
 643.74; 8202.880;    0.748;    0.000;8202.13238
 644.01; 8136.900;    3.763;    0.000;8133.13740
 644.28; 8083.480;    0.605;    0.000;8082.87498
 644.55; 8028.070;    2.486;    0.000;8025.58357
 644.82; 7971.250;    2.384;    0.000;7968.86625
 645.09; 7915.010;    0.360;    0.000;7914.64977
 645.36; 7868.450;    3.155;    0.000;7865.29520
 645.63; 7831.310;    2.894;    0.000;7828.41631
 645.91; 7765.020;    3.947;    0.000;7761.07252
 646.18; 7749.800;    3.690;    0.000;7746.10980
 646.45; 7666.330;    0.995;    0.000;7665.33508
 646.72; 7631.050;    1.101;    0.000;7629.94855
 646.99; 7582.770;    1.396;    0.000;7581.37377
 647.26; 7522.850;    1.024;    0.000;7521.82635
 647.53; 7462.760;    1.119;    0.000;7461.64102
 647.80; 7452.840;    1.765;    0.000;7451.07484
 648.07; 7364.560;    0.945;    0.000;7363.61506
 648.34; 7337.990;    1.820;    0.000;7336.17023
 648.61; 7282.170;    1.154;    0.000;7281.01617
 648.88; 7253.800;    2.699;    0.000;7251.10105
 649.15; 7177.060;    1.045;    0.000;7176.01506
 649.42; 7145.270;    2.971;    0.000;7142.29877
 649.69; 7103.770;   -1.864;    0.000;7105.63377
 649.96; 7068.320;    0.123;    0.000;7068.19732
 650.23; 7034.630;   -1.247;    0.000;7035.87738
 650.50; 6979.470;    2.479;    0.000;6976.99146
 650.77; 6955.840;   -0.845;    0.000;6956.68484
 651.04; 6905.770;    4.423;    0.000;6901.34752
 651.31; 6820.150;    1.202;    0.000;6818.94740
 651.58; 6809.740;    1.992;    0.000;6807.74773
 651.85; 6745.520;    0.651;    0.000;6744.86877
 652.12; 6730.310;    1.250;    0.000;6729.06006
 652.39; 6678.990;    2.362;    0.000;6676.62773
 652.66; 6630.170;    3.281;    0.000;6626.88867
 652.93; 6600.920;    2.255;    0.000;6598.66492
 653.20; 6526.380;    2.949;    0.000;6523.43113
 653.47; 6497.920;    0.469;    0.000;6497.45117
 653.74; 6439.150;    4.386;    0.000;6434.76365
 654.01; 6424.440;    2.973;    0.000;6421.46744
 654.28; 6360.150;    1.301;    0.000;6358.84865
 654.55; 6348.980;   -1.832;    0.000;6350.81248
 654.81; 6265.880;    3.639;    0.000;6262.24113
 655.08; 6210.160;    0.624;    0.000;6209.53641
 655.35; 6207.180;    4.320;    0.000;6202.86018
 655.62; 6120.480;   -1.529;    0.000;6122.00873
 655.89; 6108.440;    2.852;    0.000;6105.58744
 656.16; 6031.430;    0.510;    0.000;6030.92018
 656.43; 6016.840;    3.440;    0.000;6013.39984
 656.70; 6010.730;    1.716;    0.000;6009.01373
 656.97; 5940.680;    2.947;    0.000;5937.73268
 657.24; 5859.170;    2.443;    0.000;5856.72742
 657.51; 5859.380;    5.190;    0.000;5854.18988
 657.78; 5860.600;    2.088;    0.000;5858.51260
 658.05; 5801.960;    2.378;    0.000;5799.58246
 658.32; 5756.660;    2.024;    0.000;5754.63641
 658.59; 5729.910;    2.130;    0.000;5727.78016
 658.86; 5653.540;    1.824;    0.000;5651.71629
 659.12; 5641.910;    2.666;    0.000;5639.24391
 659.39; 5570.820;    1.124;    0.000;5569.69607
 659.66; 5546.270;    3.401;    0.000;5542.86877
 659.93; 5522.190;    1.985;    0.000;5520.20494
 660.20; 5470.990;    3.110;    0.000;5467.88023
 660.47; 5429.180;    2.070;    0.000;5427.11018
 660.74; 5416.780;    1.519;    0.000;5415.26104
 661.01; 5370.300;    5.176;    0.000;5365.12355
 661.28; 5333.180;    1.305;    0.000;5331.87518
 661.55; 5301.350;    3.871;    0.000;5297.47885
 661.81; 5245.520;    0.349;    0.000;5245.17127
 662.08; 5225.120;   -1.056;    0.000;5226.17637
 662.35; 5188.520;    0.981;    0.000;5187.53877
 662.62; 5142.360;    0.535;    0.000;5141.82486
 662.89; 5098.010;    3.275;    0.000;5094.73477
 663.16; 5075.200;   -0.139;    0.000;5075.33895
 663.43; 4988.430;    1.344;    0.000;4987.08643
 663.70; 4991.030;    3.266;    0.000;4987.76354
 663.96; 4961.730;    1.253;    0.000;4960.47748
 664.23; 4937.390;    0.530;    0.000;4936.86014
 664.50; 4880.570;    2.487;    0.000;4878.08232
 664.77; 4836.250;   -0.877;    0.000;4837.12750
 665.04; 4809.110;    3.953;    0.000;4805.15736
 665.31; 4757.140;    0.842;    0.000;4756.29764
 665.58; 4730.190;    2.457;    0.000;4727.73244
 665.84; 4720.170;    0.780;    0.000;4719.38992
 666.11; 4662.890;    4.791;    0.000;4658.09889
 666.38; 4649.760;   -0.827;    0.000;4650.58727
 666.65; 4625.650;    2.049;    0.000;4623.60115
 666.92; 4576.020;   -1.602;    0.000;4577.62252
 667.19; 4551.320;    2.217;    0.000;4549.10232
 667.46; 4511.120;    0.044;    0.000;4511.07637
 667.72; 4477.160;    2.615;    0.000;4474.54516
 667.99; 4430.090;    1.617;    0.000;4428.47234
 668.26; 4419.470;    4.448;    0.000;4415.02271
 668.53; 4371.970;    1.530;    0.000;4370.44021
 668.80; 4375.590;    1.789;    0.000;4373.80109
 669.06; 4309.130;    3.941;    0.000;4305.18863
 669.33; 4292.650;    4.309;    0.000;4288.34115
 669.60; 4245.770;    0.438;    0.000;4245.33252
 669.87; 4221.170;    1.599;    0.000;4219.57117
 670.14; 4190.650;   -0.375;    0.000;4191.02490
 670.41; 4151.800;    1.401;    0.000;4150.39855
 670.67; 4132.190;    2.004;    0.000;4130.18619
 670.94; 4076.900;    0.808;    0.000;4076.09240
 671.21; 4067.260;    2.151;    0.000;4065.10876
 671.48; 4043.620;   -0.835;    0.000;4044.45512
 671.75; 3968.650;    2.424;    0.000;3966.22615
 672.01; 3960.570;    3.504;    0.000;3957.06632
 672.28; 3934.740;    1.559;    0.000;3933.18124
 672.55; 3926.700;    3.671;    0.000;3923.02870
 672.82; 3850.840;    1.102;    0.000;3849.73759
 673.08; 3852.680;    2.175;    0.000;3850.50493
 673.35; 3816.520;   -0.296;    0.000;3816.81627
 673.62; 3782.940;    0.715;    0.000;3782.22494
 673.89; 3719.660;   -1.376;    0.000;3721.03616
 674.16; 3698.650;    2.699;    0.000;3695.95115
 674.42; 3701.380;    3.569;    0.000;3697.81113
 674.69; 3665.900;    0.779;    0.000;3665.12115
 674.96; 3629.110;    1.980;    0.000;3627.13011
 675.23; 3587.720;    2.409;    0.000;3585.31122
 675.49; 3562.030;    1.455;    0.000;3560.57503
 675.76; 3520.100;    3.918;    0.000;3516.18260
 676.03; 3525.170;    2.640;    0.000;3522.52992
 676.30; 3475.950;    3.191;    0.000;3472.75870
 676.56; 3459.290;    1.544;    0.000;3457.74629
 676.83; 3431.970;    2.005;    0.000;3429.96497
 677.10; 3412.210;    0.876;    0.000;3411.33371
 677.37; 3383.150;    5.404;    0.000;3377.74615
 677.63; 3341.720;   -0.745;    0.000;3342.46497
 677.90; 3322.390;    4.010;    0.000;3318.37989
 678.17; 3303.830;    1.760;    0.000;3302.07008
 678.44; 3279.370;    2.400;    0.000;3276.97012
 678.70; 3233.980;    1.548;    0.000;3232.43248
 678.97; 3241.360;    1.459;    0.000;3239.90136
 679.24; 3190.810;    0.824;    0.000;3189.98631
 679.50; 3151.700;    2.297;    0.000;3149.40245
 679.77; 3141.610;    0.320;    0.000;3141.29011
 680.04; 3121.970;    0.405;    0.000;3121.56497
 680.31; 3103.730;   -0.887;    0.000;3104.61748
 680.57; 3090.820;    2.870;    0.000;3087.95007
 680.84; 3041.870;    1.740;    0.000;3040.13012
 681.11; 3026.660;    1.115;    0.000;3025.54491
 681.37; 2999.480;   -1.815;    0.000;3001.29498
 681.64; 2958.070;   -0.892;    0.000;2958.96257
 681.91; 2936.720;    4.430;    0.000;2932.28997
 682.17; 2929.820;    3.001;    0.000;2926.81882
 682.44; 2891.820;   -1.503;    0.000;2893.32257
 682.71; 2863.720;    3.140;    0.000;2860.57997
 682.98; 2848.210;    1.636;    0.000;2846.57371
 683.24; 2811.140;   -0.827;    0.000;2811.96739
 683.51; 2806.120;    0.954;    0.000;2805.16637
 683.78; 2788.480;    1.344;    0.000;2787.13623
 684.04; 2771.430;    1.450;    0.000;2769.97993
 684.31; 2720.050;    0.043;    0.000;2720.00755
 684.58; 2710.300;    1.136;    0.000;2709.16380
 684.84; 2705.850;    2.069;    0.000;2703.78135
 685.11; 2662.870;    3.858;    0.000;2659.01262
 685.38; 2658.080;    4.713;    0.000;2653.36758
 685.64; 2628.860;    0.870;    0.000;2627.99011
 685.91; 2613.840;   -0.069;    0.000;2613.90884
 686.17; 2585.820;    2.316;    0.000;2583.50382
 686.44; 2596.630;   -0.858;    0.000;2597.48738
 686.71; 2546.090;    1.816;    0.000;2544.27384
 686.97; 2541.230;   -1.670;    0.000;2542.89998
 687.24; 2505.490;    0.944;    0.000;2504.54624
 687.51; 2497.380;    0.550;    0.000;2496.82988
 687.77; 2471.630;    1.104;    0.000;2470.52613
 688.04; 2452.860;    1.634;    0.000;2451.22636
 688.31; 2422.500;    2.836;    0.000;2419.66375
 688.57; 2418.980;    1.955;    0.000;2417.02498
 688.84; 2400.380;    1.581;    0.000;2398.79863
 689.10; 2375.360;    3.057;    0.000;2372.30261
 689.37; 2363.050;    1.930;    0.000;2361.12005
 689.64; 2342.870;    0.310;    0.000;2342.56012
 689.90; 2316.980;    1.576;    0.000;2315.40373
 690.17; 2279.590;    3.089;    0.000;2276.50134
 690.44; 2259.270;   -0.029;    0.000;2259.29877
 690.70; 2247.880;    2.069;    0.000;2245.81113
 690.97; 2230.570;    0.464;    0.000;2230.10632
 691.23; 2204.260;    2.264;    0.000;2201.99626
 691.50; 2174.460;    0.368;    0.000;2174.09246
 691.77; 2184.850;    3.309;    0.000;2181.54135
 692.03; 2140.370;   -0.905;    0.000;2141.27512
 692.30; 2135.790;    1.190;    0.000;2134.60004
 692.56; 2098.980;    0.126;    0.000;2098.85373
 692.83; 2088.010;    0.384;    0.000;2087.62626
 693.10; 2045.130;    3.125;    0.000;2042.00500
 693.36; 2049.530;    2.911;    0.000;2046.61878
 693.63; 2013.690;    0.608;    0.000;2013.08244
 693.89; 1989.090;   -0.538;    0.000;1989.62747
 694.16; 1985.730;    0.642;    0.000;1985.08748
 694.42; 1966.690;    0.609;    0.000;1966.08119
 694.69; 1944.110;    3.661;    0.000;1940.44874
 694.96; 1937.560;    3.156;    0.000;1934.40381
 695.22; 1896.900;    2.274;    0.000;1894.62627
 695.49; 1892.650;    3.946;    0.000;1888.70377
 695.75; 1848.550;    2.188;    0.000;1846.36255
 696.02; 1841.800;    2.641;    0.000;1839.15880
 696.28; 1829.330;    2.575;    0.000;1826.75496
 696.55; 1817.940;    1.420;    0.000;1816.51994
 696.81; 1778.110;    1.639;    0.000;1776.47124
 697.08; 1779.770;    0.668;    0.000;1779.10252
 697.34; 1751.810;    0.815;    0.000;1750.99506
 697.61; 1733.300;    1.273;    0.000;1732.02755
 697.88; 1696.580;    0.400;    0.000;1696.17996
 698.14; 1683.990;    0.565;    0.000;1683.42499
 698.41; 1658.820;    2.316;    0.000;1656.50370
 698.67; 1646.740;    0.394;    0.000;1646.34624
 698.94; 1621.090;   -0.249;    0.000;1621.33872
 699.20; 1613.210;   -1.043;    0.000;1614.25246
 699.47; 1574.950;    3.237;    0.000;1571.71245
 699.73; 1567.040;    2.318;    0.000;1564.72254
 700.00; 1548.590;   -2.205;    0.000;1550.79497
 700.26; 1539.100;    1.921;    0.000;1537.17873
 700.53; 1507.810;   -0.345;    0.000;1508.15506
 700.79; 1495.190;    2.044;    0.000;1493.14619
 701.06; 1479.360;    1.224;    0.000;1478.13624
 701.32; 1451.400;    3.382;    0.000;1448.01752
 701.59; 1434.280;    0.240;    0.000;1434.04003
 701.85; 1420.920;   -1.337;    0.000;1422.25754
 702.12; 1396.770;   -0.553;    0.000;1397.32252
 702.38; 1374.810;    0.720;    0.000;1374.09006
 702.65; 1351.240;    2.704;    0.000;1348.53624
 702.91; 1348.060;    3.130;    0.000;1344.93006
 703.18; 1320.680;    0.159;    0.000;1320.52130
 703.44; 1281.390;    2.589;    0.000;1278.80126
 703.71; 1271.600;    0.451;    0.000;1271.14873
 703.97; 1261.740;    1.933;    0.000;1259.80749
 704.24; 1237.470;    2.733;    0.000;1234.73747
 704.50; 1226.980;   -1.066;    0.000;1228.04623
 704.76; 1212.430;    0.973;    0.000;1211.45755
 705.03; 1200.270;    3.154;    0.000;1197.11627
 705.29; 1156.900;   -1.855;    0.000;1158.75502
 705.56; 1150.810;    0.824;    0.000;1149.98631
 705.82; 1124.770;    1.599;    0.000;1123.17127
 706.09; 1126.810;    3.196;    0.000;1123.61381
 706.35; 1084.880;   -0.994;    0.000;1085.87375
 706.62; 1076.160;    3.101;    0.000;1073.05878
 706.88; 1053.150;    0.259;    0.000;1052.89127
 707.15; 1033.470;    2.235;    0.000;1031.23497
 707.41; 1015.520;    1.023;    0.000;1014.49752
 707.67; 1003.320;    2.314;    0.000;1001.00626
 707.94; 1011.340;    0.341;    0.000;1010.99878
 708.20;  983.730;    2.445;    0.000;981.28498
 708.47;  980.230;    0.235;    0.000;979.99498
 708.73;  965.510;    1.543;    0.000;963.96751
 709.00;  932.520;    1.543;    0.000;930.97752
 709.26;  936.150;    3.355;    0.000;932.79502
 709.52;  919.550;    1.150;    0.000;918.39999
 709.79;  894.800;    2.364;    0.000;892.43624
 710.05;  888.730;    1.482;    0.000;887.24748
 710.32;  867.340;    2.600;    0.000;864.74003
 710.58;  848.380;   -0.961;    0.000;849.34125
 710.84;  850.220;    3.686;    0.000;846.53372
 711.11;  847.350;    0.292;    0.000;847.05748
 711.37;  818.980;    3.571;    0.000;815.40873
 711.64;  805.910;    1.284;    0.000;804.62622
 711.90;  818.910;    3.639;    0.000;815.27122
 712.16;  791.560;    3.284;    0.000;788.27625
 712.43;  790.330;    1.572;    0.000;788.75752
 712.69;  779.630;    3.364;    0.000;776.26625
 712.96;  761.250;    2.591;    0.000;758.65875
 713.22;  753.670;    1.612;    0.000;752.05748
 713.48;  736.730;    0.123;    0.000;736.60748
 713.75;  738.220;   -1.460;    0.000;739.67997
 714.01;  722.570;    5.713;    0.000;716.85751
 714.27;  725.360;    1.730;    0.000;723.62999
 714.54;  733.170;    2.946;    0.000;730.22373
 714.80;  721.860;    1.184;    0.000;720.67624
 715.06;  703.200;    2.250;    0.000;700.95001
 715.33;  701.450;    1.124;    0.000;700.32626
 715.59;  674.540;    1.466;    0.000;673.07373
 715.86;  670.410;    3.069;    0.000;667.34122
 716.12;  675.230;    1.867;    0.000;673.36248
 716.38;  662.310;    2.986;    0.000;659.32375
 716.65;  659.010;    3.819;    0.000;655.19126
 716.91;  652.380;    0.629;    0.000;651.75125
 717.17;  654.660;    3.425;    0.000;651.23497
 717.44;  653.780;    2.554;    0.000;651.22628
 717.70;  642.780;    3.246;    0.000;639.53378
 717.96;  631.770;    0.561;    0.000;631.20877
 718.23;  643.500;   -0.406;    0.000;643.90625
 718.49;  630.430;    1.106;    0.000;629.32374
 718.75;  621.310;    4.903;    0.000;616.40750
 719.02;  630.910;    0.034;    0.000;630.87622
 719.28;  623.360;    0.564;    0.000;622.79624
 719.54;  599.560;    0.788;    0.000;598.77250
 719.80;  607.500;    2.293;    0.000;605.20750
 720.07;  607.180;   -0.094;    0.000;607.27374
 720.33;  599.310;    1.286;    0.000;598.02375
 720.59;  595.620;    1.628;    0.000;593.99250
 720.86;  583.800;   -1.405;    0.000;585.20499
 721.12;  591.390;    1.731;    0.000;589.65876
 721.38;  594.180;    4.088;    0.000;590.09249
 721.65;  581.580;   -0.108;    0.000;581.68752
 721.91;  590.900;   -0.026;    0.000;590.92627
 722.17;  568.880;   -0.304;    0.000;569.18375
 722.43;  578.680;    3.338;    0.000;575.34249
 722.70;  572.720;    0.495;    0.000;572.22497
 722.96;  593.650;    4.814;    0.000;588.83627
 723.22;  577.500;    2.186;    0.000;575.31375
 723.48;  581.040;    3.430;    0.000;577.60998
 723.75;  561.700;    2.215;    0.000;559.48501
 724.01;  570.440;    1.500;    0.000;568.94000
 724.27;  564.220;   -0.826;    0.000;565.04622
 724.54;  563.840;    2.814;    0.000;561.02628
 724.80;  550.020;   -1.109;    0.000;551.12877
 725.06;  560.750;    3.160;    0.000;557.59000
 725.32;  549.740;    2.344;    0.000;547.39624
 725.59;  562.290;    1.226;    0.000;561.06373
 725.85;  548.890;    2.034;    0.000;546.85626
 726.11;  560.710;    2.994;    0.000;557.71627
 726.37;  552.610;    3.204;    0.000;549.40624
 726.64;  564.620;    2.474;    0.000;562.14625
 726.90;  557.810;    3.596;    0.000;554.21375
 727.16;  559.220;    0.375;    0.000;558.84497
 727.42;  550.790;    0.449;    0.000;550.34123
 727.68;  556.870;    0.172;    0.000;556.69750
 727.95;  537.830;    2.132;    0.000;535.69752
 728.21;  562.840;    3.517;    0.000;559.32253
 728.47;  558.170;   -0.545;    0.000;558.71498
 728.73;  558.930;    3.100;    0.000;555.82999
 729.00;  549.370;    0.755;    0.000;548.61500
 729.26;  552.700;    0.587;    0.000;552.11251
 729.52;  525.440;   -0.405;    0.000;525.84500
 729.78;  536.840;   -2.089;    0.000;538.92878
 730.04;  531.430;    4.343;    0.000;527.08749
 730.31;  520.500;    3.566;    0.000;516.93375
 730.57;  513.450;    4.318;    0.000;509.13251
 730.83;  525.670;    2.994;    0.000;522.67623
 731.09;  530.470;   -0.604;    0.000;531.07372
 731.35;  511.770;    2.505;    0.000;509.26499
 731.62;  505.190;    0.100;    0.000;505.09000
 731.88;  506.830;    1.690;    0.000;505.13999
 732.14;  514.110;   -1.254;    0.000;515.36374
 732.40;  511.090;    3.940;    0.000;507.15000
 732.66;  494.290;    1.069;    0.000;493.22126
 732.92;  490.470;    2.316;    0.000;488.15375
 733.19;  488.900;    1.539;    0.000;487.36124
 733.45;  504.560;    5.839;    0.000;498.72125
 733.71;  491.060;    1.001;    0.000;490.05875
 733.97;  523.050;    3.849;    0.000;519.20124
 734.23;  490.370;   -2.451;    0.000;492.82125
 734.49;  481.340;    3.328;    0.000;478.01250
 734.76;  472.400;    1.984;    0.000;470.41624
 735.02;  482.750;    1.000;    0.000;481.75000
 735.28;  480.000;    1.494;    0.000;478.50625
 735.54;  471.970;    2.599;    0.000;469.37125
 735.80;  460.480;    3.059;    0.000;457.42126
 736.06;  465.940;    1.774;    0.000;464.16625
 736.32;  452.080;   -0.745;    0.000;452.82499
 736.59;  454.080;    1.776;    0.000;452.30374
 736.85;  445.480;    2.046;    0.000;443.43376
 737.11;  447.020;    1.040;    0.000;445.97999
 737.37;  438.430;   -0.538;    0.000;438.96749
 737.63;  449.440;    2.409;    0.000;447.03125
 737.89;  439.450;   -0.147;    0.000;439.59751
 738.15;  449.400;    2.342;    0.000;447.05749
 738.41;  428.370;   -1.143;    0.000;429.51250
 738.67;  442.780;    0.023;    0.000;442.75750
 738.94;  422.920;   -1.278;    0.000;424.19751
 739.20;  421.410;   -0.135;    0.000;421.54500
 739.46;  422.300;    1.821;    0.000;420.47874
 739.72;  417.930;    2.342;    0.000;415.58749
 739.98;  399.400;   -0.039;    0.000;399.43874
 740.24;  409.040;    1.996;    0.000;407.04376
 740.50;  412.320;    2.144;    0.000;410.17626
 740.76;  400.600;    4.496;    0.000;396.10376
 741.02;  392.890;    2.037;    0.000;390.85251
 741.28;  401.270;    4.015;    0.000;397.25499
 741.54;  386.600;    2.483;    0.000;384.11751
 741.81;  391.660;    3.010;    0.000;388.65000
 742.07;  373.740;    1.163;    0.000;372.57749
 742.33;  385.920;    2.645;    0.000;383.27501
 742.59;  373.070;    1.821;    0.000;371.24876
 742.85;  370.220;    0.298;    0.000;369.92250
 743.11;  350.940;    1.705;    0.000;349.23500
 743.37;  358.260;    0.685;    0.000;357.57501
 743.63;  344.820;    4.071;    0.000;340.74876
 743.89;  358.130;    4.113;    0.000;354.01750
 744.15;  348.380;    0.405;    0.000;347.97500
 744.41;  332.110;   -1.540;    0.000;333.64999
 744.67;  334.430;    1.661;    0.000;332.76874
 744.93;  334.360;    0.085;    0.000;334.27499
 745.19;  330.070;    2.245;    0.000;327.82501
 745.45;  324.050;    0.485;    0.000;323.56499
 745.71;  316.900;    1.388;    0.000;315.51249
 745.97;  322.280;    1.060;    0.000;321.22000
 746.23;  307.180;    1.283;    0.000;305.89749
 746.49;  314.780;    3.820;    0.000;310.96000
 746.75;  303.340;    3.335;    0.000;300.00500
 747.02;  307.590;    1.569;    0.000;306.02125
 747.28;  287.690;   -0.540;    0.000;288.23000
 747.54;  291.070;    2.818;    0.000;288.25251
 747.80;  290.120;   -1.074;    0.000;291.19375
 748.06;  285.520;   -5.407;    0.000;290.92749
 748.32;  275.480;    3.335;    0.000;272.14501
 748.58;  278.580;    4.275;    0.000;274.30499
 748.84;  275.570;    1.499;    0.000;274.07126
 749.10;  350.750;    9.339;    0.000;341.41125
 749.36;  269.470;    2.190;    0.000;267.28000
 749.62;  270.350;    2.432;    0.000;267.91751
 749.88;  246.570;    1.871;    0.000;244.69876
 750.14;  256.090;    3.449;    0.000;252.64125
 750.40;  253.990;   -1.523;    0.000;255.51251
 750.66;  254.620;    5.100;    0.000;249.52000
 750.91;  247.030;    1.121;    0.000;245.90875
 751.17;  240.360;    4.999;    0.000;235.36125
 751.43;  233.550;   -1.806;    0.000;235.35625
 751.69;  238.470;    4.175;    0.000;234.29500
 751.95;  243.540;    1.244;    0.000;242.29624
 752.21;  233.720;    2.675;    0.000;231.04500
 752.47;  220.490;    1.139;    0.000;219.35126
 752.73;  228.510;    3.609;    0.000;224.90124
 752.99;  211.980;   -0.211;    0.000;212.19125
 753.25;  218.870;    2.358;    0.000;216.51250
 753.51;  213.220;    1.201;    0.000;212.01875
 753.77;  210.430;    1.548;    0.000;208.88249
 754.03;  206.180;    0.859;    0.000;205.32124
 754.29;  203.460;    1.796;    0.000;201.66376
 754.55;  207.800;    3.635;    0.000;204.16500
 754.81;  194.250;    2.146;    0.000;192.10375
 755.07;  185.460;    0.389;    0.000;185.07126
 755.33;  195.660;    2.674;    0.000;192.98625
 755.59;  199.330;    1.291;    0.000;198.03875
 755.85;  191.560;    1.286;    0.000;190.27375
 756.10;  182.570;    2.474;    0.000;180.09626
 756.36;  183.830;    1.336;    0.000;182.49375
 756.62;  173.530;    1.236;    0.000;172.29375
 756.88;  178.730;    1.444;    0.000;177.28625
 757.14;  183.240;    1.900;    0.000;181.34001
 757.40;  178.580;    3.004;    0.000;175.57625
 757.66;  174.430;    2.839;    0.000;171.59124
 757.92;  170.170;    2.434;    0.000;167.73625
 758.18;  152.990;    1.880;    0.000;151.11001
 758.44;  165.730;    1.215;    0.000;164.51500
 758.70;  156.450;    1.508;    0.000;154.94250
 758.95;  161.760;   -0.256;    0.000;162.01624
 759.21;  151.240;    0.169;    0.000;151.07126
 759.47;  155.890;    4.939;    0.000;150.95125
 759.73;  149.420;    0.292;    0.000;149.12750
 759.99;  152.620;    3.420;    0.000;149.20000
 760.25;  144.040;    0.416;    0.000;143.62374
 760.51;  144.650;   -0.933;    0.000;145.58249
 760.77;  150.050;    3.746;    0.000;146.30375
 761.02;  158.400;    3.771;    0.000;154.62874
 761.28;  139.370;    1.756;    0.000;137.61375
 761.54;  145.920;    3.152;    0.000;142.76750
 761.80;  129.460;    2.394;    0.000;127.06626
 762.06;  139.180;    2.415;    0.000;136.76499
 762.32;  128.020;   -0.226;    0.000;128.24625
 762.58;  137.620;    0.177;    0.000;137.44250
 762.83;  126.360;    2.280;    0.000;124.08000
 763.09;  133.890;    4.425;    0.000;129.46500
 763.35;  114.290;    2.086;    0.000;112.20375
 763.61;  133.610;    3.421;    0.000;130.18875
 763.87;  125.920;    2.898;    0.000;123.02250
 764.13;  127.800;    2.771;    0.000;125.02875
 764.38;  123.130;    0.603;    0.000;122.52750
 764.64;  110.710;    0.809;    0.000;109.90125
 764.90;  119.660;    2.140;    0.000;117.52000
 765.16;  124.720;    2.909;    0.000;121.81125
 765.42;  101.790;    1.378;    0.000;100.41250
 765.68;  112.660;    1.506;    0.000;111.15375
 765.93;  108.460;    0.826;    0.000;107.63375
 766.19;  119.590;    1.595;    0.000;117.99500
 766.45;   95.540;    3.033;    0.000;92.50750
 766.71;  121.500;    1.970;    0.000;119.53000
 766.97;  100.910;    1.930;    0.000;98.98000
 767.22;  110.310;    0.001;    0.000;110.30875
 767.48;   96.770;    2.169;    0.000;94.60125
 767.74;  105.150;    3.239;    0.000;101.91125
 768.00;   95.710;    0.127;    0.000;95.58250
 768.26;   92.720;    2.041;    0.000;90.67875
 768.51;   94.890;    1.921;    0.000;92.96875
 768.77;  110.130;    2.866;    0.000;107.26375
 769.03;   92.280;    1.215;    0.000;91.06500
 769.29;   91.870;    3.609;    0.000;88.26125
 769.54;   85.740;   -1.861;    0.000;87.60125
 769.80;   90.150;    1.023;    0.000;89.12750
 770.06;   82.370;   -2.848;    0.000;85.21750
 770.32;   94.310;    3.336;    0.000;90.97375
 770.57;   79.990;    3.290;    0.000;76.70000
 770.83;   95.710;    2.001;    0.000;93.70875
 771.09;   76.790;    0.305;    0.000;76.48500
 771.35;   80.800;   -0.986;    0.000;81.78625
 771.61;   84.070;    3.224;    0.000;80.84625
 771.86;   91.520;    2.035;    0.000;89.48500
 772.12;   69.590;    2.678;    0.000;66.91250
 772.38;   79.040;    2.819;    0.000;76.22125
 772.63;   73.470;    2.169;    0.000;71.30125
 772.89;   80.470;    1.089;    0.000;79.38125
 773.15;   74.880;    3.095;    0.000;71.78500
 773.41;   78.420;    2.499;    0.000;75.92125
 773.66;   82.810;    2.453;    0.000;80.35750
 773.92;   75.230;    2.392;    0.000;72.83750
 774.18;   79.790;    0.616;    0.000;79.17375
 774.44;   70.460;    2.901;    0.000;67.55875
 774.69;   65.010;    2.365;    0.000;62.64500
 774.95;   76.180;    1.592;    0.000;74.58750
 775.21;   80.140;    3.401;    0.000;76.73875
 775.46;   60.050;    2.118;    0.000;57.93250
 775.72;   65.590;   -0.757;    0.000;66.34750
 775.98;   75.990;    2.870;    0.000;73.12000
 776.24;   53.530;    0.654;    0.000;52.87625
 776.49;   67.260;    0.461;    0.000;66.79875
 776.75;   63.150;   -0.097;    0.000;63.24750
 777.01;   67.590;    2.346;    0.000;65.24375
 777.26;   64.290;   -0.501;    0.000;64.79125
 777.52;   62.210;    3.513;    0.000;58.69750
 777.78;   61.140;    2.825;    0.000;58.31500
 778.03;   65.890;    4.813;    0.000;61.07750
 778.29;   57.680;   -1.135;    0.000;58.81500
 778.55;   65.320;    4.461;    0.000;60.85875
 778.80;   51.850;    4.707;    0.000;47.14250
 779.06;   49.270;    1.582;    0.000;47.68750
 779.32;   56.310;   -1.487;    0.000;57.79750
 779.57;   54.290;    5.735;    0.000;48.55500
 779.83;   49.260;    0.904;    0.000;48.35625
 780.09;   61.770;    4.139;    0.000;57.63125
 780.34;   52.050;    2.516;    0.000;49.53375
 780.60;   65.250;    5.276;    0.000;59.97375
 780.86;   54.950;    1.526;    0.000;53.42375
 781.11;   57.960;    2.318;    0.000;55.64250
 781.37;   40.240;    0.714;    0.000;39.52625
 781.63;   59.090;    0.601;    0.000;58.48875
 781.88;   39.150;    0.507;    0.000;38.64250
 782.14;   47.430;    2.296;    0.000;45.13375
 782.39;   42.630;    1.691;    0.000;40.93875
 782.65;   44.880;    0.065;    0.000;44.81500
 782.91;   58.480;    2.026;    0.000;56.45375
 783.16;   54.120;    1.395;    0.000;52.72500
 783.42;   32.180;    0.733;    0.000;31.44750
 783.67;   39.080;    2.081;    0.000;36.99875
 783.93;   33.140;    0.939;    0.000;32.20125
 784.19;   40.920;    1.356;    0.000;39.56375
 784.44;   36.970;    2.641;    0.000;34.32875
 784.70;   39.490;    3.922;    0.000;35.56750
 784.96;   28.560;   -0.010;    0.000;28.57000
 785.21;   33.640;    0.863;    0.000;32.77750
 785.47;   47.000;    1.643;    0.000;45.35750
 785.72;   32.060;    0.114;    0.000;31.94625
 785.98;   21.970;   -0.705;    0.000;22.67500
 786.23;   34.470;    1.793;    0.000;32.67750
 786.49;   30.410;    0.989;    0.000;29.42125
 786.75;   35.710;    3.019;    0.000;32.69125
 787.00;   17.460;    0.529;    0.000;16.93125
 787.26;   31.520;    1.590;    0.000;29.93000
 787.51;   37.320;    0.141;    0.000;37.17875
 787.77;   46.650;    1.200;    0.000;45.45000
 788.02;   42.510;    1.789;    0.000;40.72125
 788.28;   28.270;    0.800;    0.000;27.47000
 788.54;   22.440;   -0.199;    0.000;22.63875
 788.79;   31.090;    0.516;    0.000;30.57375
 789.05;   13.630;    3.386;    0.000;10.24375
 789.30;   25.600;    5.298;    0.000;20.30250
 789.56;   11.210;    1.327;    0.000; 9.88250
 789.81;   25.680;    2.234;    0.000;23.44625
 790.07;   14.600;   -0.301;    0.000;14.90125
 790.32;   20.870;    1.149;    0.000;19.72125
 790.58;    2.690;    1.655;    0.000; 1.03500
 790.83;   17.050;    5.036;    0.000;12.01375
 791.09;   17.260;    0.239;    0.000;17.02125
 791.35;   15.680;    0.884;    0.000;14.79625
 791.60;    4.480;    1.294;    0.000; 3.18625
 791.86;   25.690;    3.580;    0.000;22.11000
 792.11;   19.300;    0.661;    0.000;18.63875
 792.37;   15.300;    2.549;    0.000;12.75125
 792.62;   14.665;    2.610;    0.000;12.05500
 792.88;   14.030;    2.671;    0.000;11.35875
 793.13;    8.900;    1.554;    0.000; 7.34625
 793.39;   13.610;    2.964;    0.000;10.64625
 793.64;   10.560;    1.725;    0.000; 8.83500
 793.90;   11.110;    0.824;    0.000;10.28625
 794.15;    5.260;    4.068;    0.000; 1.19250
 794.41;    7.620;    2.352;    0.000; 5.26750
 794.66;   16.210;    1.508;    0.000;14.70250
 794.92;   16.580;    4.101;    0.000;12.47875
 795.17;   -3.550;   -0.748;    0.000;-2.80250
 795.43;    1.830;    2.310;    0.000;-0.48000
 795.68;    6.210;    1.050;    0.000; 5.16000
 795.94;   12.880;    2.206;    0.000;10.67375
 796.19;    0.640;    2.890;    0.000;-2.25000
 796.44;   10.650;    2.810;    0.000; 7.84000
 796.70;    6.520;   -0.166;    0.000; 6.68625
 796.95;   19.590;    4.159;    0.000;15.43125
 797.21;    3.960;    0.479;    0.000; 3.48125
 797.46;   -3.910;   -2.271;    0.000;-1.63875
 797.72;   -2.470;   -0.439;    0.000;-2.03125
 797.97;   -2.740;    0.895;    0.000;-3.63500
 798.23;    4.220;    5.259;    0.000;-1.03875
 798.48;   11.370;    0.045;    0.000;11.32500
 798.74;    4.710;    0.639;    0.000; 4.07125
 798.99;    5.490;    2.686;    0.000; 2.80375
 799.24;   -2.700;    3.122;    0.000;-5.82250
 799.50;    1.070;    1.000;    0.000; 0.07000
 799.75;    6.700;   -0.770;    0.000; 7.47000
 800.01;   -6.340;   -0.245;    0.000;-6.09500
 800.26;  -11.610;   -0.215;    0.000;-11.39500
 800.52;    6.700;    2.511;    0.000; 4.18875
 800.77;   -8.100;    2.716;    0.000;-10.81625
 801.02;   -7.260;    1.580;    0.000;-8.84000
 801.28;   -4.560;   -0.673;    0.000;-3.88750
 801.53;   -5.650;    0.356;    0.000;-6.00625
 801.79;   -5.120;    3.321;    0.000;-8.44125
 802.04;   -3.760;    1.775;    0.000;-5.53500
 802.29;   -2.470;    1.541;    0.000;-4.01125
 802.55;   -2.950;   -0.161;    0.000;-2.78875
 802.80;   -3.240;    1.750;    0.000;-4.99000
 803.06;   -7.450;    1.202;    0.000;-8.65250
 803.31;   -8.830;    2.051;    0.000;-10.88125
 803.56;   -8.420;    1.589;    0.000;-10.00875
 803.82;  -13.120;    1.819;    0.000;-14.93875
 804.07;   -0.940;    1.121;    0.000;-2.06125
 804.32;   -7.320;    2.470;    0.000;-9.79000
 804.58;  -11.750;    0.745;    0.000;-12.49500
 804.83;  -13.500;    2.861;    0.000;-16.36125
 805.09;  -10.960;    2.116;    0.000;-13.07625
 805.34;   -9.240;    2.130;    0.000;-11.37000
 805.59;   -5.700;    1.832;    0.000;-7.53250
 805.85;  -16.290;    2.691;    0.000;-18.98125
 806.10;   -6.200;    4.224;    0.000;-10.42375
 806.35;   -8.690;    1.335;    0.000;-10.02500
 806.61;   -2.210;    3.255;    0.000;-5.46500
 806.86;  -23.330;    2.753;    0.000;-26.08250
 807.11;   -6.210;    2.922;    0.000;-9.13250
 807.37;   -6.330;    2.905;    0.000;-9.23500
 807.62;  -20.700;    1.607;    0.000;-22.30750
 807.87;  -16.970;    6.104;    0.000;-23.07375
 808.13;  -14.330;    0.795;    0.000;-15.12500
 808.38;  -16.550;   -0.554;    0.000;-15.99625
 808.63;   -8.100;    4.699;    0.000;-12.79875
 808.89;  -16.490;   -1.511;    0.000;-14.97875
 809.14;  -13.400;    1.401;    0.000;-14.80125
 809.39;  -23.740;   -2.053;    0.000;-21.68750
 809.65;  -20.850;    1.450;    0.000;-22.30000
 809.90;  -19.030;    3.850;    0.000;-22.88000
 810.15;   -8.110;    2.366;    0.000;-10.47625
 810.41;  -13.110;    0.111;    0.000;-13.22125
 810.66;  -16.180;    1.721;    0.000;-17.90125
 810.91;  -18.580;    0.284;    0.000;-18.86375
 811.16;  -19.080;    3.254;    0.000;-22.33375
 811.42;  -15.400;    1.806;    0.000;-17.20625
 811.67;  -15.740;    5.146;    0.000;-20.88625
 811.92;  -20.520;    1.339;    0.000;-21.85875
 812.18;  -19.620;    3.764;    0.000;-23.38375
 812.43;  -38.940;    0.262;    0.000;-39.20250
 812.68;  -24.320;   -0.415;    0.000;-23.90500
 812.93;  -24.830;   -0.444;    0.000;-24.38625
 813.19;  -12.430;    3.415;    0.000;-15.84500
 813.44;  -16.870;   -0.468;    0.000;-16.40250
 813.69;   -6.000;    3.735;    0.000;-9.73500
 813.95;  -25.360;    0.120;    0.000;-25.48000
 814.20;  -18.310;    1.482;    0.000;-19.79250
 814.45;  -28.510;    1.362;    0.000;-29.87250
 814.70;  -20.690;    2.450;    0.000;-23.14000
 814.96;  -23.570;    1.610;    0.000;-25.18000
 815.21;  -25.420;    0.421;    0.000;-25.84125
 815.46;  -29.800;    3.360;    0.000;-33.16000
 815.71;  -18.250;    1.746;    0.000;-19.99625
 815.96;  -30.570;    1.210;    0.000;-31.78000
 816.22;  -23.670;    3.869;    0.000;-27.53875
 816.47;  -30.120;    1.704;    0.000;-31.82375
 816.72;  -20.590;    2.375;    0.000;-22.96500
 816.97;  -15.150;    0.006;    0.000;-15.15625
 817.23;   -7.860;    2.188;    0.000;-10.04750
 817.48;  -25.290;    0.579;    0.000;-25.86875
 817.73;  -28.620;    1.298;    0.000;-29.91750
 817.98;  -15.530;    4.060;    0.000;-19.59000
 818.23;  -17.200;    2.849;    0.000;-20.04875
 818.49;  -32.040;    2.114;    0.000;-34.15375
 818.74;  -17.710;    3.495;    0.000;-21.20500
 818.99;  -28.040;    3.039;    0.000;-31.07875
 819.24;  -14.270;    4.864;    0.000;-19.13375
 819.50;  -32.800;   -0.814;    0.000;-31.98625
 819.75;  -12.640;    1.827;    0.000;-14.46750
 820.00;   -8.320;    2.721;    0.000;-11.04125
 820.25;  -19.030;    2.957;    0.000;-21.98750
 820.50;  -34.270;    0.806;    0.000;-35.07625
 820.75;  -14.730;    2.321;    0.000;-17.05125
 821.01;  -36.800;   -0.526;    0.000;-36.27375
 821.26;  -22.300;    2.589;    0.000;-24.88875
 821.51;  -29.480;    1.920;    0.000;-31.40000
 821.76;  -27.010;    2.214;    0.000;-29.22375
 822.01;  -25.980;    2.021;    0.000;-28.00125
 822.26;  -26.880;    2.135;    0.000;-29.01500
 822.52;  -23.130;    0.341;    0.000;-23.47125
 822.77;  -30.900;    2.754;    0.000;-33.65375
 823.02;  -32.290;    3.078;    0.000;-35.36750
 823.27;  -33.830;    2.414;    0.000;-36.24375
 823.52;  -34.480;   -1.496;    0.000;-32.98375
 823.77;  -34.170;    2.965;    0.000;-37.13500
 824.03;  -24.430;   -1.638;    0.000;-22.79250
 824.28;  -31.720;    1.317;    0.000;-33.03750
 824.53;  -22.830;    1.336;    0.000;-24.16625
 824.78;  -27.630;    0.855;    0.000;-28.48500
 825.03;  -37.180;    2.570;    0.000;-39.75000
 825.28;  -36.620;    2.166;    0.000;-38.78625
 825.53;  -28.600;    2.836;    0.000;-31.43625
 825.78;  -25.130;    2.856;    0.000;-27.98625
 826.04;  -34.300;   -0.415;    0.000;-33.88500
 826.29;  -24.150;    0.965;    0.000;-25.11500
 826.54;  -26.500;    0.800;    0.000;-27.30000
 826.79;  -28.410;    0.228;    0.000;-28.63750
 827.04;  -38.060;    2.715;    0.000;-40.77500
 827.29;  -31.770;    2.820;    0.000;-34.59000
 827.54;  -41.150;    1.196;    0.000;-42.34625
 827.79;  -32.980;    0.577;    0.000;-33.55750
 828.04;  -24.070;    1.154;    0.000;-25.22375
 828.29;  -28.940;    2.582;    0.000;-31.52250
 828.55;  -34.620;    0.469;    0.000;-35.08875
 828.80;  -31.080;    3.072;    0.000;-34.15250
 829.05;  -36.610;    0.731;    0.000;-37.34125
 829.30;  -41.560;    2.580;    0.000;-44.14000
 829.55;  -40.810;    0.910;    0.000;-41.72000
 829.80;  -36.000;    4.061;    0.000;-40.06125
 830.05;  -37.910;   -0.123;    0.000;-37.78750
 830.30;  -35.600;    2.500;    0.000;-38.10000
 830.55;  -31.190;    1.209;    0.000;-32.39875
 830.80;  -35.390;    0.980;    0.000;-36.37000
 831.05;  -42.080;    1.500;    0.000;-43.58000
 831.30;  -28.050;    2.391;    0.000;-30.44125
 831.55;  -32.310;    2.223;    0.000;-34.53250
 831.80;  -33.690;    2.836;    0.000;-36.52625
 832.05;  -23.940;    1.240;    0.000;-25.18000
 832.30;  -31.130;    2.408;    0.000;-33.53750
 832.56;  -44.200;    2.081;    0.000;-46.28125
 832.81;  -43.970;    1.378;    0.000;-45.34750
 833.06;  -31.550;    4.117;    0.000;-35.66750
 833.31;  -38.000;    2.487;    0.000;-40.48750
 833.56;  -40.570;    0.243;    0.000;-40.81250
 833.81;  -34.550;    2.466;    0.000;-37.01625
 834.06;  -30.510;    1.622;    0.000;-32.13250
 834.31;  -37.130;    3.581;    0.000;-40.71125
 834.56;  -33.660;    4.500;    0.000;-38.16000
 834.81;  -47.420;    1.409;    0.000;-48.82875
 835.06;  -47.380;    0.406;    0.000;-47.78625
 835.31;  -31.950;    3.463;    0.000;-35.41250
 835.56;  -38.040;   -0.016;    0.000;-38.02375
 835.81;  -30.990;    2.260;    0.000;-33.25000
 836.06;  -29.080;    1.614;    0.000;-30.69375
 836.31;  -42.900;    2.148;    0.000;-45.04750
 836.56;  -41.230;    3.629;    0.000;-44.85875
 836.81;  -39.980;    2.047;    0.000;-42.02750
 837.06;  -32.990;    0.816;    0.000;-33.80625
 837.31;  -43.270;    1.456;    0.000;-44.72625
 837.56;  -47.160;    1.783;    0.000;-48.94250
 837.81;  -45.700;    2.975;    0.000;-48.67500
 838.06;  -38.000;    4.039;    0.000;-42.03875
 838.31;  -47.750;    0.147;    0.000;-47.89750
 838.56;  -50.310;    1.841;    0.000;-52.15125
 838.80;  -47.000;    2.314;    0.000;-49.31375
 839.05;  -48.790;    1.386;    0.000;-50.17625
 839.30;  -51.960;    0.001;    0.000;-51.96125
 839.55;  -45.060;    0.301;    0.000;-45.36125
 839.80;  -36.760;    3.539;    0.000;-40.29875
 840.05;  -46.360;    1.010;    0.000;-47.37000
 840.30;  -31.730;    4.226;    0.000;-35.95625
 840.55;  -39.780;    1.514;    0.000;-41.29375
 840.80;  -37.870;    4.875;    0.000;-42.74500
 841.05;  -46.070;    0.784;    0.000;-46.85375
 841.30;  -28.330;    3.494;    0.000;-31.82375
 841.55;  -50.500;   -0.995;    0.000;-49.50500
 841.80;  -47.160;    1.559;    0.000;-48.71875
 842.05;  -53.830;   -1.285;    0.000;-52.54500
 842.30;  -41.020;    2.414;    0.000;-43.43375
 842.55;  -43.980;    1.058;    0.000;-45.03750
 842.79;  -45.180;    1.925;    0.000;-47.10500
 843.04;  -32.310;    0.854;    0.000;-33.16375
 843.29;  -40.970;    2.419;    0.000;-43.38875
 843.54;  -45.520;    4.284;    0.000;-49.80375
 843.79;  -44.210;    1.813;    0.000;-46.02250
 844.04;  -41.740;    4.705;    0.000;-46.44500
 844.29;  -46.520;    2.770;    0.000;-49.29000
 844.54;  -50.130;    1.173;    0.000;-51.30250
 844.79;  -40.530;    3.172;    0.000;-43.70250
 845.04;  -47.150;   -1.031;    0.000;-46.11875
 845.28;  -42.150;    3.310;    0.000;-45.46000
 845.53;  -42.030;    1.750;    0.000;-43.78000
 845.78;  -31.690;    1.957;    0.000;-33.64750
 846.03;  -49.710;    1.346;    0.000;-51.05625
 846.28;  -43.550;    2.110;    0.000;-45.66000
 846.53;  -33.630;    0.154;    0.000;-33.78375
 846.78;  -31.430;    4.660;    0.000;-36.09000
 847.02;  -43.000;    2.714;    0.000;-45.71375
 847.27;  -38.090;    1.837;    0.000;-39.92750
 847.52;  -50.530;    3.047;    0.000;-53.57750
 847.77;  -46.580;    3.314;    0.000;-49.89375
 848.02;  -51.470;   -0.440;    0.000;-51.03000
 848.27;  -44.770;    3.787;    0.000;-48.55750
 848.52;  -51.380;    2.264;    0.000;-53.64375
 848.76;  -41.170;    0.844;    0.000;-42.01375
 849.01;  -49.590;    2.570;    0.000;-52.16000
 849.26;  -56.440;    0.859;    0.000;-57.29875
 849.51;  -51.220;    3.328;    0.000;-54.54750
 849.76;  -46.320;    1.469;    0.000;-47.78875
 850.01;  -52.090;    0.701;    0.000;-52.79125
 850.25;  -46.330;    0.585;    0.000;-46.91500
 850.50;  -51.880;    0.848;    0.000;-52.72750
 850.75;  -44.020;    1.875;    0.000;-45.89500
 851.00;  -50.790;   -0.499;    0.000;-50.29125
 851.25;  -50.880;    3.796;    0.000;-54.67625
 851.49;  -58.950;    3.533;    0.000;-62.48250
 851.74;  -52.220;   -0.102;    0.000;-52.11750
 851.99;  -47.350;    2.578;    0.000;-49.92750
 852.24;  -54.140;    0.231;    0.000;-54.37125
 852.49;  -57.260;    0.465;    0.000;-57.72500
 852.73;  -57.560;    2.121;    0.000;-59.68125
 852.98;  -60.010;    0.601;    0.000;-60.61125
 853.23;  -49.140;    4.595;    0.000;-53.73500
 853.48;  -54.690;   -0.339;    0.000;-54.35125
 853.73;  -54.120;    1.725;    0.000;-55.84500
 853.97;  -52.110;    1.999;    0.000;-54.10875
 854.22;  -52.520;    2.446;    0.000;-54.96625
 854.47;  -54.010;    2.151;    0.000;-56.16125
 854.72;  -51.760;    1.765;    0.000;-53.52500
 854.96;  -59.840;    2.703;    0.000;-62.54250
 855.21;  -44.410;    1.244;    0.000;-45.65375
 855.46;  -40.840;    0.944;    0.000;-41.78375
 855.71;  -57.770;    0.262;    0.000;-58.03250
 855.95;  -48.930;    2.922;    0.000;-51.85250
 856.20;  -57.730;    2.591;    0.000;-60.32125
 856.45;  -56.670;    1.355;    0.000;-58.02500
 856.70;  -58.800;    4.641;    0.000;-63.44125
 856.94;  -54.420;    1.589;    0.000;-56.00875
 857.19;  -49.090;    2.404;    0.000;-51.49375
 857.44;  -52.400;    1.933;    0.000;-54.33250
 857.69;  -48.890;    5.104;    0.000;-53.99375
 857.93;  -56.230;    3.511;    0.000;-59.74125
 858.18;  -45.490;    1.986;    0.000;-47.47625
 858.43;  -61.720;   -0.159;    0.000;-61.56125
 858.67;  -39.940;    5.415;    0.000;-45.35500
 858.92;  -60.660;    1.999;    0.000;-62.65875
 859.17;  -11.850;    4.201;    0.000;-16.05125
 859.42;  -65.500;    0.545;    0.000;-66.04500
 859.66;  -61.490;    3.158;    0.000;-64.64750
 859.91;  -53.300;   -0.270;    0.000;-53.03000
 860.16;  -57.710;    1.684;    0.000;-59.39375
 860.40;  -48.730;    1.197;    0.000;-49.92750
 860.65;  -59.980;    1.515;    0.000;-61.49500
 860.90;  -65.750;   -0.985;    0.000;-64.76500
 861.14;  -49.570;    0.160;    0.000;-49.73000
 861.39;  -65.930;    0.465;    0.000;-66.39500
 861.64;  -54.090;    3.563;    0.000;-57.65250
 861.88;  -57.990;    3.859;    0.000;-61.84875
 862.13;  -58.750;    2.254;    0.000;-61.00375
 862.38;  -66.800;    0.489;    0.000;-67.28875
 862.62;  -52.420;    1.619;    0.000;-54.03875
 862.87;  -52.770;    0.080;    0.000;-52.85000
 863.12;  -56.490;    0.527;    0.000;-57.01750
 863.36;  -57.930;    3.011;    0.000;-60.94125
 863.61;  -53.710;    2.111;    0.000;-55.82125
 863.86;  -61.340;    0.804;    0.000;-62.14375
 864.10;  -54.490;    2.416;    0.000;-56.90625
 864.35;  -58.640;    1.164;    0.000;-59.80375
 864.60;  -61.390;    0.605;    0.000;-61.99500
 864.84;  -60.210;    1.896;    0.000;-62.10625
 865.09;  -55.090;    2.196;    0.000;-57.28625
 865.33;  -67.740;    3.348;    0.000;-71.08750
 865.58;  -52.590;    3.236;    0.000;-55.82625
 865.83;  -66.810;    2.321;    0.000;-69.13125
 866.07;  -59.560;    2.855;    0.000;-62.41500
 866.32;  -31.990;    2.915;    0.000;-34.90500
 866.57;  -63.080;   -1.800;    0.000;-61.28000
 866.81;  -71.220;    1.764;    0.000;-72.98375
 867.06;  -60.600;   -0.352;    0.000;-60.24750
 867.30;  -61.290;   -0.220;    0.000;-61.07000
 867.55;  -59.680;    1.786;    0.000;-61.46625
 867.80;  -55.800;    2.810;    0.000;-58.61000
 868.04;  -56.470;    4.080;    0.000;-60.55000
 868.29;  -63.050;    3.003;    0.000;-66.05250
 868.53;  -58.270;    3.311;    0.000;-61.58125
 868.78;  -60.160;   -0.996;    0.000;-59.16375
 869.03;  -57.640;    2.876;    0.000;-60.51625
 869.27;  -65.560;    2.398;    0.000;-67.95750
 869.52;  -51.880;    3.370;    0.000;-55.25000
 869.76;  -59.020;    2.531;    0.000;-61.55125
 870.01;  -52.110;    3.679;    0.000;-55.78875
 870.25;  -52.470;    3.981;    0.000;-56.45125
 870.50;  -55.230;    2.935;    0.000;-58.16500
 870.75;  -70.420;    0.636;    0.000;-71.05625
 870.99;  -57.960;    0.940;    0.000;-58.90000
 871.24;  -70.250;    0.904;    0.000;-71.15375
 871.48;  -51.320;    5.313;    0.000;-56.63250
 871.73;  -66.170;    2.930;    0.000;-69.10000
 871.97;  -62.270;    2.589;    0.000;-64.85875
 872.22;  -61.330;    3.342;    0.000;-64.67250
 872.46;  -58.430;    2.088;    0.000;-60.51750
 872.71;  -74.520;    0.244;    0.000;-74.76375
 872.95;  -52.900;    2.320;    0.000;-55.22000
 873.20;  -58.930;    2.894;    0.000;-61.82375
 873.44;  -56.840;    4.470;    0.000;-61.31000
 873.69;  -60.960;    2.315;    0.000;-63.27500
 873.94;  -49.130;    3.934;    0.000;-53.06375
 874.18;  -61.580;    1.847;    0.000;-63.42750
 874.43;  -52.730;    2.386;    0.000;-55.11625
 874.67;  -62.620;   -0.515;    0.000;-62.10500
 874.92;  -45.880;    1.961;    0.000;-47.84125
 875.16;  -64.370;    4.129;    0.000;-68.49875
 875.41;  -57.870;    0.016;    0.000;-57.88625
 875.65;  -59.540;   -0.228;    0.000;-59.31250
 875.90;  -43.390;    5.189;    0.000;-48.57875
 876.14;  -68.200;    2.056;    0.000;-70.25625
 876.39;  -52.190;    3.029;    0.000;-55.21875
 876.63;  -65.210;    2.815;    0.000;-68.02500
 876.88;  -61.820;    1.354;    0.000;-63.17375
 877.12;  -58.520;    1.954;    0.000;-60.47375
 877.36;  -54.160;    1.592;    0.000;-55.75250
 877.61;  -60.500;    1.324;    0.000;-61.82375
 877.85;  -50.660;    3.668;    0.000;-54.32750
 878.10;  -61.180;    1.811;    0.000;-62.99125
 878.34;  -52.170;    4.662;    0.000;-56.83250
 878.59;  -62.390;    3.560;    0.000;-65.95000
 878.83;  -62.200;    3.334;    0.000;-65.53375
 879.08;  -59.010;    4.274;    0.000;-63.28375
 879.32;  -61.200;    3.205;    0.000;-64.40500
 879.57;  -45.850;    3.221;    0.000;-49.07125
 879.81;  -62.770;    0.571;    0.000;-63.34125
 880.05;  -56.300;    2.775;    0.000;-59.07500
 880.30;  -51.880;    1.899;    0.000;-53.77875
 880.54;  -59.310;    2.659;    0.000;-61.96875
 880.79;  -51.250;    1.919;    0.000;-53.16875
 881.03;  -62.770;    1.780;    0.000;-64.55000
 881.28;  -48.060;    4.125;    0.000;-52.18500
 881.52;  -61.160;    4.539;    0.000;-65.69875
 881.76;  -61.310;    2.729;    0.000;-64.03875
 882.01;  -55.830;    1.770;    0.000;-57.60000
 882.25;  -62.680;    5.285;    0.000;-67.96500
 882.50;  -65.080;    1.586;    0.000;-66.66625
 882.74;  -53.990;    1.505;    0.000;-55.49500
 882.98;  -58.370;    2.839;    0.000;-61.20875
 883.23;  -59.200;    1.059;    0.000;-60.25875
 883.47;  -56.470;    4.950;    0.000;-61.42000
 883.72;  -49.130;    4.606;    0.000;-53.73625
 883.96;  -57.600;    4.194;    0.000;-61.79375
 884.20;  -53.300;    1.607;    0.000;-54.90750
 884.45;  -50.310;    3.172;    0.000;-53.48250
 884.69;  -45.170;    5.045;    0.000;-50.21500
 884.94;  -42.260;    3.589;    0.000;-45.84875
 885.18;  -54.680;    2.435;    0.000;-57.11500
 885.42;  -62.890;    2.079;    0.000;-64.96875
 885.67;  -43.490;    3.995;    0.000;-47.48500
 885.91;  -61.750;    1.904;    0.000;-63.65375
 886.15;  -53.090;    1.859;    0.000;-54.94875
 886.40;  -61.600;    1.438;    0.000;-63.03750
 886.64;  -50.330;    3.661;    0.000;-53.99125
 886.88;  -55.980;    2.609;    0.000;-58.58875
 887.13;  -44.800;    3.316;    0.000;-48.11625
 887.37;  -54.580;    2.561;    0.000;-57.14125
 887.62;  -43.320;    4.399;    0.000;-47.71875
 887.86;  -45.720;    3.491;    0.000;-49.21125
 888.10;  -43.180;    5.320;    0.000;-48.50000
 888.35;  -54.120;    4.015;    0.000;-58.13500
 888.59;  -49.880;    5.435;    0.000;-55.31500
 888.83;  -49.050;    3.104;    0.000;-52.15375
 889.07;  -39.480;    3.310;    0.000;-42.79000
 889.32;  -51.970;    5.429;    0.000;-57.39875
 889.56;  -51.050;    3.888;    0.000;-54.93750
 889.80;  -44.990;    2.438;    0.000;-47.42750
 890.05;  -47.310;    2.096;    0.000;-49.40625
 890.29;  -53.890;    3.392;    0.000;-57.28250
 890.53;  -43.350;    4.108;    0.000;-47.45750
 890.78;  -59.190;    3.010;    0.000;-62.20000
 891.02;  -41.530;    3.884;    0.000;-45.41375
 891.26;  -50.720;    4.090;    0.000;-54.81000
 891.51;  -44.620;    3.727;    0.000;-48.34750
 891.75;  -44.440;    1.636;    0.000;-46.07625
 891.99;  -56.240;    4.133;    0.000;-60.37250
 892.23;  -57.100;    1.094;    0.000;-58.19375
 892.48;  -37.340;    6.174;    0.000;-43.51375
 892.72;  -49.400;    4.309;    0.000;-53.70875
 892.96;  -48.040;    6.463;    0.000;-54.50250
 893.20;  -50.190;    3.534;    0.000;-53.72375
 893.45;  -52.320;    4.674;    0.000;-56.99375
 893.69;  -50.370;    4.350;    0.000;-54.72000
 893.93;  -37.780;    3.811;    0.000;-41.59125
 894.17;  -50.420;    3.632;    0.000;-54.05250
 894.42;  -44.000;    3.563;    0.000;-47.56250
 894.66;  -44.640;    3.575;    0.000;-48.21500
 894.90;  -44.920;    4.434;    0.000;-49.35375
 895.14;  -45.320;    5.156;    0.000;-50.47625
 895.39;  -47.000;    2.453;    0.000;-49.45250
 895.63;  -39.150;    3.581;    0.000;-42.73125
 895.87;  -42.540;    2.703;    0.000;-45.24250
 896.11;  -39.690;    3.902;    0.000;-43.59250
 896.36;  -35.580;    4.361;    0.000;-39.94125
 896.60;  -46.780;    4.684;    0.000;-51.46375
 896.84;  -25.830;    7.503;    0.000;-33.33250
 897.08;  -29.500;    7.704;    0.000;-37.20375
 897.32;  -23.760;    6.090;    0.000;-29.85000
 897.57;  -34.490;    5.235;    0.000;-39.72500
 897.81;  -43.920;    6.305;    0.000;-50.22500
 898.05;  -25.270;    6.220;    0.000;-31.49000
 898.29;  -27.880;    6.834;    0.000;-34.71375
 898.53;  -29.700;    5.426;    0.000;-35.12625
 898.78;  -19.700;    7.475;    0.000;-27.17500
 899.02;  -31.220;    5.856;    0.000;-37.07625
 899.26;  -16.170;    8.570;    0.000;-24.74000
 899.50;   -2.750;    7.455;    0.000;-10.20500
 899.74;   -8.830;    5.930;    0.000;-14.76000
 899.99;   -5.570;    9.002;    0.000;-14.57250
 900.23;    5.940;    9.759;    0.000;-3.81875
 900.47;   -2.450;    9.193;    0.000;-11.64250
 900.71;    0.040;    9.520;    0.000;-9.48000
 900.95;    2.180;    9.591;    0.000;-7.41125
 901.19;   17.760;    9.936;    0.000; 7.82375
 901.44;   17.480;   11.654;    0.000; 5.82625
 901.68;   42.730;   11.363;    0.000;31.36750
 901.92;   38.430;   12.930;    0.000;25.50000
 902.16;   47.660;   12.275;    0.000;35.38500
 902.40;   58.570;   15.089;    0.000;43.48125
 902.64;   81.680;   18.999;    0.000;62.68125
 902.88;   95.250;   18.346;    0.000;76.90375
 903.13;  123.220;   19.689;    0.000;103.53125

