p5
Integration time [ms]:  20.000
Averaging Nr. [scans]: 50
Smoothing Nr. [pixels]: 0
Data measured with spectrometer [name]: 1307077U2
Wave   ;Sample   ;Dark     ;Reference;Scope Corrected for Dark
[nm]   ;[counts] ;[counts] ;[counts] 

 350.80;    6.940;   -3.950;    0.000;10.89000
 351.10;   -5.340;    2.790;    0.000;-8.13000
 351.39;    0.820;   -5.780;    0.000; 6.60000
 351.69;  -13.760;   -6.710;    0.000;-7.05000
 351.99;    8.720;  -10.760;    0.000;19.48000
 352.28;   -2.300;  -11.870;    0.000; 9.57000
 352.58;    9.100;    2.640;    0.000; 6.46000
 352.88;    2.900;   -3.560;    0.000; 6.46000
 353.17;    9.040;   -1.460;    0.000;10.50000
 353.47;  -10.460;   -7.300;    0.000;-3.16000
 353.76;   20.400;    3.730;    0.000;16.67000
 354.06;    7.100;    1.480;    0.000; 5.62000
 354.36;   11.460;    2.120;    0.000; 9.34000
 354.65;   29.780;   12.260;    0.000;17.52000
 354.95;    0.800;    1.380;    0.000;-0.58000
 355.24;   -4.500;   -7.520;    0.000; 3.02000
 355.54;   13.280;   -6.140;    0.000;19.42000
 355.84;   -1.020;    1.010;    0.000;-2.03000
 356.13;   31.700;    1.060;    0.000;30.64000
 356.43;   -1.680;   -3.280;    0.000; 1.60000
 356.72;    0.160;   -7.820;    0.000; 7.98000
 357.02;   -1.980;    1.340;    0.000;-3.32000
 357.31;   24.540;    4.400;    0.000;20.14000
 357.61;    7.400;    0.390;    0.000; 7.01000
 357.91;   -7.900;   -9.460;    0.000; 1.56000
 358.20;   -3.740;   -6.210;    0.000; 2.47000
 358.50;   13.860;   -0.320;    0.000;14.18000
 358.79;    0.920;   -0.240;    0.000; 1.16000
 359.09;   24.780;    4.600;    0.000;20.18000
 359.38;   -0.380;   -4.910;    0.000; 4.53000
 359.68;  -15.940;   -6.920;    0.000;-9.02000
 359.98;    6.640;   -3.210;    0.000; 9.85000
 360.27;    5.220;   -5.880;    0.000;11.10000
 360.57;   -3.700;   -6.850;    0.000; 3.15000
 360.86;   16.120;   -3.030;    0.000;19.15000
 361.16;   -5.580;  -10.940;    0.000; 5.36000
 361.45;    1.020;   -3.610;    0.000; 4.63000
 361.75;    1.960;   -6.330;    0.000; 8.29000
 362.04;   38.140;    7.330;    0.000;30.81000
 362.34;   -3.340;   -8.080;    0.000; 4.74000
 362.64;    2.040;   -4.150;    0.000; 6.19000
 362.93;   -1.440;  -11.650;    0.000;10.21000
 363.23;   -0.140;   -3.380;    0.000; 3.24000
 363.52;   -1.640;   -7.930;    0.000; 6.29000
 363.82;    5.260;   -3.630;    0.000; 8.89000
 364.11;    4.480;   -3.640;    0.000; 8.12000
 364.41;   -5.320;   -7.090;    0.000; 1.77000
 364.70;   -3.080;   -9.000;    0.000; 5.92000
 365.00;    8.940;    0.260;    0.000; 8.68000
 365.29;   -3.180;   -7.370;    0.000; 4.19000
 365.59;    2.160;   -3.180;    0.000; 5.34000
 365.88;   -6.240;  -15.140;    0.000; 8.90000
 366.18;    7.820;   -3.430;    0.000;11.25000
 366.47;   -1.700;   -8.280;    0.000; 6.58000
 366.77;   -1.840;   -6.540;    0.000; 4.70000
 367.06;   -5.480;   -3.040;    0.000;-2.44000
 367.36;   13.800;   -6.830;    0.000;20.63000
 367.65;   15.880;   -1.150;    0.000;17.03000
 367.95;   -1.360;   -6.850;    0.000; 5.49000
 368.24;    0.360;   -4.930;    0.000; 5.29000
 368.54;   -7.040;  -13.980;    0.000; 6.94000
 368.83;   16.480;   -1.360;    0.000;17.84000
 369.13;   10.480;   -2.650;    0.000;13.13000
 369.42;   -1.060;   -5.530;    0.000; 4.47000
 369.72;   12.000;   -9.410;    0.000;21.41000
 370.01;   -1.040;   -1.870;    0.000; 0.83000
 370.31;   15.260;    2.490;    0.000;12.77000
 370.60;   20.980;   -0.490;    0.000;21.47000
 370.90;   10.960;   -4.910;    0.000;15.87000
 371.19;   -9.700;   -8.640;    0.000;-1.06000
 371.49;    6.420;  -15.270;    0.000;21.69000
 371.78;    8.100;  -12.190;    0.000;20.29000
 372.08;   10.480;   -4.150;    0.000;14.63000
 372.37;   -3.940;   -7.430;    0.000; 3.49000
 372.67;   21.480;   -1.910;    0.000;23.39000
 372.96;   -2.940;   -4.090;    0.000; 1.15000
 373.26;   -2.160;  -11.210;    0.000; 9.05000
 373.55;   -3.900;   -3.340;    0.000;-0.56000
 373.85;    2.860;  -14.000;    0.000;16.86000
 374.14;   -2.960;   -0.440;    0.000;-2.52000
 374.43;    6.520;   -4.860;    0.000;11.38000
 374.73;    6.800;   -5.870;    0.000;12.67000
 375.02;    7.160;   -6.640;    0.000;13.80000
 375.32;   -7.320;   -8.860;    0.000; 1.54000
 375.61;    8.480;   -4.690;    0.000;13.17000
 375.91;    1.300;   -6.400;    0.000; 7.70000
 376.20;  -15.680;   -8.800;    0.000;-6.88000
 376.50;   -6.080;   -2.750;    0.000;-3.33000
 376.79;    0.840;  -12.990;    0.000;13.83000
 377.08;  -10.620;   -9.810;    0.000;-0.81000
 377.38;    0.480;   -9.410;    0.000; 9.89000
 377.67;    3.760;  -15.820;    0.000;19.58000
 377.97;   -0.040;  -12.430;    0.000;12.39000
 378.26;   -5.940;   -3.550;    0.000;-2.39000
 378.56;  -10.740;  -11.760;    0.000; 1.02000
 378.85;   16.520;   -6.770;    0.000;23.29000
 379.14;   -3.900;  -10.870;    0.000; 6.97000
 379.44;   -2.020;   -7.950;    0.000; 5.93000
 379.73;   -3.140;  -12.070;    0.000; 8.93000
 380.03;  -11.260;  -10.640;    0.000;-0.62000
 380.32;   -2.480;  -10.740;    0.000; 8.26000
 380.62;   -2.280;  -11.160;    0.000; 8.88000
 380.91;    5.420;   -2.790;    0.000; 8.21000
 381.20;   -8.380;   -6.380;    0.000;-2.00000
 381.50;   -2.160;   -6.110;    0.000; 3.95000
 381.79;   -5.640;   -7.870;    0.000; 2.23000
 382.09;    5.240;   -7.030;    0.000;12.27000
 382.38;    6.180;  -10.330;    0.000;16.51000
 382.67;   -3.440;  -10.730;    0.000; 7.29000
 382.97;   -4.200;   -5.370;    0.000; 1.17000
 383.26;    3.300;   -3.260;    0.000; 6.56000
 383.56;    3.620;   -3.260;    0.000; 6.88000
 383.85;    4.920;  -12.650;    0.000;17.57000
 384.14;   14.160;    0.820;    0.000;13.34000
 384.44;   -4.540;   -6.530;    0.000; 1.99000
 384.73;   -1.780;   -5.430;    0.000; 3.65000
 385.02;    6.740;   -6.450;    0.000;13.19000
 385.32;    6.240;   -4.570;    0.000;10.81000
 385.61;  -14.080;  -16.270;    0.000; 2.19000
 385.91;   15.520;   -9.440;    0.000;24.96000
 386.20;   -1.780;  -10.110;    0.000; 8.33000
 386.49;   -0.200;  -14.900;    0.000;14.70000
 386.79;   10.100;   -7.340;    0.000;17.44000
 387.08;   -2.180;   -6.300;    0.000; 4.12000
 387.37;   10.440;   -8.420;    0.000;18.86000
 387.67;    3.260;   -6.130;    0.000; 9.39000
 387.96;   -3.640;   -9.280;    0.000; 5.64000
 388.25;   -6.100;   -1.410;    0.000;-4.69000
 388.55;    1.580;  -10.080;    0.000;11.66000
 388.84;   -6.980;  -12.690;    0.000; 5.71000
 389.14;    3.640;  -11.090;    0.000;14.73000
 389.43;    0.760;   -9.030;    0.000; 9.79000
 389.72;   -7.840;  -13.300;    0.000; 5.46000
 390.02;   -7.820;   -9.420;    0.000; 1.60000
 390.31;    5.920;   -2.070;    0.000; 7.99000
 390.60;    0.580;   -4.250;    0.000; 4.83000
 390.90;   -8.920;  -15.000;    0.000; 6.08000
 391.19;   -3.780;   -8.270;    0.000; 4.49000
 391.48;   -2.820;  -13.200;    0.000;10.38000
 391.78;   -6.500;   -9.570;    0.000; 3.07000
 392.07;   67.420;   16.810;    0.000;50.61000
 392.36;    7.100;   -1.800;    0.000; 8.90000
 392.66;   -1.660;  -11.850;    0.000;10.19000
 392.95;  -10.800;  -10.380;    0.000;-0.42000
 393.24;  -12.140;  -20.110;    0.000; 7.97000
 393.53;   -3.720;   -8.500;    0.000; 4.78000
 393.83;  -15.280;  -10.870;    0.000;-4.41000
 394.12;  -19.040;  -16.700;    0.000;-2.34000
 394.41;   -6.460;  -13.050;    0.000; 6.59000
 394.71;   -6.140;   -7.960;    0.000; 1.82000
 395.00;    5.960;  -12.500;    0.000;18.46000
 395.29;    7.780;   -8.400;    0.000;16.18000
 395.59;  -16.500;  -20.950;    0.000; 4.45000
 395.88;   -2.100;  -16.060;    0.000;13.96000
 396.17;  -11.140;   -8.460;    0.000;-2.68000
 396.46;   -1.260;   -3.560;    0.000; 2.30000
 396.76;   -6.280;  -13.050;    0.000; 6.77000
 397.05;   21.340;    2.180;    0.000;19.16000
 397.34;   -6.620;  -20.090;    0.000;13.47000
 397.64;   -6.940;   -9.050;    0.000; 2.11000
 397.93;   -6.440;  -18.420;    0.000;11.98000
 398.22;  -12.380;  -12.920;    0.000; 0.54000
 398.51;   -2.720;   -9.770;    0.000; 7.05000
 398.81;   -8.200;  -12.510;    0.000; 4.31000
 399.10;    2.560;   -2.690;    0.000; 5.25000
 399.39;    8.420;  -11.900;    0.000;20.32000
 399.69;    5.160;  -13.740;    0.000;18.90000
 399.98;   10.260;   -4.100;    0.000;14.36000
 400.27;   -8.080;  -13.520;    0.000; 5.44000
 400.56;    0.580;  -16.060;    0.000;16.64000
 400.86;    1.300;  -13.820;    0.000;15.12000
 401.15;    3.580;   -4.180;    0.000; 7.76000
 401.44;  -12.680;  -15.730;    0.000; 3.05000
 401.73;   13.000;   -2.540;    0.000;15.54000
 402.03;   10.400;  -10.300;    0.000;20.70000
 402.32;  -25.460;  -17.030;    0.000;-8.43000
 402.61;   -7.720;   -9.950;    0.000; 2.23000
 402.90;  -16.520;  -11.420;    0.000;-5.10000
 403.20;   -2.900;   -6.220;    0.000; 3.32000
 403.49;    3.560;   -6.030;    0.000; 9.59000
 403.78;   -0.440;  -11.040;    0.000;10.60000
 404.07;   -8.820;  -18.650;    0.000; 9.83000
 404.37;    4.780;  -10.470;    0.000;15.25000
 404.66;  -10.640;  -14.960;    0.000; 4.32000
 404.95;    9.020;   -0.330;    0.000; 9.35000
 405.24;   -3.000;  -15.620;    0.000;12.62000
 405.53;   -9.940;  -15.660;    0.000; 5.72000
 405.83;    3.940;   -4.700;    0.000; 8.64000
 406.12;   -9.080;  -10.900;    0.000; 1.82000
 406.41;   14.140;   -6.740;    0.000;20.88000
 406.70;   -3.380;  -12.650;    0.000; 9.27000
 407.00;    1.460;   -5.150;    0.000; 6.61000
 407.29;   -0.280;  -10.150;    0.000; 9.87000
 407.58;  -13.980;  -15.850;    0.000; 1.87000
 407.87;   -9.540;  -15.280;    0.000; 5.74000
 408.16;  -11.580;  -17.930;    0.000; 6.35000
 408.46;   -8.860;  -11.550;    0.000; 2.69000
 408.75;   -7.500;  -11.910;    0.000; 4.41000
 409.04;    6.720;   -9.380;    0.000;16.10000
 409.33;    6.960;   -5.530;    0.000;12.49000
 409.62;    5.960;   -9.060;    0.000;15.02000
 409.92;    0.760;   -7.890;    0.000; 8.65000
 410.21;   -6.000;  -11.510;    0.000; 5.51000
 410.50;  -10.960;  -15.240;    0.000; 4.28000
 410.79;   11.460;   -3.910;    0.000;15.37000
 411.08;   -5.960;  -18.230;    0.000;12.27000
 411.37;   -5.760;  -12.950;    0.000; 7.19000
 411.67;   -8.220;  -15.120;    0.000; 6.90000
 411.96;    1.980;  -13.530;    0.000;15.51000
 412.25;   -9.800;  -11.720;    0.000; 1.92000
 412.54;   -4.800;  -14.570;    0.000; 9.77000
 412.83;   -4.760;  -15.690;    0.000;10.93000
 413.13;   -3.320;  -12.520;    0.000; 9.20000
 413.42;   -8.900;  -11.540;    0.000; 2.64000
 413.71;    6.980;  -16.160;    0.000;23.14000
 414.00;   -4.400;  -15.050;    0.000;10.65000
 414.29;    4.160;  -10.400;    0.000;14.56000
 414.58;  -11.700;  -20.050;    0.000; 8.35000
 414.87;   -1.320;  -11.570;    0.000;10.25000
 415.17;   -4.960;  -14.460;    0.000; 9.50000
 415.46;   -0.500;  -14.740;    0.000;14.24000
 415.75;    4.380;  -15.050;    0.000;19.43000
 416.04;    9.700;  -19.580;    0.000;29.28000
 416.33;   -3.640;  -10.240;    0.000; 6.60000
 416.62;  -10.840;  -16.750;    0.000; 5.91000
 416.91;   -5.000;   -9.630;    0.000; 4.63000
 417.21;    0.860;   -9.770;    0.000;10.63000
 417.50;  -15.600;  -22.390;    0.000; 6.79000
 417.79;    2.040;  -14.440;    0.000;16.48000
 418.08;   -4.760;  -16.260;    0.000;11.50000
 418.37;   -1.540;  -12.710;    0.000;11.17000
 418.66;  -13.640;  -14.780;    0.000; 1.14000
 418.95;   28.500;  -12.220;    0.000;40.72000
 419.24;  -16.220;  -16.910;    0.000; 0.69000
 419.54;    4.360;  -14.290;    0.000;18.65000
 419.83;    8.580;   -7.000;    0.000;15.58000
 420.12;   -6.380;  -17.080;    0.000;10.70000
 420.41;   14.880;   -6.120;    0.000;21.00000
 420.70;  -12.660;  -15.970;    0.000; 3.31000
 420.99;   -4.440;   -7.860;    0.000; 3.42000
 421.28;   -0.880;  -14.590;    0.000;13.71000
 421.57;    4.880;  -13.670;    0.000;18.55000
 421.86;   14.840;   -3.720;    0.000;18.56000
 422.16;   10.900;   -4.790;    0.000;15.69000
 422.45;   -6.340;   -7.870;    0.000; 1.53000
 422.74;  -14.100;  -11.510;    0.000;-2.59000
 423.03;   -0.940;   -8.230;    0.000; 7.29000
 423.32;  -15.140;  -16.280;    0.000; 1.14000
 423.61;   14.540;  -10.700;    0.000;25.24000
 423.90;   -0.440;  -18.810;    0.000;18.37000
 424.19;   44.280;    3.040;    0.000;41.24000
 424.48;  -12.420;  -13.640;    0.000; 1.22000
 424.77;    3.860;  -15.110;    0.000;18.97000
 425.06;   -2.360;   -8.550;    0.000; 6.19000
 425.35;   13.340;  -12.070;    0.000;25.41000
 425.65;  -11.640;  -12.850;    0.000; 1.21000
 425.94;   -6.200;  -13.500;    0.000; 7.30000
 426.23;  -16.920;  -18.630;    0.000; 1.71000
 426.52;   -2.920;  -18.760;    0.000;15.84000
 426.81;   21.440;   -4.960;    0.000;26.40000
 427.10;  -14.760;  -18.640;    0.000; 3.88000
 427.39;  -12.460;  -17.730;    0.000; 5.27000
 427.68;   -2.120;   -6.060;    0.000; 3.94000
 427.97;   -3.580;   -9.970;    0.000; 6.39000
 428.26;    0.080;  -21.550;    0.000;21.63000
 428.55;    3.660;   -7.010;    0.000;10.67000
 428.84;   11.740;  -15.510;    0.000;27.25000
 429.13;   -2.340;  -21.800;    0.000;19.46000
 429.42;    3.760;   -6.430;    0.000;10.19000
 429.71;    5.960;  -12.900;    0.000;18.86000
 430.00;   -7.640;  -27.260;    0.000;19.62000
 430.29;   -6.180;  -18.790;    0.000;12.61000
 430.58;  -11.020;  -19.950;    0.000; 8.93000
 430.87;   -3.520;  -18.710;    0.000;15.19000
 431.16;   -6.580;  -27.130;    0.000;20.55000
 431.46;    2.360;  -12.580;    0.000;14.94000
 431.75;   -6.520;  -16.460;    0.000; 9.94000
 432.04;    1.580;  -12.750;    0.000;14.33000
 432.33;   -8.760;  -15.960;    0.000; 7.20000
 432.62;   -0.260;  -16.610;    0.000;16.35000
 432.91;   -4.840;  -15.280;    0.000;10.44000
 433.20;   -9.320;  -14.090;    0.000; 4.77000
 433.49;   -5.080;  -21.180;    0.000;16.10000
 433.78;  -10.580;  -15.380;    0.000; 4.80000
 434.07;  -18.280;  -18.570;    0.000; 0.29000
 434.36;  -10.340;  -18.360;    0.000; 8.02000
 434.65;  -15.180;  -19.110;    0.000; 3.93000
 434.94;  -18.900;  -16.660;    0.000;-2.24000
 435.23;    6.800;  -14.870;    0.000;21.67000
 435.52;    2.860;  -15.280;    0.000;18.14000
 435.81;   -1.540;  -19.590;    0.000;18.05000
 436.10;   -4.940;   -8.920;    0.000; 3.98000
 436.39;   15.980;   -9.090;    0.000;25.07000
 436.68;   14.060;   -9.150;    0.000;23.21000
 436.97;  -10.820;  -17.940;    0.000; 7.12000
 437.26;    3.320;  -11.060;    0.000;14.38000
 437.55;    7.120;  -14.150;    0.000;21.27000
 437.83;  -12.620;  -20.360;    0.000; 7.74000
 438.12;  -22.160;  -19.980;    0.000;-2.18000
 438.41;   -4.720;  -18.690;    0.000;13.97000
 438.70;   31.640;   -6.450;    0.000;38.09000
 438.99;   21.900;   -3.000;    0.000;24.90000
 439.28;    0.860;  -13.960;    0.000;14.82000
 439.57;   -6.720;   -8.660;    0.000; 1.94000
 439.86;   -3.420;  -20.460;    0.000;17.04000
 440.15;   -7.460;  -10.490;    0.000; 3.03000
 440.44;   -0.840;  -14.790;    0.000;13.95000
 440.73;   -5.580;  -19.990;    0.000;14.41000
 441.02;   -0.800;  -18.940;    0.000;18.14000
 441.31;   -0.580;  -17.020;    0.000;16.44000
 441.60;   15.300;  -10.820;    0.000;26.12000
 441.89;  -15.920;  -18.180;    0.000; 2.26000
 442.18;    6.760;  -11.380;    0.000;18.14000
 442.47;   -7.700;  -20.660;    0.000;12.96000
 442.76;  -11.480;  -17.440;    0.000; 5.96000
 443.05;    4.400;   -6.670;    0.000;11.07000
 443.34;    9.920;  -21.050;    0.000;30.97000
 443.63;   -1.220;  -21.060;    0.000;19.84000
 443.91;   -2.500;  -24.010;    0.000;21.51000
 444.20;  -18.400;  -15.210;    0.000;-3.19000
 444.49;  -11.840;  -17.150;    0.000; 5.31000
 444.78;   -5.080;  -10.890;    0.000; 5.81000
 445.07;    9.980;  -13.040;    0.000;23.02000
 445.36;  -15.140;  -25.850;    0.000;10.71000
 445.65;   -3.340;  -13.460;    0.000;10.12000
 445.94;   -2.120;  -17.420;    0.000;15.30000
 446.23;   10.120;  -14.150;    0.000;24.27000
 446.52;    5.200;  -19.520;    0.000;24.72000
 446.81;    9.760;  -16.560;    0.000;26.32000
 447.10;   -4.560;  -13.040;    0.000; 8.48000
 447.38;   -3.060;  -16.320;    0.000;13.26000
 447.67;   10.820;  -14.960;    0.000;25.78000
 447.96;   -1.040;  -20.220;    0.000;19.18000
 448.25;   -7.240;  -17.610;    0.000;10.37000
 448.54;   -5.180;  -20.490;    0.000;15.31000
 448.83;   -5.560;  -21.650;    0.000;16.09000
 449.12;   -8.120;  -24.330;    0.000;16.21000
 449.41;   -6.320;  -17.380;    0.000;11.06000
 449.70;  -10.820;  -19.200;    0.000; 8.38000
 449.98;  -12.300;  -18.990;    0.000; 6.69000
 450.27;    1.980;  -10.630;    0.000;12.61000
 450.56;  -12.000;  -19.350;    0.000; 7.35000
 450.85;   -1.620;  -18.980;    0.000;17.36000
 451.14;   -9.860;  -18.310;    0.000; 8.45000
 451.43;  -16.300;  -19.640;    0.000; 3.34000
 451.72;  -17.420;  -20.630;    0.000; 3.21000
 452.01;    7.620;  -12.200;    0.000;19.82000
 452.29;  -14.900;  -18.350;    0.000; 3.45000
 452.58;   -6.060;  -25.270;    0.000;19.21000
 452.87;  -12.340;  -19.090;    0.000; 6.75000
 453.16;  -18.720;  -11.330;    0.000;-7.39000
 453.45;   14.120;  -14.720;    0.000;28.84000
 453.74;    4.380;  -10.690;    0.000;15.07000
 454.03;   -4.660;  -21.930;    0.000;17.27000
 454.31;  -13.800;  -22.490;    0.000; 8.69000
 454.60;   -5.900;  -21.160;    0.000;15.26000
 454.89;    5.120;  -12.560;    0.000;17.68000
 455.18;   -8.200;  -24.060;    0.000;15.86000
 455.47;  -17.600;  -26.150;    0.000; 8.55000
 455.76;   -7.460;  -27.400;    0.000;19.94000
 456.04;   -4.940;  -25.580;    0.000;20.64000
 456.33;   -5.420;  -25.270;    0.000;19.85000
 456.62;   -0.140;  -18.480;    0.000;18.34000
 456.91;  -13.740;  -23.960;    0.000;10.22000
 457.20;    8.840;  -15.140;    0.000;23.98000
 457.49;   -0.760;  -14.830;    0.000;14.07000
 457.77;  -11.180;  -20.000;    0.000; 8.82000
 458.06;    5.400;  -12.460;    0.000;17.86000
 458.35;   -5.360;  -24.180;    0.000;18.82000
 458.64;   -7.920;  -11.000;    0.000; 3.08000
 458.93;    1.560;  -15.890;    0.000;17.45000
 459.21;  -13.640;  -21.440;    0.000; 7.80000
 459.50;    2.020;  -22.030;    0.000;24.05000
 459.79;  -19.340;  -19.740;    0.000; 0.40000
 460.08;   -9.040;  -20.210;    0.000;11.17000
 460.37;  -14.620;  -17.330;    0.000; 2.71000
 460.65;   -1.920;  -20.980;    0.000;19.06000
 460.94;   -5.400;  -24.100;    0.000;18.70000
 461.23;  -10.540;  -16.720;    0.000; 6.18000
 461.52;    5.400;  -10.800;    0.000;16.20000
 461.81;   -7.260;  -18.200;    0.000;10.94000
 462.09;    3.260;  -16.530;    0.000;19.79000
 462.38;  -20.660;  -21.390;    0.000; 0.73000
 462.67;   -7.300;  -25.110;    0.000;17.81000
 462.96;   -2.960;  -24.230;    0.000;21.27000
 463.24;    1.120;  -23.650;    0.000;24.77000
 463.53;    6.540;  -17.480;    0.000;24.02000
 463.82;   -8.940;  -19.800;    0.000;10.86000
 464.11;  -10.040;  -21.730;    0.000;11.69000
 464.40;   -7.800;  -22.130;    0.000;14.33000
 464.68;  -17.360;  -21.480;    0.000; 4.12000
 464.97;   -0.820;  -19.470;    0.000;18.65000
 465.26;    6.920;  -17.460;    0.000;24.38000
 465.55;    1.920;  -20.890;    0.000;22.81000
 465.83;   -5.700;  -20.920;    0.000;15.22000
 466.12;  -20.340;  -22.340;    0.000; 2.00000
 466.41;    1.760;  -21.380;    0.000;23.14000
 466.70;   -2.840;  -23.610;    0.000;20.77000
 466.98;  -19.460;  -20.090;    0.000; 0.63000
 467.27;   15.560;  -18.760;    0.000;34.32000
 467.56;    6.560;  -20.980;    0.000;27.54000
 467.85;   -0.440;  -15.930;    0.000;15.49000
 468.13;   -2.980;  -14.330;    0.000;11.35000
 468.42;    3.760;  -17.700;    0.000;21.46000
 468.71;    5.900;  -20.100;    0.000;26.00000
 468.99;    1.960;  -17.320;    0.000;19.28000
 469.28;   -0.420;  -22.330;    0.000;21.91000
 469.57;  -11.180;  -21.170;    0.000; 9.99000
 469.86;    8.960;  -18.660;    0.000;27.62000
 470.14;  -15.060;  -24.400;    0.000; 9.34000
 470.43;   14.800;  -16.250;    0.000;31.05000
 470.72;  -26.060;  -27.700;    0.000; 1.64000
 471.00;   -9.260;  -21.470;    0.000;12.21000
 471.29;   13.500;  -12.190;    0.000;25.69000
 471.58;   26.400;  -14.440;    0.000;40.84000
 471.87;   -4.440;  -20.260;    0.000;15.82000
 472.15;    9.760;  -27.280;    0.000;37.04000
 472.44;   23.300;  -13.550;    0.000;36.85000
 472.73;  -13.000;  -28.340;    0.000;15.34000
 473.01;   -9.940;  -26.320;    0.000;16.38000
 473.30;    4.320;  -23.100;    0.000;27.42000
 473.59;   -1.400;  -19.590;    0.000;18.19000
 473.87;    2.880;  -19.240;    0.000;22.12000
 474.16;  -17.420;  -20.110;    0.000; 2.69000
 474.45;    0.500;  -30.440;    0.000;30.94000
 474.74;   -6.880;  -22.750;    0.000;15.87000
 475.02;   -6.900;  -15.460;    0.000; 8.56000
 475.31;    6.420;  -20.200;    0.000;26.62000
 475.60;   14.260;  -27.200;    0.000;41.46000
 475.88;  -11.160;  -25.920;    0.000;14.76000
 476.17;   20.000;  -16.890;    0.000;36.89000
 476.46;    5.120;  -20.900;    0.000;26.02000
 476.74;   -3.100;  -23.070;    0.000;19.97000
 477.03;   -4.020;  -22.890;    0.000;18.87000
 477.32;    4.600;  -21.040;    0.000;25.64000
 477.60;    4.620;  -24.890;    0.000;29.51000
 477.89;   10.500;  -14.910;    0.000;25.41000
 478.18;   -0.380;  -15.900;    0.000;15.52000
 478.46;   10.460;  -19.520;    0.000;29.98000
 478.75;   -2.500;  -18.520;    0.000;16.02000
 479.03;   -3.280;  -17.330;    0.000;14.05000
 479.32;   -7.140;  -26.670;    0.000;19.53000
 479.61;   -4.420;  -32.440;    0.000;28.02000
 479.89;   -4.120;  -24.740;    0.000;20.62000
 480.18;   14.540;  -21.450;    0.000;35.99000
 480.47;    9.100;  -18.220;    0.000;27.32000
 480.75;    2.980;  -29.820;    0.000;32.80000
 481.04;    9.680;  -20.400;    0.000;30.08000
 481.33;   11.280;  -16.240;    0.000;27.52000
 481.61;   -1.520;  -20.830;    0.000;19.31000
 481.90;   -8.820;  -33.240;    0.000;24.42000
 482.18;    5.180;  -23.490;    0.000;28.67000
 482.47;   12.980;  -18.580;    0.000;31.56000
 482.76;    4.900;  -24.650;    0.000;29.55000
 483.04;   11.060;  -22.560;    0.000;33.62000
 483.33;   -6.060;  -27.450;    0.000;21.39000
 483.61;    4.920;  -18.390;    0.000;23.31000
 483.90;   -3.920;  -22.630;    0.000;18.71000
 484.19;   -9.160;  -31.890;    0.000;22.73000
 484.47;    5.980;  -27.650;    0.000;33.63000
 484.76;   -4.160;  -22.480;    0.000;18.32000
 485.05;   12.080;  -15.900;    0.000;27.98000
 485.33;    5.340;  -20.520;    0.000;25.86000
 485.62;    6.000;  -23.220;    0.000;29.22000
 485.90;    8.320;  -19.330;    0.000;27.65000
 486.19;  -12.520;  -21.960;    0.000; 9.44000
 486.47;   23.000;  -17.750;    0.000;40.75000
 486.76;   -3.800;  -32.110;    0.000;28.31000
 487.05;   23.340;  -21.590;    0.000;44.93000
 487.33;   21.580;  -24.120;    0.000;45.70000
 487.62;   10.540;  -27.370;    0.000;37.91000
 487.90;   16.180;  -24.640;    0.000;40.82000
 488.19;   30.460;  -17.250;    0.000;47.71000
 488.47;   19.140;  -20.280;    0.000;39.42000
 488.76;   20.220;  -22.200;    0.000;42.42000
 489.05;   43.160;  -13.720;    0.000;56.88000
 489.33;   30.320;  -24.060;    0.000;54.38000
 489.62;   24.240;  -27.760;    0.000;52.00000
 489.90;   29.140;  -29.230;    0.000;58.37000
 490.19;   38.140;  -20.080;    0.000;58.22000
 490.47;   63.020;  -27.170;    0.000;90.19000
 490.76;   42.740;  -30.390;    0.000;73.13000
 491.05;   64.360;  -18.700;    0.000;83.06000
 491.33;   71.440;  -19.160;    0.000;90.60000
 491.62;   64.480;  -30.080;    0.000;94.56000
 491.90;   76.920;  -24.970;    0.000;101.89000
 492.19;   82.080;  -29.880;    0.000;111.96000
 492.47;   96.380;  -26.010;    0.000;122.39000
 492.76;  107.280;  -25.800;    0.000;133.08000
 493.04;  123.480;  -23.090;    0.000;146.57000
 493.33;  133.420;  -29.680;    0.000;163.10000
 493.61;  166.380;  -28.280;    0.000;194.66001
 493.90;  176.300;  -25.470;    0.000;201.77000
 494.18;  197.120;  -21.360;    0.000;218.48000
 494.47;  203.760;  -21.500;    0.000;225.25999
 494.75;  214.000;  -25.740;    0.000;239.74000
 495.04;  254.360;  -25.010;    0.000;279.37000
 495.32;  276.900;  -24.280;    0.000;301.17999
 495.61;  306.380;  -26.390;    0.000;332.77000
 495.89;  340.940;  -25.210;    0.000;366.15000
 496.18;  378.580;  -24.900;    0.000;403.47999
 496.46;  399.300;  -25.570;    0.000;424.86999
 496.75;  455.020;  -19.200;    0.000;474.21999
 497.03;  473.880;  -21.850;    0.000;495.73001
 497.32;  523.020;  -28.930;    0.000;551.95002
 497.60;  564.580;  -27.460;    0.000;592.04002
 497.89;  622.620;  -26.060;    0.000;648.67999
 498.17;  672.280;  -23.200;    0.000;695.48003
 498.46;  725.360;  -31.150;    0.000;756.50998
 498.74;  781.140;  -21.420;    0.000;802.56001
 499.03;  833.000;  -27.500;    0.000;860.50000
 499.31;  899.400;  -33.980;    0.000;933.38002
 499.60;  982.200;  -26.560;    0.000;1008.76001
 499.88; 1073.820;  -13.310;    0.000;1087.12995
 500.17; 1109.100;  -32.950;    0.000;1142.04998
 500.45; 1199.620;  -26.850;    0.000;1226.47000
 500.74; 1281.380;  -32.110;    0.000;1313.49001
 501.02; 1365.540;  -28.340;    0.000;1393.88004
 501.31; 1463.640;  -30.740;    0.000;1494.38001
 501.59; 1559.180;  -22.990;    0.000;1582.17005
 501.88; 1657.580;  -24.540;    0.000;1682.11996
 502.16; 1741.300;  -33.190;    0.000;1774.49005
 502.45; 1859.520;  -27.850;    0.000;1887.37002
 502.73; 1953.640;  -30.030;    0.000;1983.67002
 503.01; 2073.640;  -26.800;    0.000;2100.43989
 503.30; 2187.940;  -26.540;    0.000;2214.47994
 503.58; 2307.720;  -37.970;    0.000;2345.68997
 503.87; 2420.760;  -21.070;    0.000;2441.83001
 504.15; 2545.900;  -31.700;    0.000;2577.59990
 504.44; 2683.620;  -22.380;    0.000;2706.00012
 504.72; 2815.460;  -16.240;    0.000;2831.69996
 505.00; 2944.080;  -31.090;    0.000;2975.17008
 505.29; 3099.840;  -18.750;    0.000;3118.59009
 505.57; 3236.600;  -26.120;    0.000;3262.72010
 505.86; 3380.700;  -30.130;    0.000;3410.82995
 506.14; 3532.780;  -40.580;    0.000;3573.36003
 506.43; 3729.220;  -16.980;    0.000;3746.19997
 506.71; 3835.340;  -26.380;    0.000;3861.72009
 506.99; 4004.560;  -33.030;    0.000;4037.59006
 507.28; 4217.960;  -27.620;    0.000;4245.57996
 507.56; 4339.540;  -28.400;    0.000;4367.94004
 507.85; 4549.320;  -26.630;    0.000;4575.94982
 508.13; 4729.120;  -23.390;    0.000;4752.51012
 508.41; 4886.860;  -13.300;    0.000;4900.15986
 508.70; 5034.460;  -30.090;    0.000;5064.54996
 508.98; 5257.900;  -29.260;    0.000;5287.15990
 509.27; 5443.820;  -34.820;    0.000;5478.63982
 509.55; 5682.860;  -20.900;    0.000;5703.75986
 509.83; 5826.880;  -32.250;    0.000;5859.12988
 510.12; 6033.800;  -25.080;    0.000;6058.87980
 510.40; 6228.560;  -26.530;    0.000;6255.09006
 510.69; 6410.860;  -26.360;    0.000;6437.21986
 510.97; 6632.700;  -25.960;    0.000;6658.66019
 511.25; 6836.540;  -25.560;    0.000;6862.10004
 511.54; 7075.540;  -32.180;    0.000;7107.72004
 511.82; 7261.540;  -23.410;    0.000;7284.95004
 512.11; 7454.220;  -28.130;    0.000;7482.35021
 512.39; 7670.740;  -32.100;    0.000;7702.84023
 512.67; 7876.780;  -23.390;    0.000;7900.16978
 512.96; 8097.000;  -27.360;    0.000;8124.36000
 513.24; 8292.500;  -25.540;    0.000;8318.04000
 513.52; 8481.020;  -20.710;    0.000;8501.72953
 513.81; 8695.320;  -27.450;    0.000;8722.77031
 514.09; 8895.760;  -31.630;    0.000;8927.38976
 514.37; 9093.160;  -28.900;    0.000;9122.06016
 514.66; 9266.640;  -26.830;    0.000;9293.46965
 514.94; 9586.820;  -30.930;    0.000;9617.75031
 515.22; 9695.380;  -20.740;    0.000;9716.11988
 515.51; 9934.720;  -28.110;    0.000;9962.82973
 515.79;10123.240;  -30.680;    0.000;10153.92023
 516.07;10357.900;  -21.420;    0.000;10379.32039
 516.36;10639.380;  -30.450;    0.000;10669.82988
 516.64;10790.660;  -27.560;    0.000;10818.22016
 516.92;10989.340;  -28.140;    0.000;11017.47984
 517.21;11264.580;  -33.670;    0.000;11298.25008
 517.49;11492.620;  -21.660;    0.000;11514.28012
 517.77;11766.600;  -23.850;    0.000;11790.44961
 518.06;11944.520;  -35.280;    0.000;11979.79953
 518.34;12212.320;  -22.260;    0.000;12234.58031
 518.62;12381.680;  -18.090;    0.000;12399.76969
 518.91;12577.080;  -25.090;    0.000;12602.17008
 519.19;12745.940;  -29.320;    0.000;12775.26043
 519.47;13022.720;  -25.890;    0.000;13048.60973
 519.76;13180.080;  -20.890;    0.000;13200.97008
 520.04;13423.960;  -27.100;    0.000;13451.05996
 520.32;13550.500;  -24.040;    0.000;13574.54000
 520.61;13806.180;  -17.280;    0.000;13823.45969
 520.89;14002.000;  -26.150;    0.000;14028.15000
 521.17;14184.620;  -27.250;    0.000;14211.87012
 521.45;14394.940;  -26.190;    0.000;14421.13043
 521.74;14606.880;  -27.770;    0.000;14634.64988
 522.02;14736.940;  -32.340;    0.000;14769.28043
 522.30;14966.960;  -30.190;    0.000;14997.14996
 522.59;15100.740;  -17.950;    0.000;15118.69024
 522.87;15298.900;  -35.830;    0.000;15334.73039
 523.15;15519.720;  -22.330;    0.000;15542.04973
 523.43;15609.000;  -36.850;    0.000;15645.85000
 523.72;15897.680;  -22.470;    0.000;15920.14969
 524.00;16061.780;  -26.840;    0.000;16088.62027
 524.28;16148.220;  -30.100;    0.000;16178.31973
 524.57;16308.900;  -28.250;    0.000;16337.15039
 524.85;16481.801;  -33.210;    0.000;16515.01078
 525.13;16684.561;  -28.900;    0.000;16713.46055
 525.41;16869.500;  -26.930;    0.000;16896.43000
 525.70;16985.240;  -39.770;    0.000;17025.01023
 525.98;17155.080;  -28.770;    0.000;17183.85008
 526.26;17259.100;  -28.530;    0.000;17287.62961
 526.54;17502.141;  -37.240;    0.000;17539.38063
 526.83;17618.461;  -31.260;    0.000;17649.72094
 527.11;17739.600;  -29.840;    0.000;17769.43961
 527.39;17955.561;  -27.920;    0.000;17983.48055
 527.67;18136.680;  -33.060;    0.000;18169.73969
 527.96;18219.520;  -33.590;    0.000;18253.10953
 528.24;18343.520;  -30.660;    0.000;18374.17953
 528.52;18527.619;  -24.870;    0.000;18552.48914
 528.80;18582.221;  -28.750;    0.000;18610.97070
 529.08;18773.400;  -34.880;    0.000;18808.28039
 529.37;18861.840;  -25.970;    0.000;18887.80984
 529.65;19055.340;  -21.850;    0.000;19077.18984
 529.93;19128.900;  -27.970;    0.000;19156.87039
 530.21;19353.859;  -33.080;    0.000;19386.93938
 530.50;19367.020;  -30.560;    0.000;19397.57953
 530.78;19612.100;  -27.290;    0.000;19639.38961
 531.06;19633.461;  -32.640;    0.000;19666.10094
 531.34;19851.820;  -31.410;    0.000;19883.23031
 531.62;19878.961;  -29.810;    0.000;19908.77094
 531.91;20056.119;  -33.270;    0.000;20089.38914
 532.19;20109.279;  -28.780;    0.000;20138.05930
 532.47;20228.561;  -30.330;    0.000;20258.89055
 532.75;20395.580;  -25.280;    0.000;20420.86008
 533.03;20445.420;  -26.860;    0.000;20472.27992
 533.32;20659.301;  -23.280;    0.000;20682.58078
 533.60;20683.820;  -34.090;    0.000;20717.91031
 533.88;20839.619;  -20.750;    0.000;20860.36914
 534.16;20941.721;  -30.960;    0.000;20972.68070
 534.44;21077.000;  -26.490;    0.000;21103.49000
 534.72;21078.660;  -32.560;    0.000;21111.22016
 535.01;21216.260;  -25.270;    0.000;21241.52977
 535.29;21325.600;  -23.350;    0.000;21348.94961
 535.57;21387.141;  -25.910;    0.000;21413.05062
 535.85;21575.721;  -23.170;    0.000;21598.89070
 536.13;21613.740;  -28.940;    0.000;21642.68023
 536.42;21676.020;  -27.660;    0.000;21703.67953
 536.70;21771.400;  -35.120;    0.000;21806.52039
 536.98;21939.881;  -22.910;    0.000;21962.79086
 537.26;21932.279;  -19.290;    0.000;21951.56930
 537.54;22126.480;  -26.340;    0.000;22152.82047
 537.82;22183.980;  -21.930;    0.000;22205.91047
 538.10;22270.100;  -27.700;    0.000;22297.79961
 538.39;22340.980;  -28.600;    0.000;22369.58047
 538.67;22436.641;  -27.310;    0.000;22463.95062
 538.95;22508.859;  -30.120;    0.000;22538.97938
 539.23;22579.260;  -22.970;    0.000;22602.22976
 539.51;22686.141;  -22.060;    0.000;22708.20062
 539.79;22726.240;  -26.640;    0.000;22752.88023
 540.07;22808.279;  -22.100;    0.000;22830.37930
 540.36;22872.980;  -30.750;    0.000;22903.73047
 540.64;22979.381;  -22.510;    0.000;23001.89086
 540.92;23097.359;  -30.820;    0.000;23128.17937
 541.20;23180.381;  -29.640;    0.000;23210.02086
 541.48;23214.039;  -12.470;    0.000;23226.50906
 541.76;23300.160;  -26.780;    0.000;23326.94016
 542.04;23328.619;  -23.270;    0.000;23351.88914
 542.32;23449.260;  -24.220;    0.000;23473.47976
 542.61;23530.359;  -33.520;    0.000;23563.87938
 542.89;23622.760;  -17.240;    0.000;23639.99977
 543.17;23652.340;  -25.240;    0.000;23677.57984
 543.45;23740.100;  -24.660;    0.000;23764.75961
 543.73;23864.520;  -28.070;    0.000;23892.58953
 544.01;23831.580;  -29.250;    0.000;23860.83008
 544.29;23917.020;  -19.640;    0.000;23936.65953
 544.57;23974.619;  -34.410;    0.000;24009.02914
 544.85;24009.740;  -23.490;    0.000;24033.23023
 545.13;24093.801;  -25.150;    0.000;24118.95078
 545.42;24137.881;  -24.120;    0.000;24162.00086
 545.70;24108.619;  -20.880;    0.000;24129.49914
 545.98;24172.420;  -22.690;    0.000;24195.10992
 546.26;24254.180;  -22.680;    0.000;24276.85969
 546.54;24285.721;  -26.680;    0.000;24312.40070
 546.82;24294.100;  -22.560;    0.000;24316.65961
 547.10;24354.439;  -25.490;    0.000;24379.92945
 547.38;24381.119;  -18.460;    0.000;24399.57914
 547.66;24484.180;  -24.450;    0.000;24508.62969
 547.94;24513.039;  -22.110;    0.000;24535.14906
 548.22;24540.680;  -28.020;    0.000;24568.69969
 548.50;24548.619;  -35.840;    0.000;24584.45914
 548.78;24651.881;  -28.210;    0.000;24680.09086
 549.06;24634.180;  -25.700;    0.000;24659.87969
 549.34;24675.641;  -30.930;    0.000;24706.57063
 549.63;24752.221;  -17.470;    0.000;24769.69070
 549.91;24803.840;  -26.020;    0.000;24829.85984
 550.19;24790.400;  -30.840;    0.000;24821.24039
 550.47;24723.840;  -33.570;    0.000;24757.40984
 550.75;24807.420;  -29.150;    0.000;24836.56992
 551.03;24801.641;  -31.230;    0.000;24832.87062
 551.31;24864.340;  -27.700;    0.000;24892.03984
 551.59;24929.779;  -27.320;    0.000;24957.09930
 551.87;24991.760;  -25.060;    0.000;25016.81977
 552.15;25022.061;  -29.650;    0.000;25051.71055
 552.43;25022.221;  -17.690;    0.000;25039.91070
 552.71;24995.461;  -26.730;    0.000;25022.19094
 552.99;25039.320;  -27.320;    0.000;25066.64031
 553.27;25011.900;  -33.900;    0.000;25045.80039
 553.55;25048.760;  -29.130;    0.000;25077.88976
 553.83;25094.840;  -34.100;    0.000;25128.93984
 554.11;25118.721;  -29.070;    0.000;25147.79070
 554.39;25221.320;  -17.350;    0.000;25238.67031
 554.67;25144.961;  -31.140;    0.000;25176.10094
 554.95;25178.801;  -15.790;    0.000;25194.59078
 555.23;25119.580;  -19.190;    0.000;25138.77008
 555.51;25103.260;  -23.860;    0.000;25127.11977
 555.79;25031.180;  -26.610;    0.000;25057.78969
 556.07;25078.740;  -33.750;    0.000;25112.49023
 556.35;24989.600;  -33.080;    0.000;25022.67961
 556.63;25063.461;  -23.190;    0.000;25086.65094
 556.91;25020.461;  -20.140;    0.000;25040.60094
 557.19;25116.760;  -33.420;    0.000;25150.17976
 557.47;25130.619;  -26.860;    0.000;25157.47914
 557.75;25086.199;  -27.600;    0.000;25113.79922
 558.03;25183.920;  -23.720;    0.000;25207.63992
 558.31;25138.119;  -32.820;    0.000;25170.93914
 558.59;25088.760;  -28.200;    0.000;25116.95977
 558.87;25058.580;  -31.300;    0.000;25089.88008
 559.15;25165.301;  -29.920;    0.000;25195.22078
 559.43;25182.600;  -31.700;    0.000;25214.29961
 559.71;25199.100;  -29.390;    0.000;25228.48961
 559.99;25103.760;  -29.950;    0.000;25133.70977
 560.27;25052.779;  -31.860;    0.000;25084.63930
 560.55;25182.160;  -27.330;    0.000;25209.49016
 560.82;25182.840;  -30.590;    0.000;25213.42984
 561.10;25096.600;  -35.810;    0.000;25132.40961
 561.38;25016.100;  -27.550;    0.000;25043.64961
 561.66;25013.100;  -27.770;    0.000;25040.86961
 561.94;25017.539;  -36.790;    0.000;25054.32906
 562.22;24959.160;  -29.270;    0.000;24988.43016
 562.50;25032.660;  -25.730;    0.000;25058.39016
 562.78;24899.721;  -28.210;    0.000;24927.93070
 563.06;24974.561;  -32.200;    0.000;25006.76055
 563.34;24904.881;  -32.310;    0.000;24937.19086
 563.62;24830.119;  -26.420;    0.000;24856.53914
 563.90;24708.980;  -33.310;    0.000;24742.29047
 564.18;24817.400;  -30.050;    0.000;24847.45039
 564.46;24770.141;  -33.070;    0.000;24803.21062
 564.74;24736.600;  -26.370;    0.000;24762.96961
 565.01;24737.340;  -34.630;    0.000;24771.96984
 565.29;24698.381;  -30.890;    0.000;24729.27086
 565.57;24574.801;  -27.770;    0.000;24602.57078
 565.85;24533.721;  -26.540;    0.000;24560.26070
 566.13;24548.381;  -35.020;    0.000;24583.40086
 566.41;24531.980;  -27.970;    0.000;24559.95047
 566.69;24434.859;  -26.850;    0.000;24461.70938
 566.97;24391.840;  -35.710;    0.000;24427.54984
 567.25;24392.340;  -26.920;    0.000;24419.25984
 567.53;24391.061;  -31.550;    0.000;24422.61055
 567.80;24317.061;  -29.830;    0.000;24346.89055
 568.08;24203.820;  -23.950;    0.000;24227.77031
 568.36;24163.539;  -39.610;    0.000;24203.14906
 568.64;24079.160;  -31.690;    0.000;24110.85016
 568.92;24109.020;  -24.250;    0.000;24133.26953
 569.20;24051.840;  -32.220;    0.000;24084.05984
 569.48;24024.859;  -33.550;    0.000;24058.40937
 569.76;23923.279;  -41.820;    0.000;23965.09930
 570.03;23856.020;  -26.520;    0.000;23882.53953
 570.31;23845.480;  -33.390;    0.000;23878.87047
 570.59;23736.699;  -29.380;    0.000;23766.07922
 570.87;23720.100;  -30.810;    0.000;23750.90961
 571.15;23665.900;  -35.650;    0.000;23701.55039
 571.43;23573.801;  -28.530;    0.000;23602.33078
 571.71;23603.240;  -40.130;    0.000;23643.37024
 571.98;23430.061;  -30.700;    0.000;23460.76055
 572.26;23431.680;  -33.520;    0.000;23465.19969
 572.54;23474.660;  -36.750;    0.000;23511.41016
 572.82;23246.660;  -35.020;    0.000;23281.68016
 573.10;23290.539;  -32.420;    0.000;23322.95906
 573.38;23212.240;  -33.880;    0.000;23246.12024
 573.66;23174.680;  -34.190;    0.000;23208.86969
 573.93;23118.580;  -33.870;    0.000;23152.45008
 574.21;22934.801;  -31.820;    0.000;22966.62078
 574.49;22874.760;  -31.910;    0.000;22906.66977
 574.77;22897.779;  -29.890;    0.000;22927.66930
 575.05;22813.279;  -22.870;    0.000;22836.14930
 575.33;22666.900;  -31.620;    0.000;22698.52039
 575.60;22650.420;  -29.990;    0.000;22680.40992
 575.88;22471.779;  -30.640;    0.000;22502.41930
 576.16;22450.100;  -31.370;    0.000;22481.46961
 576.44;22399.900;  -30.170;    0.000;22430.07039
 576.72;22349.500;  -30.330;    0.000;22379.83000
 576.99;22259.600;  -35.380;    0.000;22294.97961
 577.27;22246.420;  -32.010;    0.000;22278.42992
 577.55;22145.580;  -20.740;    0.000;22166.32008
 577.83;22067.301;  -38.350;    0.000;22105.65078
 578.11;21980.961;  -30.600;    0.000;22011.56094
 578.38;21884.961;  -33.300;    0.000;21918.26094
 578.66;21784.660;  -33.190;    0.000;21817.85015
 578.94;21701.439;  -34.250;    0.000;21735.68945
 579.22;21655.539;  -36.890;    0.000;21692.42906
 579.50;21536.699;  -16.500;    0.000;21553.19922
 579.77;21487.061;  -27.820;    0.000;21514.88055
 580.05;21462.760;  -33.860;    0.000;21496.61977
 580.33;21309.240;  -36.230;    0.000;21345.47023
 580.61;21222.160;  -31.810;    0.000;21253.97016
 580.88;21112.680;  -31.550;    0.000;21144.22969
 581.16;20983.961;  -30.380;    0.000;21014.34094
 581.44;21024.580;  -26.740;    0.000;21051.32008
 581.72;20948.240;  -36.870;    0.000;20985.11023
 581.99;20791.340;  -28.000;    0.000;20819.33984
 582.27;20699.359;  -32.620;    0.000;20731.97937
 582.55;20623.961;  -39.650;    0.000;20663.61094
 582.83;20498.840;  -31.420;    0.000;20530.25984
 583.10;20420.900;  -34.040;    0.000;20454.94039
 583.38;20286.641;  -33.790;    0.000;20320.43063
 583.66;20202.119;  -23.360;    0.000;20225.47914
 583.94;20005.539;  -37.120;    0.000;20042.65906
 584.21;19968.859;  -36.200;    0.000;20005.05938
 584.49;19874.539;  -31.210;    0.000;19905.74906
 584.77;19873.039;  -41.490;    0.000;19914.52906
 585.05;19796.240;  -41.880;    0.000;19838.12024
 585.32;19660.141;  -40.900;    0.000;19701.04063
 585.60;19593.359;  -35.320;    0.000;19628.67937
 585.88;19410.061;  -36.100;    0.000;19446.16055
 586.16;19352.699;  -33.460;    0.000;19386.15922
 586.43;19273.740;  -23.040;    0.000;19296.78024
 586.71;19110.061;  -33.020;    0.000;19143.08055
 586.99;19027.641;  -38.700;    0.000;19066.34063
 587.26;18939.881;  -39.100;    0.000;18978.98086
 587.54;18843.500;  -29.820;    0.000;18873.32000
 587.82;18704.080;  -31.730;    0.000;18735.81008
 588.10;18665.580;  -35.850;    0.000;18701.43008
 588.37;18500.461;  -41.630;    0.000;18542.09094
 588.65;18432.881;  -32.470;    0.000;18465.35086
 588.93;18285.740;  -32.150;    0.000;18317.89024
 589.20;18241.500;  -34.030;    0.000;18275.53000
 589.48;18084.520;  -34.930;    0.000;18119.44953
 589.76;17994.600;  -15.830;    0.000;18010.42961
 590.03;17893.000;  -40.290;    0.000;17933.29000
 590.31;17818.100;  -33.480;    0.000;17851.57961
 590.59;17740.461;  -33.000;    0.000;17773.46094
 590.86;17552.619;  -31.500;    0.000;17584.11914
 591.14;17456.100;  -37.450;    0.000;17493.54961
 591.42;17385.760;  -37.920;    0.000;17423.67976
 591.70;17316.039;  -32.300;    0.000;17348.33906
 591.97;17202.180;  -26.470;    0.000;17228.64969
 592.25;17022.721;  -31.490;    0.000;17054.21070
 592.53;16943.660;  -39.370;    0.000;16983.03016
 592.80;16851.480;  -30.970;    0.000;16882.45047
 593.08;16750.779;  -28.190;    0.000;16778.96930
 593.36;16670.980;  -33.690;    0.000;16704.67047
 593.63;16565.039;  -28.510;    0.000;16593.54906
 593.91;16323.600;  -39.300;    0.000;16362.89961
 594.18;16268.220;  -30.740;    0.000;16298.95973
 594.46;16204.200;  -37.200;    0.000;16241.40020
 594.74;16066.440;  -35.270;    0.000;16101.71043
 595.01;15991.360;  -39.910;    0.000;16031.27035
 595.29;15872.000;  -37.830;    0.000;15909.83000
 595.57;15798.520;  -30.310;    0.000;15828.82953
 595.84;15764.460;  -34.070;    0.000;15798.52996
 596.12;15549.140;  -35.950;    0.000;15585.08965
 596.40;15413.620;  -47.400;    0.000;15461.02012
 596.67;15352.580;  -33.240;    0.000;15385.82008
 596.95;15316.860;  -31.840;    0.000;15348.70035
 597.22;15138.360;  -42.200;    0.000;15180.56035
 597.50;15046.660;  -33.310;    0.000;15079.97016
 597.78;14985.660;  -35.870;    0.000;15021.53016
 598.05;14811.160;  -42.370;    0.000;14853.53016
 598.33;14775.960;  -31.360;    0.000;14807.31996
 598.61;14610.540;  -34.100;    0.000;14644.64004
 598.88;14570.580;  -43.010;    0.000;14613.59008
 599.16;14497.460;  -38.270;    0.000;14535.72996
 599.43;14287.400;  -44.250;    0.000;14331.65039
 599.71;14294.960;  -31.350;    0.000;14326.30996
 599.99;14147.860;  -40.440;    0.000;14188.30035
 600.26;14016.760;  -34.480;    0.000;14051.23977
 600.54;13964.560;  -35.880;    0.000;14000.43957
 600.81;13860.320;  -30.800;    0.000;13891.12031
 601.09;13670.020;  -38.420;    0.000;13708.43953
 601.36;13582.400;  -43.640;    0.000;13626.04039
 601.64;13531.440;  -36.270;    0.000;13567.71043
 601.92;13373.140;  -40.290;    0.000;13413.42965
 602.19;13318.460;  -43.490;    0.000;13361.94996
 602.47;13181.260;  -41.720;    0.000;13222.97977
 602.74;13137.360;  -33.580;    0.000;13170.94035
 603.02;13031.400;  -30.880;    0.000;13062.28039
 603.29;12972.620;  -30.150;    0.000;13002.77012
 603.57;12809.560;  -38.680;    0.000;12848.23957
 603.85;12736.760;  -36.240;    0.000;12772.99977
 604.12;12723.080;  -25.740;    0.000;12748.82008
 604.40;12562.220;  -37.040;    0.000;12599.25973
 604.67;12466.560;  -31.720;    0.000;12498.27957
 604.95;12427.260;  -36.850;    0.000;12464.10976
 605.22;12296.620;  -36.400;    0.000;12333.02012
 605.50;12275.820;  -42.480;    0.000;12318.30031
 605.77;12080.860;  -37.250;    0.000;12118.11035
 606.05;12104.280;  -39.640;    0.000;12143.92027
 606.33;11995.080;  -35.100;    0.000;12030.18008
 606.60;11890.520;  -44.280;    0.000;11934.79953
 606.88;11815.220;  -33.550;    0.000;11848.76973
 607.15;11772.940;  -35.810;    0.000;11808.75043
 607.43;11602.720;  -38.570;    0.000;11641.28973
 607.70;11638.400;  -33.540;    0.000;11671.94039
 607.98;11451.960;  -38.040;    0.000;11489.99996
 608.25;11430.820;  -39.360;    0.000;11470.18031
 608.53;11386.100;  -46.700;    0.000;11432.79961
 608.80;11272.020;  -39.200;    0.000;11311.21953
 609.08;11222.020;  -41.820;    0.000;11263.83953
 609.35;11146.640;  -35.520;    0.000;11182.15965
 609.63;11066.200;  -44.390;    0.000;11110.59019
 609.90;11017.200;  -36.930;    0.000;11054.13020
 610.18;10909.300;  -28.100;    0.000;10937.39981
 610.45;10805.180;  -47.230;    0.000;10852.40969
 610.73;10763.280;  -40.590;    0.000;10803.87027
 611.00;10757.420;  -28.940;    0.000;10786.35992
 611.28;10642.760;  -41.770;    0.000;10684.52977
 611.55;10596.700;  -47.150;    0.000;10643.85020
 611.83;10518.680;  -42.410;    0.000;10561.08969
 612.10;10434.540;  -47.870;    0.000;10482.41004
 612.38;10377.780;  -43.330;    0.000;10421.11028
 612.65;10370.700;  -38.760;    0.000;10409.46019
 612.93;10252.340;  -46.440;    0.000;10298.77984
 613.20;10215.260;  -40.520;    0.000;10255.77977
 613.48;10130.000;  -42.680;    0.000;10172.68000
 613.75;10084.140;  -49.140;    0.000;10133.27965
 614.03;10041.420;  -35.760;    0.000;10077.17992
 614.30; 9972.900;  -49.280;    0.000;10022.18039
 614.57; 9938.940;  -47.070;    0.000;9986.01043
 614.85; 9884.140;  -40.710;    0.000;9924.84965
 615.12; 9853.000;  -40.130;    0.000;9893.13000
 615.40; 9742.020;  -45.350;    0.000;9787.36953
 615.67; 9673.300;  -41.120;    0.000;9714.41980
 615.95; 9644.180;  -42.780;    0.000;9686.95969
 616.22; 9530.220;  -39.310;    0.000;9569.52973
 616.50; 9460.740;  -36.190;    0.000;9496.93023
 616.77; 9473.960;  -39.210;    0.000;9513.16996
 617.05; 9405.040;  -40.130;    0.000;9445.17004
 617.32; 9255.620;  -41.510;    0.000;9297.13012
 617.59; 9215.300;  -39.270;    0.000;9254.56981
 617.87; 9116.180;  -46.440;    0.000;9162.61969
 618.14; 8977.260;  -39.430;    0.000;9016.68977
 618.42; 8909.600;  -48.270;    0.000;8957.86961
 618.69; 8825.620;  -42.280;    0.000;8867.90012
 618.97; 8680.280;  -50.160;    0.000;8730.44027
 619.24; 8606.320;  -46.580;    0.000;8652.90031
 619.51; 8507.740;  -37.650;    0.000;8545.39024
 619.79; 8345.600;  -40.650;    0.000;8386.24961
 620.06; 8238.800;  -36.470;    0.000;8275.26981
 620.34; 8082.100;  -42.190;    0.000;8124.29010
 620.61; 7959.240;  -36.840;    0.000;7996.08023
 620.88; 7878.720;  -52.820;    0.000;7931.54021
 621.16; 7982.340;  -38.520;    0.000;8020.85984
 621.43; 8107.480;  -40.070;    0.000;8147.54998
 621.71; 8090.720;  -40.440;    0.000;8131.16021
 621.98; 7972.420;  -42.920;    0.000;8015.33992
 622.25; 7923.800;  -42.110;    0.000;7965.90981
 622.53; 7896.000;  -43.900;    0.000;7939.90000
 622.80; 7826.980;  -48.280;    0.000;7875.25998
 623.08; 7764.300;  -48.410;    0.000;7812.70980
 623.35; 7738.680;  -42.130;    0.000;7780.81018
 623.62; 7672.740;  -41.870;    0.000;7714.61023
 623.90; 7621.460;  -44.400;    0.000;7665.85996
 624.17; 7615.440;  -45.690;    0.000;7661.12994
 624.44; 7511.820;  -37.610;    0.000;7549.42982
 624.72; 7456.560;  -46.110;    0.000;7502.67006
 624.99; 7443.820;  -46.780;    0.000;7490.59982
 625.26; 7434.040;  -48.840;    0.000;7482.88004
 625.54; 7550.760;  -34.500;    0.000;7585.25977
 625.81; 7484.000;  -39.400;    0.000;7523.40000
 626.09; 7511.440;  -42.260;    0.000;7553.69994
 626.36; 7492.440;  -45.970;    0.000;7538.40994
 626.63; 7467.280;  -41.260;    0.000;7508.53978
 626.91; 7472.960;  -45.500;    0.000;7518.45996
 627.18; 7412.400;  -36.360;    0.000;7448.75990
 627.45; 7400.680;  -44.240;    0.000;7444.92018
 627.73; 7355.040;  -37.730;    0.000;7392.77004
 628.00; 7359.520;  -50.130;    0.000;7409.65002
 628.27; 7355.280;  -40.330;    0.000;7395.60979
 628.55; 7313.560;  -44.630;    0.000;7358.19006
 628.82; 7274.080;  -48.870;    0.000;7322.95008
 629.09; 7252.980;  -49.850;    0.000;7302.82998
 629.37; 7229.280;  -48.480;    0.000;7277.75978
 629.64; 7174.160;  -48.280;    0.000;7222.44016
 629.91; 7193.360;  -45.620;    0.000;7238.97986
 630.18; 7171.440;  -51.830;    0.000;7223.26994
 630.46; 7144.880;  -36.850;    0.000;7181.72988
 630.73; 7124.740;  -39.860;    0.000;7164.60023
 631.00; 7089.140;  -47.900;    0.000;7137.04014
 631.28; 7072.180;  -49.040;    0.000;7121.22018
 631.55; 7046.680;  -43.760;    0.000;7090.44017
 631.82; 7009.460;  -44.290;    0.000;7053.74996
 632.10; 6976.280;  -39.890;    0.000;7016.16978
 632.37; 6955.600;  -43.540;    0.000;6999.14010
 632.64; 6944.440;  -40.290;    0.000;6984.72994
 632.91; 6873.280;  -40.250;    0.000;6913.52979
 633.19; 6870.920;  -41.720;    0.000;6912.63992
 633.46; 6852.520;  -51.730;    0.000;6904.25002
 633.73; 6830.840;  -38.000;    0.000;6868.83984
 634.01; 6839.480;  -45.300;    0.000;6884.77998
 634.28; 6773.200;  -41.280;    0.000;6814.48019
 634.55; 6785.120;  -41.150;    0.000;6826.27012
 634.82; 6775.200;  -47.530;    0.000;6822.73019
 635.10; 6756.140;  -39.270;    0.000;6795.41014
 635.37; 6726.440;  -47.120;    0.000;6773.55994
 635.64; 6668.280;  -54.360;    0.000;6722.63979
 635.91; 6665.020;  -48.020;    0.000;6713.04002
 636.19; 6689.040;  -44.600;    0.000;6733.64004
 636.46; 6688.640;  -48.800;    0.000;6737.44014
 636.73; 6722.220;  -39.570;    0.000;6761.79021
 637.00; 6706.620;  -42.160;    0.000;6748.78012
 637.28; 6703.860;  -50.320;    0.000;6754.17986
 637.55; 6679.540;  -43.570;    0.000;6723.11004
 637.82; 6588.440;  -46.760;    0.000;6635.19994
 638.09; 6487.020;  -39.060;    0.000;6526.08002
 638.37; 6427.400;  -46.470;    0.000;6473.86990
 638.64; 6377.020;  -47.310;    0.000;6424.33002
 638.91; 6388.000;  -41.310;    0.000;6429.31000
 639.18; 6328.320;  -43.470;    0.000;6371.78983
 639.46; 6287.200;  -48.390;    0.000;6335.59019
 639.73; 6240.560;  -39.780;    0.000;6280.34006
 640.00; 6180.480;  -45.530;    0.000;6226.00998
 640.27; 6138.040;  -46.560;    0.000;6184.60004
 640.54; 6117.160;  -51.660;    0.000;6168.82016
 640.82; 6062.840;  -48.560;    0.000;6111.39985
 641.09; 6069.780;  -48.760;    0.000;6118.53978
 641.36; 6034.360;  -46.200;    0.000;6080.55986
 641.63; 5984.000;  -55.600;    0.000;6039.60000
 641.91; 5907.040;  -46.400;    0.000;5953.44004
 642.18; 5812.360;  -52.210;    0.000;5864.56986
 642.45; 5723.560;  -52.490;    0.000;5776.05006
 642.72; 5666.360;  -53.360;    0.000;5719.71986
 642.99; 5722.500;  -36.570;    0.000;5759.07000
 643.26; 5604.940;  -47.650;    0.000;5652.58994
 643.54; 5561.360;  -40.710;    0.000;5602.06986
 643.81; 5484.420;  -55.630;    0.000;5540.04992
 644.08; 5482.080;  -47.930;    0.000;5530.01008
 644.35; 5419.180;  -48.850;    0.000;5468.03017
 644.62; 5385.500;  -49.000;    0.000;5434.50000
 644.90; 5387.220;  -43.820;    0.000;5431.04021
 645.17; 5331.160;  -51.370;    0.000;5382.53016
 645.44; 5286.060;  -47.130;    0.000;5333.19006
 645.71; 5252.040;  -49.200;    0.000;5301.24004
 645.98; 5202.480;  -46.690;    0.000;5249.16998
 646.25; 5206.640;  -46.940;    0.000;5253.58014
 646.53; 5110.840;  -50.370;    0.000;5161.20984
 646.80; 5156.440;  -42.780;    0.000;5199.21994
 647.07; 5104.660;  -59.170;    0.000;5163.83015
 647.34; 5059.920;  -47.590;    0.000;5107.50992
 647.61; 5030.920;  -45.690;    0.000;5076.60992
 647.88; 5041.140;  -38.410;    0.000;5079.55014
 648.15; 4935.880;  -51.900;    0.000;4987.77988
 648.43; 4936.160;  -52.460;    0.000;4988.62016
 648.70; 4903.400;  -50.870;    0.000;4954.26990
 648.97; 4834.660;  -44.090;    0.000;4878.75016
 649.24; 4862.940;  -46.570;    0.000;4909.50994
 649.51; 4781.240;  -56.440;    0.000;4837.68023
 649.78; 4728.880;  -48.510;    0.000;4777.38988
 650.05; 4757.820;  -44.310;    0.000;4802.12983
 650.32; 4776.300;  -21.090;    0.000;4797.38980
 650.60; 4692.840;  -47.320;    0.000;4740.15984
 650.87; 4632.620;  -50.640;    0.000;4683.26012
 651.14; 4654.820;  -54.410;    0.000;4709.22982
 651.41; 4578.240;  -54.500;    0.000;4632.74023
 651.68; 4601.140;  -50.510;    0.000;4651.65014
 651.95; 4550.440;  -48.670;    0.000;4599.10994
 652.22; 4496.220;  -53.000;    0.000;4549.22021
 652.49; 4444.400;  -58.480;    0.000;4502.87990
 652.76; 4451.440;  -53.540;    0.000;4504.97994
 653.03; 4414.780;  -48.460;    0.000;4463.23978
 653.31; 4420.280;  -50.850;    0.000;4471.12978
 653.58; 4376.360;  -50.660;    0.000;4427.01986
 653.85; 4368.880;  -53.770;    0.000;4422.64988
 654.12; 4317.000;  -52.700;    0.000;4369.70000
 654.39; 4327.200;  -49.080;    0.000;4376.28020
 654.66; 4269.220;  -44.350;    0.000;4313.57021
 654.93; 4235.380;  -40.020;    0.000;4275.39988
 655.20; 4213.180;  -51.700;    0.000;4264.88018
 655.47; 4171.400;  -52.020;    0.000;4223.41990
 655.74; 4141.380;  -46.170;    0.000;4187.54988
 656.01; 4106.040;  -53.270;    0.000;4159.31004
 656.28; 4100.260;  -53.920;    0.000;4154.17976
 656.55; 4087.200;  -44.780;    0.000;4131.97995
 656.83; 4062.840;  -54.700;    0.000;4117.54009
 657.10; 4011.800;  -54.950;    0.000;4066.75005
 657.37; 3978.600;  -45.470;    0.000;4024.07010
 657.64; 4006.680;  -50.040;    0.000;4056.71993
 657.91; 3940.260;  -54.530;    0.000;3994.79001
 658.18; 3929.060;  -48.090;    0.000;3977.15006
 658.45; 3894.660;  -53.800;    0.000;3948.45991
 658.72; 3860.240;  -49.560;    0.000;3909.79999
 658.99; 3877.520;  -52.810;    0.000;3930.33002
 659.26; 3860.560;  -44.460;    0.000;3905.02006
 659.53; 3785.160;  -53.390;    0.000;3838.54991
 659.80; 3763.860;  -50.980;    0.000;3814.84011
 660.07; 3754.920;  -41.400;    0.000;3796.31992
 660.34; 3718.200;  -52.590;    0.000;3770.78995
 660.61; 3711.220;  -54.010;    0.000;3765.22997
 660.88; 3712.860;  -49.010;    0.000;3761.87011
 661.15; 3643.580;  -45.510;    0.000;3689.09008
 661.42; 3641.740;  -52.000;    0.000;3693.73999
 661.69; 3581.800;  -51.660;    0.000;3633.46005
 661.96; 3586.860;  -53.540;    0.000;3640.40011
 662.23; 3523.460;  -54.210;    0.000;3577.66996
 662.50; 3553.460;  -55.200;    0.000;3608.65996
 662.77; 3489.360;  -57.340;    0.000;3546.70011
 663.04; 3504.140;  -55.460;    0.000;3559.59989
 663.31; 3474.600;  -53.020;    0.000;3527.62010
 663.58; 3443.440;  -53.790;    0.000;3497.22994
 663.85; 3431.380;  -48.190;    0.000;3479.56988
 664.12; 3401.100;  -49.170;    0.000;3450.27010
 664.39; 3365.740;  -57.490;    0.000;3423.22999
 664.66; 3345.980;  -56.420;    0.000;3402.39998
 664.93; 3309.780;  -57.810;    0.000;3367.59003
 665.20; 3296.020;  -45.510;    0.000;3341.53002
 665.47; 3287.440;  -47.500;    0.000;3334.93994
 665.74; 3257.260;  -56.240;    0.000;3313.50001
 666.01; 3240.720;  -52.970;    0.000;3293.68997
 666.28; 3188.720;  -53.610;    0.000;3242.32997
 666.55; 3202.160;  -48.340;    0.000;3250.49991
 666.82; 3186.620;  -58.560;    0.000;3245.18012
 667.09; 3147.300;  -54.770;    0.000;3202.07005
 667.36; 3119.760;  -51.960;    0.000;3171.72001
 667.63; 3101.980;  -48.120;    0.000;3150.09998
 667.90; 3087.600;  -50.500;    0.000;3138.10010
 668.16; 3030.600;  -51.760;    0.000;3082.36010
 668.43; 3028.740;  -52.290;    0.000;3081.02999
 668.70; 3021.660;  -50.190;    0.000;3071.84991
 668.97; 2984.840;  -54.900;    0.000;3039.74009
 669.24; 2985.980;  -50.670;    0.000;3036.64998
 669.51; 2953.720;  -47.280;    0.000;3000.99997
 669.78; 2923.880;  -57.020;    0.000;2980.89988
 670.05; 2916.940;  -53.780;    0.000;2970.71994
 670.32; 2880.940;  -47.630;    0.000;2928.56994
 670.59; 2856.880;  -59.380;    0.000;2916.25988
 670.86; 2858.480;  -54.490;    0.000;2912.96998
 671.13; 2849.000;  -53.370;    0.000;2902.37000
 671.40; 2811.380;  -52.030;    0.000;2863.40988
 671.67; 2821.840;  -50.040;    0.000;2871.88009
 671.93; 2765.380;  -55.350;    0.000;2820.72988
 672.20; 2739.000;  -58.000;    0.000;2797.00000
 672.47; 2754.940;  -49.890;    0.000;2804.82994
 672.74; 2685.220;  -48.940;    0.000;2734.15997
 673.01; 2676.340;  -62.990;    0.000;2739.33009
 673.28; 2687.480;  -53.910;    0.000;2741.38998
 673.55; 2633.600;  -54.610;    0.000;2688.21010
 673.82; 2658.340;  -51.100;    0.000;2709.44009
 674.09; 2611.800;  -52.250;    0.000;2664.05005
 674.35; 2585.960;  -58.740;    0.000;2644.69996
 674.62; 2599.580;  -44.900;    0.000;2644.48008
 674.89; 2552.080;  -53.110;    0.000;2605.19008
 675.16; 2518.200;  -47.910;    0.000;2566.10995
 675.43; 2483.860;  -52.020;    0.000;2535.88011
 675.70; 2536.560;  -36.370;    0.000;2572.93006
 675.97; 2478.080;  -55.340;    0.000;2533.42008
 676.24; 2472.580;  -47.960;    0.000;2520.54008
 676.50; 2460.880;  -59.330;    0.000;2520.20988
 676.77; 2405.500;  -60.020;    0.000;2465.52000
 677.04; 2418.300;  -47.110;    0.000;2465.41005
 677.31; 2382.660;  -55.920;    0.000;2438.57991
 677.58; 2379.040;  -52.120;    0.000;2431.16004
 677.85; 2337.740;  -48.990;    0.000;2386.72999
 678.12; 2336.820;  -52.160;    0.000;2388.98007
 678.38; 2299.900;  -54.140;    0.000;2354.03990
 678.65; 2288.680;  -60.680;    0.000;2349.35993
 678.92; 2261.260;  -53.340;    0.000;2314.60001
 679.19; 2274.820;  -39.870;    0.000;2314.69007
 679.46; 2253.620;  -46.760;    0.000;2300.38012
 679.73; 2241.240;  -59.180;    0.000;2300.41999
 679.99; 2213.960;  -56.270;    0.000;2270.22996
 680.26; 2207.480;  -54.520;    0.000;2261.99998
 680.53; 2160.400;  -59.650;    0.000;2220.04990
 680.80; 2195.120;  -56.750;    0.000;2251.87012
 681.07; 2119.240;  -55.340;    0.000;2174.57999
 681.33; 2123.840;  -54.670;    0.000;2178.51009
 681.60; 2144.800;  -52.230;    0.000;2197.03005
 681.87; 2121.480;  -54.620;    0.000;2176.09998
 682.14; 2091.120;  -52.270;    0.000;2143.39012
 682.41; 2070.800;  -57.990;    0.000;2128.79005
 682.67; 2085.140;  -50.450;    0.000;2135.58989
 682.94; 2032.440;  -59.360;    0.000;2091.79994
 683.21; 2027.220;  -53.700;    0.000;2080.91997
 683.48; 2001.260;  -55.450;    0.000;2056.71001
 683.75; 1988.320;  -47.950;    0.000;2036.26995
 684.01; 1986.800;  -46.370;    0.000;2033.17005
 684.28; 1949.340;  -57.410;    0.000;2006.74997
 684.55; 1959.860;  -54.400;    0.000;2014.25999
 684.82; 1930.960;  -62.610;    0.000;1993.56996
 685.09; 1938.200;  -45.320;    0.000;1983.51995
 685.35; 1909.300;  -50.950;    0.000;1960.25005
 685.62; 1906.700;  -53.810;    0.000;1960.50995
 685.89; 1874.300;  -50.790;    0.000;1925.09005
 686.16; 1866.140;  -60.890;    0.000;1927.03001
 686.42; 1884.120;  -53.860;    0.000;1937.98000
 686.69; 1838.400;  -49.770;    0.000;1888.17002
 686.96; 1802.800;  -58.350;    0.000;1861.15005
 687.23; 1834.680;  -53.370;    0.000;1888.05005
 687.49; 1808.640;  -46.350;    0.000;1854.99001
 687.76; 1763.080;  -56.190;    0.000;1819.26995
 688.03; 1741.680;  -57.270;    0.000;1798.95005
 688.30; 1725.800;  -63.910;    0.000;1789.71005
 688.56; 1738.820;  -49.760;    0.000;1788.57994
 688.83; 1717.680;  -58.260;    0.000;1775.94005
 689.10; 1702.820;  -59.880;    0.000;1762.69995
 689.37; 1655.760;  -60.250;    0.000;1716.01001
 689.63; 1678.360;  -58.120;    0.000;1736.47998
 689.90; 1687.300;  -42.960;    0.000;1730.26005
 690.17; 1673.920;  -57.170;    0.000;1731.09004
 690.44; 1635.820;  -53.100;    0.000;1688.91994
 690.70; 1639.320;  -64.370;    0.000;1703.68995
 690.97; 1610.500;  -52.060;    0.000;1662.56000
 691.24; 1603.160;  -45.640;    0.000;1648.80003
 691.50; 1600.940;  -63.810;    0.000;1664.74994
 691.77; 1549.180;  -61.380;    0.000;1610.56005
 692.04; 1567.160;  -50.390;    0.000;1617.55003
 692.30; 1542.660;  -61.100;    0.000;1603.76003
 692.57; 1526.780;  -55.730;    0.000;1582.51003
 692.84; 1505.820;  -60.990;    0.000;1566.80995
 693.11; 1509.520;  -51.860;    0.000;1561.38002
 693.37; 1502.240;  -50.850;    0.000;1553.08999
 693.64; 1472.280;  -63.550;    0.000;1535.83003
 693.91; 1452.720;  -52.450;    0.000;1505.16997
 694.17; 1453.480;  -52.150;    0.000;1505.62998
 694.44; 1437.380;  -55.600;    0.000;1492.98000
 694.71; 1416.920;  -66.220;    0.000;1483.14005
 694.97; 1417.060;  -60.180;    0.000;1477.24006
 695.24; 1366.980;  -60.420;    0.000;1427.39998
 695.51; 1380.360;  -64.250;    0.000;1444.60999
 695.77; 1378.880;  -53.070;    0.000;1431.95000
 696.04; 1358.920;  -57.450;    0.000;1416.37004
 696.31; 1345.820;  -55.850;    0.000;1401.66994
 696.57; 1334.420;  -48.360;    0.000;1382.78004
 696.84; 1315.820;  -56.540;    0.000;1372.35995
 697.11; 1314.100;  -49.450;    0.000;1363.54998
 697.37; 1310.580;  -52.390;    0.000;1362.96996
 697.64; 1268.680;  -50.550;    0.000;1319.23005
 697.91; 1243.000;  -63.040;    0.000;1306.04000
 698.17; 1240.280;  -58.460;    0.000;1298.74003
 698.44; 1213.640;  -54.420;    0.000;1268.06001
 698.71; 1213.900;  -60.630;    0.000;1274.53003
 698.97; 1188.460;  -56.130;    0.000;1244.58996
 699.24; 1203.820;  -57.190;    0.000;1261.00994
 699.50; 1169.540;  -63.610;    0.000;1233.15004
 699.77; 1154.000;  -63.480;    0.000;1217.48000
 700.04; 1148.760;  -56.390;    0.000;1205.15001
 700.30; 1132.620;  -57.580;    0.000;1190.20000
 700.57; 1132.760;  -57.160;    0.000;1189.92001
 700.84; 1119.820;  -52.700;    0.000;1172.51995
 701.10; 1074.200;  -55.650;    0.000;1129.84995
 701.37; 1080.360;  -57.060;    0.000;1137.41999
 701.63; 1055.020;  -60.840;    0.000;1115.86002
 701.90; 1044.500;  -55.460;    0.000;1099.96000
 702.17; 1056.220;  -46.530;    0.000;1102.74997
 702.43; 1023.540;  -56.900;    0.000;1080.43998
 702.70; 1028.580;  -43.080;    0.000;1071.65996
 702.96;  986.040;  -57.550;    0.000;1043.58998
 703.23;  969.040;  -63.900;    0.000;1032.93998
 703.50;  965.420;  -57.740;    0.000;1023.15998
 703.76;  929.700;  -60.140;    0.000;989.84001
 704.03;  934.420;  -62.000;    0.000;996.41998
 704.29;  920.040;  -56.620;    0.000;976.65998
 704.56;  898.180;  -66.340;    0.000;964.51999
 704.82;  894.500;  -61.140;    0.000;955.64000
 705.09;  887.060;  -50.240;    0.000;937.30000
 705.36;  857.600;  -63.730;    0.000;921.32998
 705.62;  883.180;  -45.100;    0.000;928.27999
 705.89;  829.340;  -57.710;    0.000;887.05003
 706.15;  814.760;  -52.660;    0.000;867.42001
 706.42;  814.560;  -49.750;    0.000;864.31000
 706.68;  798.740;  -59.540;    0.000;858.27999
 706.95;  784.660;  -55.380;    0.000;840.03997
 707.21;  759.520;  -63.590;    0.000;823.11002
 707.48;  765.840;  -61.770;    0.000;827.61003
 707.75;  746.980;  -54.600;    0.000;801.57998
 708.01;  742.740;  -64.580;    0.000;807.31999
 708.28;  746.440;  -55.470;    0.000;801.91000
 708.54;  717.480;  -64.490;    0.000;781.96998
 708.81;  715.780;  -52.630;    0.000;768.41003
 709.07;  693.620;  -58.430;    0.000;752.05000
 709.34;  692.680;  -63.150;    0.000;755.82999
 709.60;  655.260;  -59.760;    0.000;715.02001
 709.87;  689.380;  -51.730;    0.000;741.11000
 710.13;  645.380;  -58.250;    0.000;703.63000
 710.40;  643.200;  -67.870;    0.000;711.07001
 710.66;  619.360;  -58.170;    0.000;677.52998
 710.93;  642.300;  -58.390;    0.000;700.68999
 711.19;  607.180;  -60.660;    0.000;667.83999
 711.46;  615.000;  -53.110;    0.000;668.11000
 711.72;  606.520;  -53.100;    0.000;659.62002
 711.99;  589.520;  -64.700;    0.000;654.22002
 712.25;  587.060;  -54.480;    0.000;641.54000
 712.52;  588.680;  -51.400;    0.000;640.07999
 712.78;  581.500;  -54.830;    0.000;636.33000
 713.05;  565.960;  -61.310;    0.000;627.27002
 713.31;  562.060;  -54.880;    0.000;616.94000
 713.58;  540.880;  -56.790;    0.000;597.67001
 713.84;  538.700;  -53.100;    0.000;591.80001
 714.11;  531.200;  -62.430;    0.000;593.63001
 714.37;  543.260;  -52.180;    0.000;595.44001
 714.64;  519.280;  -54.400;    0.000;573.68003
 714.90;  520.940;  -53.310;    0.000;574.25000
 715.17;  508.520;  -57.550;    0.000;566.06999
 715.43;  506.120;  -50.260;    0.000;556.37999
 715.70;  507.040;  -55.710;    0.000;562.75001
 715.96;  490.780;  -54.690;    0.000;545.47000
 716.22;  491.140;  -61.380;    0.000;552.52002
 716.49;  473.300;  -58.790;    0.000;532.08999
 716.75;  481.520;  -62.550;    0.000;544.06999
 717.02;  486.260;  -58.140;    0.000;544.40001
 717.28;  474.440;  -63.690;    0.000;538.13000
 717.55;  464.260;  -62.720;    0.000;526.98001
 717.81;  469.300;  -56.110;    0.000;525.40999
 718.08;  472.940;  -58.860;    0.000;531.80000
 718.34;  460.200;  -65.190;    0.000;525.39001
 718.60;  464.300;  -51.960;    0.000;516.25999
 718.87;  482.300;  -58.480;    0.000;540.77999
 719.13;  464.740;  -63.390;    0.000;528.12999
 719.40;  467.620;  -57.650;    0.000;525.27000
 719.66;  444.820;  -60.260;    0.000;505.08001
 719.93;  447.140;  -56.900;    0.000;504.04002
 720.19;  430.420;  -67.380;    0.000;497.80001
 720.45;  440.340;  -62.750;    0.000;503.09000
 720.72;  442.020;  -57.950;    0.000;499.96999
 720.98;  465.860;  -55.200;    0.000;521.05999
 721.25;  430.960;  -64.310;    0.000;495.26999
 721.51;  437.980;  -68.290;    0.000;506.27001
 721.77;  452.180;  -60.350;    0.000;512.52999
 722.04;  444.460;  -45.030;    0.000;489.48999
 722.30;  444.860;  -55.770;    0.000;500.62999
 722.57;  447.980;  -60.430;    0.000;508.41001
 722.83;  447.080;  -62.410;    0.000;509.48999
 723.09;  417.180;  -64.170;    0.000;481.34999
 723.36;  432.900;  -64.180;    0.000;497.07999
 723.62;  441.960;  -58.620;    0.000;500.57999
 723.88;  425.700;  -56.860;    0.000;482.56001
 724.15;  424.260;  -56.520;    0.000;480.78001
 724.41;  423.360;  -63.620;    0.000;486.97998
 724.68;  424.320;  -62.790;    0.000;487.11001
 724.94;  448.980;  -49.670;    0.000;498.65001
 725.20;  424.560;  -59.760;    0.000;484.32000
 725.47;  420.200;  -61.790;    0.000;481.99001
 725.73;  416.280;  -57.560;    0.000;473.84000
 725.99;  409.440;  -62.280;    0.000;471.72000
 726.26;  420.960;  -48.740;    0.000;469.69999
 726.52;  411.480;  -52.300;    0.000;463.78001
 726.78;  419.320;  -64.050;    0.000;483.37001
 727.05;  418.340;  -58.610;    0.000;476.95000
 727.31;  413.240;  -65.490;    0.000;478.72999
 727.57;  401.200;  -61.120;    0.000;462.32001
 727.84;  410.780;  -54.090;    0.000;464.87000
 728.10;  396.960;  -57.090;    0.000;454.04999
 728.36;  398.800;  -62.130;    0.000;460.92999
 728.63;  391.900;  -64.770;    0.000;456.66999
 728.89;  398.640;  -68.210;    0.000;466.85001
 729.15;  393.560;  -60.940;    0.000;454.50000
 729.42;  380.640;  -64.380;    0.000;445.02001
 729.68;  395.120;  -59.120;    0.000;454.23999
 729.94;  374.320;  -61.710;    0.000;436.03001
 730.21;  382.200;  -63.750;    0.000;445.95001
 730.47;  382.980;  -65.420;    0.000;448.40001
 730.73;  391.440;  -62.120;    0.000;453.56000
 731.00;  391.680;  -57.710;    0.000;449.38999
 731.26;  368.880;  -55.830;    0.000;424.71001
 731.52;  382.740;  -65.480;    0.000;448.21999
 731.78;  368.560;  -64.150;    0.000;432.71000
 732.05;  351.760;  -63.760;    0.000;415.52001
 732.31;  369.200;  -66.150;    0.000;435.35001
 732.57;  359.520;  -62.040;    0.000;421.55999
 732.84;  358.260;  -65.060;    0.000;423.32001
 733.10;  378.240;  -61.680;    0.000;439.91999
 733.36;  344.400;  -65.560;    0.000;409.95999
 733.62;  350.400;  -68.590;    0.000;418.98999
 733.89;  347.920;  -60.690;    0.000;408.61001
 734.15;  352.000;  -62.020;    0.000;414.02000
 734.41;  349.920;  -59.170;    0.000;409.09001
 734.67;  335.800;  -65.610;    0.000;401.40999
 734.94;  347.720;  -64.100;    0.000;411.82000
 735.20;  337.780;  -64.260;    0.000;402.04000
 735.46;  343.920;  -61.760;    0.000;405.68001
 735.73;  336.400;  -62.280;    0.000;398.67999
 735.99;  308.160;  -63.580;    0.000;371.74001
 736.25;  327.820;  -65.330;    0.000;393.15001
 736.51;  325.320;  -64.780;    0.000;390.10001
 736.77;  329.000;  -59.870;    0.000;388.87000
 737.04;  317.060;  -62.400;    0.000;379.46000
 737.30;  316.860;  -60.030;    0.000;376.88998
 737.56;  323.000;  -57.690;    0.000;380.69000
 737.82;  313.200;  -62.400;    0.000;375.60001
 738.09;  293.300;  -61.080;    0.000;354.37999
 738.35;  309.800;  -65.060;    0.000;374.85999
 738.61;  306.820;  -60.770;    0.000;367.59001
 738.87;  315.960;  -61.660;    0.000;377.61999
 739.14;  297.320;  -59.450;    0.000;356.77001
 739.40;  290.060;  -66.620;    0.000;356.68000
 739.66;  295.640;  -65.480;    0.000;361.12002
 739.92;  275.600;  -64.110;    0.000;339.71001
 740.18;  308.200;  -58.910;    0.000;367.11001
 740.45;  283.920;  -66.570;    0.000;350.49001
 740.71;  274.360;  -64.190;    0.000;338.54999
 740.97;  294.540;  -61.620;    0.000;356.16001
 741.23;  271.600;  -64.440;    0.000;336.04001
 741.49;  256.720;  -61.870;    0.000;318.59000
 741.76;  251.020;  -69.670;    0.000;320.69000
 742.02;  265.420;  -70.580;    0.000;336.00002
 742.28;  259.040;  -67.810;    0.000;326.85001
 742.54;  251.960;  -67.320;    0.000;319.28001
 742.80;  250.360;  -66.940;    0.000;317.30000
 743.06;  263.300;  -60.220;    0.000;323.51999
 743.33;  259.240;  -60.250;    0.000;319.48999
 743.59;  254.460;  -71.210;    0.000;325.67001
 743.85;  246.160;  -63.280;    0.000;309.44000
 744.11;  248.920;  -65.520;    0.000;314.43999
 744.37;  248.740;  -63.300;    0.000;312.04000
 744.63;  233.340;  -62.430;    0.000;295.77000
 744.90;  240.080;  -61.300;    0.000;301.38000
 745.16;  224.560;  -61.400;    0.000;285.96000
 745.42;  232.000;  -69.410;    0.000;301.41000
 745.68;  242.040;  -62.770;    0.000;304.80999
 745.94;  247.820;  -54.740;    0.000;302.56001
 746.20;  229.320;  -62.940;    0.000;292.26001
 746.46;  235.680;  -58.490;    0.000;294.16999
 746.72;  232.420;  -60.020;    0.000;292.44000
 746.99;  221.240;  -59.340;    0.000;280.58001
 747.25;  240.160;  -54.110;    0.000;294.27000
 747.51;  220.520;  -63.240;    0.000;283.76001
 747.77;  209.140;  -66.010;    0.000;275.15000
 748.03;  205.880;  -65.590;    0.000;271.47000
 748.29;  217.700;  -63.300;    0.000;281.00000
 748.55;  199.660;  -63.610;    0.000;263.27000
 748.81;  189.700;  -65.400;    0.000;255.10000
 749.08;  199.800;  -61.140;    0.000;260.94000
 749.34;  197.660;  -61.020;    0.000;258.68000
 749.60;  204.100;  -61.090;    0.000;265.19001
 749.86;  201.920;  -62.460;    0.000;264.38000
 750.12;  185.640;  -58.080;    0.000;243.72000
 750.38;  196.340;  -66.740;    0.000;263.07999
 750.64;  168.720;  -64.990;    0.000;233.71000
 750.90;  201.260;  -61.010;    0.000;262.26999
 751.16;  169.060;  -66.030;    0.000;235.09000
 751.42;  170.520;  -63.820;    0.000;234.34000
 751.68;  190.540;  -57.490;    0.000;248.02999
 751.95;  160.640;  -66.360;    0.000;227.00000
 752.21;  153.840;  -68.570;    0.000;222.41000
 752.47;  144.600;  -59.310;    0.000;203.91001
 752.73;  149.280;  -72.150;    0.000;221.43000
 752.99;  153.960;  -62.330;    0.000;216.29001
 753.25;  139.580;  -68.210;    0.000;207.79000
 753.51;  160.180;  -66.540;    0.000;226.71999
 753.77;  156.920;  -65.250;    0.000;222.17000
 754.03;  145.580;  -63.310;    0.000;208.89000
 754.29;  132.840;  -69.830;    0.000;202.67000
 754.55;  140.580;  -73.220;    0.000;213.80000
 754.81;  143.180;  -65.730;    0.000;208.91000
 755.07;  134.400;  -60.480;    0.000;194.87999
 755.33;  136.880;  -68.640;    0.000;205.52000
 755.59;  134.080;  -69.750;    0.000;203.83000
 755.85;  128.060;  -61.550;    0.000;189.61000
 756.11;  130.840;  -66.180;    0.000;197.02000
 756.37;  126.960;  -68.200;    0.000;195.16000
 756.63;  137.820;  -52.880;    0.000;190.70001
 756.89;  101.040;  -77.540;    0.000;178.58000
 757.15;  111.440;  -67.220;    0.000;178.66000
 757.41;  154.760;  -51.850;    0.000;206.60999
 757.68;  111.100;  -69.940;    0.000;181.04000
 757.94;  125.000;  -61.100;    0.000;186.10000
 758.20;  128.620;  -60.850;    0.000;189.46999
 758.46;  102.000;  -65.120;    0.000;167.12000
 758.72;  111.040;  -70.550;    0.000;181.59000
 758.98;  115.860;  -58.450;    0.000;174.31000
 759.24;  101.940;  -62.840;    0.000;164.78000
 759.50;  111.520;  -60.370;    0.000;171.89000
 759.76;  119.080;  -58.150;    0.000;177.23000
 760.02;   94.860;  -64.840;    0.000;159.70000
 760.27;  103.740;  -64.360;    0.000;168.10000
 760.53;  101.320;  -61.770;    0.000;163.09000
 760.79;  103.680;  -58.420;    0.000;162.10000
 761.05;  105.820;  -59.730;    0.000;165.55000
 761.31;  107.180;  -68.970;    0.000;176.15000
 761.57;   92.580;  -64.760;    0.000;157.34000
 761.83;  100.200;  -63.850;    0.000;164.05000
 762.09;   80.360;  -60.800;    0.000;141.16000
 762.35;   82.040;  -73.160;    0.000;155.20000
 762.61;   85.760;  -65.790;    0.000;151.55000
 762.87;  106.560;  -64.790;    0.000;171.35000
 763.13;   73.380;  -65.200;    0.000;138.57999
 763.39;  101.060;  -58.510;    0.000;159.57000
 763.65;   71.600;  -65.790;    0.000;137.39000
 763.91;   82.700;  -68.850;    0.000;151.55000
 764.17;   89.180;  -61.550;    0.000;150.73000
 764.43;   88.720;  -65.120;    0.000;153.84000
 764.69;   71.560;  -67.690;    0.000;139.25000
 764.95;   86.220;  -65.290;    0.000;151.51000
 765.21;   63.040;  -64.710;    0.000;127.75000
 765.47;   73.100;  -60.070;    0.000;133.17000
 765.73;   69.240;  -63.090;    0.000;132.33000
 765.98;   90.180;  -62.060;    0.000;152.24000
 766.24;   67.600;  -71.710;    0.000;139.31000
 766.50;   62.460;  -70.390;    0.000;132.85000
 766.76;   83.360;  -59.140;    0.000;142.50000
 767.02;   61.020;  -67.650;    0.000;128.67000
 767.28;   68.660;  -62.770;    0.000;131.43000
 767.54;   64.500;  -65.130;    0.000;129.63000
 767.80;   64.380;  -67.980;    0.000;132.36000
 768.06;   70.820;  -57.150;    0.000;127.97000
 768.32;   79.800;  -55.090;    0.000;134.89000
 768.58;   55.280;  -72.460;    0.000;127.74000
 768.83;   40.220;  -67.770;    0.000;107.99000
 769.09;   46.220;  -63.610;    0.000;109.83000
 769.35;   58.320;  -63.310;    0.000;121.63000
 769.61;   56.000;  -65.500;    0.000;121.50000
 769.87;   61.000;  -60.230;    0.000;121.23000
 770.13;   70.240;  -65.920;    0.000;136.16000
 770.39;   43.860;  -67.330;    0.000;111.19000
 770.65;   58.720;  -65.630;    0.000;124.35000
 770.90;   34.000;  -71.040;    0.000;105.04000
 771.16;   47.020;  -65.650;    0.000;112.67000
 771.42;   50.580;  -60.610;    0.000;111.19000
 771.68;   42.340;  -72.120;    0.000;114.46000
 771.94;   48.580;  -64.270;    0.000;112.85000
 772.20;   53.180;  -71.570;    0.000;124.75000
 772.46;   35.860;  -70.450;    0.000;106.31000
 772.71;   52.740;  -62.790;    0.000;115.53000
 772.97;   67.680;  -61.450;    0.000;129.13000
 773.23;   53.540;  -66.880;    0.000;120.42000
 773.49;   63.000;  -61.900;    0.000;124.90000
 773.75;   33.600;  -66.690;    0.000;100.29000
 774.01;   39.180;  -66.730;    0.000;105.91000
 774.26;   33.300;  -70.110;    0.000;103.41000
 774.52;   56.720;  -57.630;    0.000;114.35000
 774.78;   30.860;  -67.870;    0.000;98.73000
 775.04;   65.440;  -57.380;    0.000;122.82000
 775.30;   26.820;  -70.620;    0.000;97.44000
 775.56;   22.180;  -62.130;    0.000;84.31000
 775.81;   36.520;  -62.360;    0.000;98.88000
 776.07;   19.540;  -63.320;    0.000;82.86000
 776.33;   34.680;  -66.810;    0.000;101.49000
 776.59;   26.040;  -72.310;    0.000;98.35000
 776.85;   27.360;  -72.330;    0.000;99.69000
 777.10;   33.060;  -66.910;    0.000;99.97001
 777.36;   17.940;  -70.350;    0.000;88.29000
 777.62;   28.960;  -66.270;    0.000;95.23000
 777.88;   20.520;  -66.450;    0.000;86.97000
 778.14;   22.120;  -67.860;    0.000;89.98000
 778.39;   38.120;  -69.450;    0.000;107.57000
 778.65;   28.220;  -66.470;    0.000;94.69000
 778.91;   27.320;  -72.700;    0.000;100.02000
 779.17;   30.740;  -59.560;    0.000;90.30000
 779.42;    9.480;  -73.390;    0.000;82.87000
 779.68;    6.440;  -69.660;    0.000;76.10000
 779.94;   21.820;  -68.700;    0.000;90.52000
 780.20;   20.200;  -73.010;    0.000;93.21000
 780.46;   20.480;  -73.730;    0.000;94.21000
 780.71;   35.180;  -65.500;    0.000;100.68000
 780.97;   17.060;  -67.720;    0.000;84.78000
 781.23;   14.120;  -68.470;    0.000;82.59000
 781.49;   20.480;  -65.070;    0.000;85.55000
 781.74;   16.240;  -62.670;    0.000;78.91000
 782.00;   14.140;  -71.050;    0.000;85.19000
 782.26;   30.080;  -61.940;    0.000;92.02000
 782.52;   11.980;  -67.400;    0.000;79.38000
 782.77;   20.540;  -63.130;    0.000;83.67000
 783.03;    2.820;  -72.070;    0.000;74.89000
 783.29;    7.560;  -67.470;    0.000;75.03000
 783.54;   11.780;  -69.510;    0.000;81.29000
 783.80;   29.420;  -61.520;    0.000;90.94000
 784.06;    9.000;  -72.390;    0.000;81.39000
 784.32;   -2.300;  -69.850;    0.000;67.55000
 784.57;   38.600;  -57.390;    0.000;95.99000
 784.83;   -3.380;  -75.500;    0.000;72.12000
 785.09;   -6.100;  -75.670;    0.000;69.57000
 785.34;    3.800;  -67.830;    0.000;71.63000
 785.60;   12.520;  -68.990;    0.000;81.51000
 785.86;   -1.240;  -65.770;    0.000;64.53000
 786.12;    8.320;  -64.000;    0.000;72.32000
 786.37;   25.360;  -58.590;    0.000;83.95000
 786.63;  -10.940;  -70.160;    0.000;59.22000
 786.89;    1.640;  -64.130;    0.000;65.77000
 787.14;    4.060;  -68.600;    0.000;72.66000
 787.40;   13.180;  -65.120;    0.000;78.30000
 787.66;    4.340;  -69.570;    0.000;73.91000
 787.91;   36.600;  -54.980;    0.000;91.58000
 788.17;   -4.580;  -74.240;    0.000;69.66000
 788.43;   -8.560;  -65.670;    0.000;57.11000
 788.68;   -9.140;  -66.800;    0.000;57.66000
 788.94;   -3.860;  -64.460;    0.000;60.60000
 789.20;   10.400;  -67.690;    0.000;78.09000
 789.45;  -19.160;  -75.860;    0.000;56.70000
 789.71;   -6.400;  -77.270;    0.000;70.87000
 789.97;   13.760;  -62.650;    0.000;76.41000
 790.22;   -4.220;  -70.660;    0.000;66.44000
 790.48;   -3.420;  -66.280;    0.000;62.86000
 790.74;   -9.560;  -69.070;    0.000;59.51000
 790.99;  -10.360;  -67.310;    0.000;56.95000
 791.25;   -6.180;  -72.320;    0.000;66.14000
 791.51;   -5.300;  -69.110;    0.000;63.81000
 791.76;   11.720;  -60.800;    0.000;72.52000
 792.02;  -15.040;  -69.930;    0.000;54.89000
 792.27;    6.260;  -63.120;    0.000;69.38000
 792.53;   -0.560;  -67.640;    0.000;67.08000
 792.79;  -11.420;  -74.900;    0.000;63.48000
 793.04;  -17.920;  -66.410;    0.000;48.49000
 793.30;  -24.620;  -72.290;    0.000;47.67000
 793.56;  -18.940;  -64.850;    0.000;45.91000
 793.81;    5.680;  -64.930;    0.000;70.61000
 794.07;  -27.380;  -78.310;    0.000;50.93000
 794.32;  -17.300;  -65.850;    0.000;48.55000
 794.58;  -13.680;  -64.290;    0.000;50.61000
 794.84;  -14.600;  -73.370;    0.000;58.77000
 795.09;   -0.100;  -63.290;    0.000;63.19000
 795.35;  -10.140;  -68.300;    0.000;58.16000
 795.60;   -4.480;  -67.650;    0.000;63.17000
 795.86;  -24.540;  -68.830;    0.000;44.29000
 796.12;  -23.460;  -75.900;    0.000;52.44000
 796.37;  -16.600;  -66.550;    0.000;49.95000
 796.63;  -15.460;  -68.700;    0.000;53.24000
 796.88;  -12.160;  -72.950;    0.000;60.79000
 797.14;  -16.380;  -65.230;    0.000;48.85000
 797.39;   -4.880;  -61.460;    0.000;56.58000
 797.65;  -30.020;  -68.500;    0.000;38.48000
 797.91;  -15.520;  -79.560;    0.000;64.04000
 798.16;  -33.800;  -69.310;    0.000;35.51000
 798.42;  -18.660;  -73.060;    0.000;54.40000
 798.67;  -19.020;  -75.160;    0.000;56.14000
 798.93;  -30.660;  -72.820;    0.000;42.16000
 799.18;  -32.960;  -69.660;    0.000;36.70000
 799.44;  -21.960;  -74.410;    0.000;52.45000
 799.69;  -22.680;  -72.570;    0.000;49.89000
 799.95;  -32.360;  -76.750;    0.000;44.39000
 800.21;  -30.320;  -71.490;    0.000;41.17000
 800.46;   -1.380;  -60.670;    0.000;59.29000
 800.72;  -28.320;  -74.550;    0.000;46.23000
 800.97;  -20.020;  -66.080;    0.000;46.06000
 801.23;  -34.280;  -69.050;    0.000;34.77000
 801.48;  -35.960;  -80.230;    0.000;44.27000
 801.74;  -29.520;  -70.650;    0.000;41.13000
 801.99;  -18.160;  -69.570;    0.000;51.41000
 802.25;  -17.720;  -68.120;    0.000;50.40000
 802.50;  -31.500;  -69.760;    0.000;38.26000
 802.76;  -19.180;  -68.390;    0.000;49.21000
 803.01;  -32.020;  -73.710;    0.000;41.69000
 803.27;  -34.540;  -68.660;    0.000;34.12000
 803.52;  -26.860;  -67.380;    0.000;40.52000
 803.78;  -10.800;  -65.800;    0.000;55.00000
 804.03;  -26.360;  -64.730;    0.000;38.37000
 804.29;  -51.500;  -73.690;    0.000;22.19000
 804.54;  -27.180;  -72.140;    0.000;44.96000
 804.80;  -37.420;  -70.710;    0.000;33.29000
 805.05;  -32.020;  -78.700;    0.000;46.68000
 805.31;  -21.660;  -64.860;    0.000;43.20000
 805.56;  -16.960;  -61.820;    0.000;44.86000
 805.82;  -30.680;  -75.510;    0.000;44.83000
 806.07;  -20.660;  -71.590;    0.000;50.93000
 806.33;  -37.760;  -63.430;    0.000;25.67000
 806.58;  -30.020;  -76.420;    0.000;46.40000
 806.84;  -24.900;  -67.110;    0.000;42.21000
 807.09;  -22.440;  -70.810;    0.000;48.37000
 807.34;  -34.180;  -71.760;    0.000;37.58000
 807.60;  -20.440;  -72.510;    0.000;52.07000
 807.85;  -24.280;  -66.100;    0.000;41.82000
 808.11;  -36.460;  -65.900;    0.000;29.44000
 808.36;  -11.620;  -56.490;    0.000;44.87000
 808.62;  -32.780;  -69.320;    0.000;36.54000
 808.87;  -39.520;  -69.730;    0.000;30.21000
 809.13;  -26.880;  -72.860;    0.000;45.98000
 809.38;  -14.780;  -63.580;    0.000;48.80000
 809.63;  -43.300;  -74.820;    0.000;31.52000
 809.89;  -26.680;  -65.740;    0.000;39.06000
 810.14;  -33.860;  -75.130;    0.000;41.27000
 810.40;  -26.100;  -66.270;    0.000;40.17000
 810.65;  -25.800;  -71.440;    0.000;45.64000
 810.91;  -44.520;  -76.930;    0.000;32.41000
 811.16;  -21.140;  -65.800;    0.000;44.66000
 811.41;  -29.540;  -58.080;    0.000;28.54000
 811.67;  -25.560;  -71.200;    0.000;45.64000
 811.92;  -20.280;  -67.900;    0.000;47.62000
 812.18;  -33.300;  -70.620;    0.000;37.32000
 812.43;  -31.320;  -69.170;    0.000;37.85000
 812.68;  -27.520;  -72.250;    0.000;44.73000
 812.94;  -42.360;  -70.010;    0.000;27.65000
 813.19;  -38.620;  -73.690;    0.000;35.07000
 813.45;   -6.000;  -54.460;    0.000;48.46000
 813.70;  -35.080;  -73.310;    0.000;38.23000
 813.95;  -41.380;  -69.970;    0.000;28.59000
 814.21;  -36.700;  -72.990;    0.000;36.29000
 814.46;  -40.100;  -66.200;    0.000;26.10000
 814.71;  -40.660;  -77.220;    0.000;36.56000
 814.97;  -53.600;  -71.610;    0.000;18.01000
 815.22;  -38.780;  -73.660;    0.000;34.88000
 815.48;  -51.800;  -74.930;    0.000;23.13000
 815.73;  -30.640;  -70.320;    0.000;39.68000
 815.98;  -48.240;  -72.260;    0.000;24.02000
 816.24;  -44.240;  -73.690;    0.000;29.45000
 816.49;  -28.660;  -67.570;    0.000;38.91000
 816.74;  -25.480;  -66.060;    0.000;40.58000
 817.00;   -9.460;  -65.110;    0.000;55.65000
 817.25;  -42.120;  -64.360;    0.000;22.24000
 817.50;  -37.500;  -71.190;    0.000;33.69000
 817.76;  -48.400;  -73.870;    0.000;25.47000
 818.01;  -61.240;  -74.140;    0.000;12.90000
 818.26;  -41.760;  -77.660;    0.000;35.90001
 818.52;  -38.220;  -71.160;    0.000;32.94000
 818.77;  -52.340;  -70.450;    0.000;18.11000
 819.02;  137.960;   -1.560;    0.000;139.52001
 819.28;  -46.480;  -76.850;    0.000;30.37000
 819.53;  -57.800;  -76.810;    0.000;19.01000
 819.78;  -31.860;  -71.320;    0.000;39.46000
 820.04;  -45.100;  -76.120;    0.000;31.02000
 820.29;  -39.160;  -69.520;    0.000;30.36000
 820.54;  -30.980;  -71.830;    0.000;40.85000
 820.79;  -31.880;  -68.430;    0.000;36.55000
 821.05;  -65.500;  -73.180;    0.000; 7.68000
 821.30;  -18.040;  -60.740;    0.000;42.70000
 821.55;  -22.380;  -56.870;    0.000;34.49000
 821.81;  -43.360;  -72.250;    0.000;28.89000
 822.06;  -39.460;  -64.240;    0.000;24.78000
 822.31;  -26.800;  -64.090;    0.000;37.29000
 822.56;  -52.740;  -71.570;    0.000;18.83000
 822.82;  -53.620;  -74.760;    0.000;21.14000
 823.07;  -63.580;  -77.000;    0.000;13.42000
 823.32;  -53.860;  -86.470;    0.000;32.61000
 823.58;  -41.800;  -70.830;    0.000;29.03000
 823.83;  -53.220;  -68.440;    0.000;15.22000
 824.08;  -57.100;  -68.700;    0.000;11.60000
 824.33;  -55.060;  -78.080;    0.000;23.02000
 824.59;  -54.240;  -75.110;    0.000;20.87000
 824.84;  -52.180;  -73.820;    0.000;21.64000
 825.09;  -46.900;  -71.350;    0.000;24.45000
 825.34;  -36.220;  -78.610;    0.000;42.39000
 825.60;  -49.540;  -76.840;    0.000;27.30000
 825.85;  -58.120;  -72.800;    0.000;14.68000
 826.10;  -51.560;  -75.820;    0.000;24.26000
 826.35;  -47.940;  -78.380;    0.000;30.44000
 826.61;  -52.260;  -69.170;    0.000;16.91000
 826.86;  -61.380;  -74.300;    0.000;12.92000
 827.11;  -58.780;  -73.210;    0.000;14.43000
 827.36;  -44.540;  -79.440;    0.000;34.90000
 827.61;  -69.340;  -77.970;    0.000; 8.63000
 827.87;  -48.060;  -73.890;    0.000;25.83000
 828.12;  -50.940;  -78.790;    0.000;27.85000
 828.37;  -52.680;  -76.470;    0.000;23.79000
 828.62;  -52.180;  -66.780;    0.000;14.60000
 828.88;  -40.880;  -68.950;    0.000;28.07000
 829.13;  -51.300;  -65.460;    0.000;14.16000
 829.38;  -56.040;  -74.310;    0.000;18.27000
 829.63;  -61.120;  -76.380;    0.000;15.26000
 829.88;  -54.340;  -77.840;    0.000;23.50000
 830.14;  -50.820;  -68.400;    0.000;17.58000
 830.39;  -38.480;  -67.150;    0.000;28.67000
 830.64;  -59.840;  -73.500;    0.000;13.66000
 830.89;  -43.140;  -63.930;    0.000;20.79000
 831.14;  -58.680;  -65.130;    0.000; 6.45000
 831.39;  -71.140;  -80.200;    0.000; 9.06000
 831.65;  -62.500;  -73.680;    0.000;11.18000
 831.90;  -51.040;  -76.450;    0.000;25.41000
 832.15;  -43.380;  -74.460;    0.000;31.08000
 832.40;  -46.740;  -71.070;    0.000;24.33000
 832.65;  -55.640;  -65.920;    0.000;10.28000
 832.90;  -67.040;  -71.420;    0.000; 4.38000
 833.16;  -58.000;  -70.920;    0.000;12.92000
 833.41;  -63.120;  -68.270;    0.000; 5.15000
 833.66;  -70.640;  -80.480;    0.000; 9.84000
 833.91;  -50.540;  -69.470;    0.000;18.93000
 834.16;  -65.840;  -74.480;    0.000; 8.64001
 834.41;  -54.900;  -78.330;    0.000;23.43000
 834.66;  -56.420;  -73.780;    0.000;17.36000
 834.92;  -59.940;  -76.420;    0.000;16.48000
 835.17;  -62.320;  -79.700;    0.000;17.38000
 835.42;  -48.160;  -74.750;    0.000;26.59000
 835.67;  -52.020;  -67.620;    0.000;15.60000
 835.92;  -61.400;  -76.180;    0.000;14.78000
 836.17;  -63.340;  -73.070;    0.000; 9.73000
 836.42;  -57.720;  -80.720;    0.000;23.00000
 836.67;  -67.480;  -72.910;    0.000; 5.43000
 836.93;  -49.700;  -67.370;    0.000;17.67000
 837.18;  -55.440;  -68.480;    0.000;13.04000
 837.43;  -57.880;  -77.570;    0.000;19.69000
 837.68;  -60.120;  -75.250;    0.000;15.13000
 837.93;  -72.680;  -77.620;    0.000; 4.94000
 838.18;  -59.560;  -72.720;    0.000;13.16000
 838.43;  -70.540;  -77.330;    0.000; 6.79000
 838.68;  -62.860;  -75.400;    0.000;12.54000
 838.93;  -67.560;  -76.840;    0.000; 9.28000
 839.18;  -49.840;  -68.870;    0.000;19.03000
 839.43;  -57.700;  -68.920;    0.000;11.22000
 839.69;  -66.920;  -75.200;    0.000; 8.28000
 839.94;  -69.100;  -75.060;    0.000; 5.96000
 840.19;  -52.200;  -64.900;    0.000;12.70000
 840.44;  -50.980;  -74.590;    0.000;23.61000
 840.69;  -54.140;  -67.680;    0.000;13.54000
 840.94;  -56.740;  -78.800;    0.000;22.06000
 841.19;  -46.280;  -66.410;    0.000;20.13000
 841.44;  -59.440;  -70.390;    0.000;10.95000
 841.69;  -33.180;  -69.710;    0.000;36.53000
 841.94;  -64.420;  -72.650;    0.000; 8.23000
 842.19;  -59.560;  -74.280;    0.000;14.72000
 842.44;  -45.760;  -72.650;    0.000;26.89000
 842.69;  -57.520;  -68.330;    0.000;10.81000
 842.94;  -59.840;  -71.610;    0.000;11.77000
 843.19;  -78.740;  -78.190;    0.000;-0.55000
 843.44;  -51.160;  -74.710;    0.000;23.55000
 843.69;  -63.600;  -76.520;    0.000;12.92000
 843.94;   20.020;  -44.550;    0.000;64.57000
 844.19;  -71.780;  -77.910;    0.000; 6.13000
 844.44;  -53.520;  -71.510;    0.000;17.99000
 844.69;  -62.580;  -73.310;    0.000;10.73000
 844.95;  -68.360;  -74.630;    0.000; 6.27000
 845.20;  -72.800;  -82.130;    0.000; 9.32999
 845.45;  -42.100;  -68.000;    0.000;25.90000
 845.70;  -67.300;  -72.870;    0.000; 5.57000
 845.95;  -65.060;  -74.560;    0.000; 9.50000
 846.20;  -61.360;  -71.730;    0.000;10.37000
 846.45;  -70.580;  -77.390;    0.000; 6.81000
 846.70;  -67.900;  -65.790;    0.000;-2.11000
 846.95;  -67.420;  -75.980;    0.000; 8.56001
 847.20;  -69.360;  -73.000;    0.000; 3.64000
 847.44;  -27.300;  -61.130;    0.000;33.83000
 847.69;  -76.880;  -79.180;    0.000; 2.30000
 847.94;  -52.740;  -71.950;    0.000;19.21000
 848.19;  -68.460;  -73.590;    0.000; 5.13000
 848.44;  -50.280;  -70.960;    0.000;20.68000
 848.69;  -65.020;  -73.670;    0.000; 8.65000
 848.94;  -50.040;  -69.750;    0.000;19.71000
 849.19;  -78.760;  -80.480;    0.000; 1.72000
 849.44;  -67.040;  -73.190;    0.000; 6.15000
 849.69;  -71.420;  -78.510;    0.000; 7.09000
 849.94;  -79.200;  -72.940;    0.000;-6.25999
 850.19;  -54.960;  -63.930;    0.000; 8.97000
 850.44;  -60.580;  -76.610;    0.000;16.03000
 850.69;  -67.560;  -69.690;    0.000; 2.13000
 850.94;  -67.040;  -77.600;    0.000;10.56000
 851.19;  -60.860;  -72.230;    0.000;11.37000
 851.44;  -61.260;  -76.080;    0.000;14.82000
 851.69;  -79.140;  -76.040;    0.000;-3.10000
 851.94;  -66.280;  -79.190;    0.000;12.91000
 852.19;  -69.600;  -76.300;    0.000; 6.70000
 852.44;  -65.500;  -74.760;    0.000; 9.26000
 852.68;  -70.940;  -75.620;    0.000; 4.68000
 852.93;  -51.720;  -70.590;    0.000;18.87000
 853.18;  -66.380;  -77.250;    0.000;10.87000
 853.43;  -60.820;  -76.120;    0.000;15.30000
 853.68;  -67.560;  -77.810;    0.000;10.25000
 853.93;  -46.600;  -67.550;    0.000;20.95000
 854.18;  -48.320;  -66.630;    0.000;18.31000
 854.43;  -52.180;  -77.970;    0.000;25.79000
 854.68;  -76.080;  -75.490;    0.000;-0.59000
 854.93;  -48.460;  -66.450;    0.000;17.99000
 855.18;  -62.140;  -74.650;    0.000;12.51000
 855.42;  -59.200;  -72.230;    0.000;13.03000
 855.67;  -62.360;  -71.310;    0.000; 8.95000
 855.92;  -68.000;  -74.510;    0.000; 6.51000
 856.17;  -58.280;  -67.440;    0.000; 9.16000
 856.42;  -44.480;  -76.160;    0.000;31.68000
 856.67;  -65.520;  -77.970;    0.000;12.45000
 856.92;  -66.700;  -79.620;    0.000;12.92001
 857.17;  -72.620;  -77.870;    0.000; 5.25000
 857.41;  -62.140;  -71.030;    0.000; 8.89000
 857.66;  -65.460;  -73.290;    0.000; 7.83000
 857.91;  -55.440;  -73.290;    0.000;17.85000
 858.16;  -74.540;  -82.520;    0.000; 7.98000
 858.41;  -69.680;  -72.320;    0.000; 2.64000
 858.66;  -60.920;  -69.160;    0.000; 8.24001
 858.91;  -60.840;  -77.930;    0.000;17.09000
 859.15;  -79.400;  -76.870;    0.000;-2.53000
 859.40;  -44.780;  -68.270;    0.000;23.49000
 859.65;  -77.500;  -84.460;    0.000; 6.96000
 859.90;  -68.580;  -79.390;    0.000;10.81000
 860.15;  -63.600;  -69.890;    0.000; 6.29000
 860.40;  -53.060;  -69.890;    0.000;16.83000
 860.64;  -60.040;  -70.370;    0.000;10.33000
 860.89;  -72.440;  -74.750;    0.000; 2.31000
 861.14;  -68.060;  -70.090;    0.000; 2.03000
 861.39;  -52.180;  -69.870;    0.000;17.69000
 861.64;  -69.160;  -75.520;    0.000; 6.35999
 861.88;  -53.280;  -72.380;    0.000;19.10000
 862.13;  -62.040;  -76.230;    0.000;14.19000
 862.38;  -77.180;  -72.450;    0.000;-4.73000
 862.63;  -68.860;  -74.260;    0.000; 5.40000
 862.88;  -65.460;  -69.530;    0.000; 4.07000
 863.12;  -49.240;  -67.960;    0.000;18.72000
 863.37;  -71.140;  -71.990;    0.000; 0.85000
 863.62;  -64.200;  -77.420;    0.000;13.22000
 863.87;  -70.500;  -78.180;    0.000; 7.68000
 864.12;  -63.000;  -73.600;    0.000;10.60000
 864.36;  -60.780;  -69.580;    0.000; 8.80000
 864.61;  -65.920;  -73.260;    0.000; 7.34000
 864.86;  -72.860;  -78.780;    0.000; 5.92000
 865.11;  -66.180;  -68.440;    0.000; 2.26000
 865.35;  -56.180;  -68.810;    0.000;12.63000
 865.60;  -58.020;  -71.930;    0.000;13.91000
 865.85;  -58.320;  -72.600;    0.000;14.28000
 866.10;  -76.460;  -75.090;    0.000;-1.37000
 866.34;  -63.800;  -74.150;    0.000;10.35000
 866.59;  -62.960;  -67.290;    0.000; 4.33000
 866.84;  -68.980;  -74.630;    0.000; 5.64999
 867.09;  -75.040;  -80.380;    0.000; 5.34000
 867.33;  -69.860;  -74.040;    0.000; 4.18000
 867.58;  -65.180;  -71.470;    0.000; 6.29000
 867.83;  -67.300;  -74.280;    0.000; 6.98000
 868.08;  -61.220;  -76.090;    0.000;14.87000
 868.32;  -59.940;  -68.010;    0.000; 8.07000
 868.57;  -68.740;  -81.500;    0.000;12.76000
 868.82;  -52.240;  -72.920;    0.000;20.68000
 869.07;  -88.180;  -81.160;    0.000;-7.02000
 869.31;  -63.340;  -69.490;    0.000; 6.15000
 869.56;  -72.140;  -84.440;    0.000;12.30000
 869.81;  -57.940;  -83.050;    0.000;25.11000
 870.05;  -81.780;  -79.990;    0.000;-1.79000
 870.30;  -63.620;  -76.070;    0.000;12.45000
 870.55;  -51.840;  -69.170;    0.000;17.33000
 870.80;  -51.780;  -74.860;    0.000;23.08000
 871.04;  -52.680;  -69.280;    0.000;16.60000
 871.29;  -57.780;  -73.970;    0.000;16.19000
 871.54;  -57.200;  -72.650;    0.000;15.45000
 871.78;  -84.380;  -75.650;    0.000;-8.73000
 872.03;  -60.680;  -76.460;    0.000;15.78000
 872.28;  -53.720;  -75.610;    0.000;21.89000
 872.52;  -66.040;  -63.940;    0.000;-2.10000
 872.77;  -56.140;  -68.280;    0.000;12.14000
 873.02;  -82.160;  -78.210;    0.000;-3.95000
 873.26;  -67.500;  -75.910;    0.000; 8.41000
 873.51;  -64.760;  -67.060;    0.000; 2.30000
 873.76;  -60.760;  -69.910;    0.000; 9.15001
 874.00;  -48.200;  -67.690;    0.000;19.49000
 874.25;  -80.300;  -75.800;    0.000;-4.50000
 874.50;  -79.080;  -80.100;    0.000; 1.02000
 874.74;  -74.160;  -73.380;    0.000;-0.78001
 874.99;  -72.660;  -77.690;    0.000; 5.03000
 875.24;  -37.720;  -71.860;    0.000;34.14000
 875.48;  -60.800;  -75.510;    0.000;14.71000
 875.73;  -66.040;  -71.020;    0.000; 4.98000
 875.98;  -66.540;  -72.290;    0.000; 5.75000
 876.22;  -65.200;  -74.020;    0.000; 8.82000
 876.47;  -60.460;  -73.180;    0.000;12.72000
 876.71;  -53.780;  -66.650;    0.000;12.87000
 876.96;  -50.580;  -68.040;    0.000;17.46000
 877.21;  -67.020;  -80.560;    0.000;13.54000
 877.45;  -69.460;  -79.740;    0.000;10.28000
 877.70;  -49.400;  -68.150;    0.000;18.75000
 877.95;  -52.700;  -71.420;    0.000;18.72000
 878.19;  -39.100;  -66.290;    0.000;27.19000
 878.44;  -66.920;  -73.630;    0.000; 6.71000
 878.68;  -34.780;  -58.820;    0.000;24.04000
 878.93;  -53.260;  -67.350;    0.000;14.09000
 879.18;  -57.120;  -71.350;    0.000;14.23000
 879.42;  -52.980;  -70.170;    0.000;17.19000
 879.67;  -54.980;  -73.850;    0.000;18.87000
 879.91;  -55.720;  -67.960;    0.000;12.24000
 880.16;  -45.400;  -78.060;    0.000;32.66000
 880.40;  -63.440;  -65.360;    0.000; 1.92000
 880.65;  -52.880;  -71.790;    0.000;18.91000
 880.90;  -58.760;  -69.720;    0.000;10.96000
 881.14;  -53.700;  -65.060;    0.000;11.36000
 881.39;  -55.420;  -72.620;    0.000;17.20000
 881.63;  -58.440;  -68.980;    0.000;10.54000
 881.88;  -46.620;  -70.790;    0.000;24.17000
 882.12;  -57.560;  -76.190;    0.000;18.63000
 882.37;  -59.820;  -72.930;    0.000;13.11000
 882.62;  -58.120;  -70.810;    0.000;12.69000
 882.86;  -68.680;  -75.020;    0.000; 6.34000
 883.11;  -44.540;  -74.980;    0.000;30.44000
 883.35;  -50.640;  -71.230;    0.000;20.59000
 883.60;  -43.320;  -67.200;    0.000;23.88000
 883.84;  -55.440;  -73.170;    0.000;17.73000
 884.09;  -46.520;  -72.690;    0.000;26.17000
 884.33;  -57.880;  -71.050;    0.000;13.17000
 884.58;  -47.920;  -70.670;    0.000;22.75000
 884.82;  -59.240;  -73.840;    0.000;14.59999
 885.07;  -54.280;  -75.950;    0.000;21.67000
 885.31;  -60.480;  -74.400;    0.000;13.92000
 885.56;  -36.260;  -65.280;    0.000;29.02000
 885.80;  -53.340;  -79.420;    0.000;26.08000
 886.05;  -61.960;  -70.300;    0.000; 8.34000
 886.29;  -41.520;  -61.930;    0.000;20.41000
 886.54;  -57.180;  -68.310;    0.000;11.13000
 886.78;  -40.820;  -71.060;    0.000;30.24000
 887.03;  -48.440;  -67.810;    0.000;19.37000
 887.27;  -20.880;  -61.920;    0.000;41.04000
 887.52;  -49.100;  -70.160;    0.000;21.06001
 887.76;  -49.780;  -70.980;    0.000;21.20000
 888.01;  -46.020;  -70.270;    0.000;24.25000
 888.25;  -52.760;  -74.180;    0.000;21.42000
 888.50;  -40.040;  -70.460;    0.000;30.42000
 888.74;  -44.600;  -65.070;    0.000;20.47000
 888.99;  -39.760;  -75.410;    0.000;35.65001
 889.23;  -50.620;  -73.760;    0.000;23.14000
 889.48;  -54.640;  -67.050;    0.000;12.41000
 889.72;  -40.680;  -61.140;    0.000;20.46000
 889.97;  -37.480;  -67.890;    0.000;30.41000
 890.21;  -33.840;  -71.660;    0.000;37.82000
 890.46;  -36.760;  -67.310;    0.000;30.55000
 890.70;  -57.760;  -66.540;    0.000; 8.78000
 890.94;  -32.660;  -66.690;    0.000;34.03000
 891.19;  -47.540;  -67.720;    0.000;20.18000
 891.43;  -39.400;  -60.230;    0.000;20.83000
 891.68;  -32.900;  -60.880;    0.000;27.98000
 891.92;  -31.760;  -66.740;    0.000;34.98000
 892.17;  -43.340;  -63.670;    0.000;20.33000
 892.41;  -34.440;  -64.550;    0.000;30.11000
 892.66;  -44.180;  -72.780;    0.000;28.60000
 892.90;   -3.360;  -53.850;    0.000;50.49000
 893.14;  -41.140;  -67.700;    0.000;26.56000
 893.39;  -26.020;  -61.520;    0.000;35.50000
 893.63;  -46.420;  -66.090;    0.000;19.67000
 893.88;  -37.780;  -64.750;    0.000;26.97000
 894.12;  -40.420;  -60.690;    0.000;20.27000
 894.36;  -23.600;  -52.460;    0.000;28.86000
 894.61;  -32.940;  -59.430;    0.000;26.49000
 894.85;  -15.040;  -59.970;    0.000;44.93000
 895.10;  -22.680;  -64.360;    0.000;41.68000
 895.34;  -35.660;  -59.380;    0.000;23.72000
 895.58;  -39.600;  -69.260;    0.000;29.66000
 895.83;  -33.040;  -62.800;    0.000;29.76000
 896.07;  -33.680;  -66.320;    0.000;32.64000
 896.32;  -23.780;  -58.720;    0.000;34.94000
 896.56;  -27.540;  -59.080;    0.000;31.54000
 896.80;  -27.800;  -64.120;    0.000;36.32000
 897.05;  -27.640;  -66.340;    0.000;38.70000
 897.29;  -22.740;  -51.230;    0.000;28.49000
 897.53;  -37.980;  -64.490;    0.000;26.51000
 897.78;  -26.820;  -59.400;    0.000;32.58000
 898.02;   -8.020;  -53.570;    0.000;45.55000
 898.26;  -26.380;  -63.930;    0.000;37.55000
 898.51;  -21.020;  -52.040;    0.000;31.02000
 898.75;  -22.640;  -56.010;    0.000;33.37000
 898.99;  -21.740;  -55.790;    0.000;34.05000
 899.24;  -11.440;  -49.180;    0.000;37.74000
 899.48;  -11.200;  -48.260;    0.000;37.06000
 899.73;   -9.540;  -54.040;    0.000;44.50000
 899.97;    7.960;  -42.750;    0.000;50.71000
 900.21;   13.260;  -44.210;    0.000;57.47000
 900.46;   -0.280;  -41.230;    0.000;40.95000
 900.70;   21.600;  -40.060;    0.000;61.66000
 900.94;    1.920;  -49.340;    0.000;51.26000
 901.18;    8.520;  -43.690;    0.000;52.21000
 901.43;   19.140;  -40.290;    0.000;59.43000
 901.67;   21.900;  -38.410;    0.000;60.31000
 901.91;   33.660;  -29.050;    0.000;62.71000
 902.16;   26.640;  -39.250;    0.000;65.89000
 902.40;   42.100;  -35.010;    0.000;77.11000
 902.64;   38.360;  -28.700;    0.000;67.06000
 902.89;   51.540;  -28.120;    0.000;79.66000
 903.13;   59.940;  -20.830;    0.000;80.77000
 903.37;   61.400;  -22.230;    0.000;83.63000
 903.61;   96.200;   -7.810;    0.000;104.01000
 903.86;   86.200;   -9.670;    0.000;95.87000
 904.10;   97.820;   -7.290;    0.000;105.11000
 904.34;  104.400;    5.810;    0.000;98.59000
 904.59;  128.300;   17.270;    0.000;111.03000
 904.83;  136.360;   23.940;    0.000;112.42000
 905.07;  177.400;   39.780;    0.000;137.62000
 905.31;  205.720;   43.380;    0.000;162.34000
 905.56;  224.780;   56.080;    0.000;168.70000
 905.80;  270.260;   75.520;    0.000;194.74001

